SamplingTime, AccelerationX, AccelerationY, AccelerationZ, GyroX, GyroY, GyroZ, MagneticFieldX, MagneticFieldY, MagneticFieldZ, Latitude, Longitude
1759223377.588768, -0.137517, -3.097498, -8.748862, -0.202577, -0.260176, 0.005335, 4.775787, -131.910980, -187.736206, 13.726891, 100.771290
1759223377.609426, 0.048034, -3.231274, -9.434801, -0.207764, -0.532491, 0.062140, 4.495102, -131.239502, -187.855133, 13.726887, 100.771248
1759223377.629430, 0.293439, -3.244891, -9.083152, -0.077104, -1.028684, 0.081408, 4.841873, -131.206772, -188.441696, 13.726886, 100.771232
1759223377.649433, 0.090830, -3.237110, -8.205677, 0.179352, -1.139571, 0.033237, 5.016098, -131.443314, -188.483231, 13.726886, 100.771232
1759223377.669241, -0.286406, -3.595043, -8.189367, 0.315737, -1.078830, -0.107925, 5.030243, -131.236649, -187.705826, 13.726886, 100.771232
1759223377.689434, -0.557550, -3.400664, -8.282142, 0.249121, -1.240252, -0.134839, 5.241150, -130.731949, -188.469086, 13.726886, 100.771232
1759223377.709436, -0.982072, -3.613000, -7.878719, 0.279499, -1.598209, 0.051607, 4.967911, -131.057343, -187.618454, 13.726886, 100.771232
1759223377.728699, -1.121683, -3.125181, -7.800758, 0.610255, -1.951236, 0.305629, 4.671555, -131.035004, -187.716644, 13.726886, 100.771232
1759223377.749441, -1.090110, -2.814534, -6.811055, 1.077848, -2.127937, 0.384804, 4.401840, -130.738708, -186.212173, 13.726886, 100.771232
1759223377.769261, -1.202189, -2.778022, -5.676802, 1.707856, -1.971884, 0.372981, 4.590500, -130.519836, -185.171494, 13.726886, 100.771232
1759223377.788857, -1.009306, -2.847604, -5.860706, 2.158044, -1.753995, 0.538889, 4.457901, -130.397797, -183.054657, 13.726886, 100.771232
1759223377.809421, -1.121983, -3.423259, -7.647379, 1.518602, -0.620558, 0.817510, 3.949265, -129.566879, -181.614777, 13.726886, 100.771232
1759223377.829513, 0.055665, -3.206285, -10.926837, 0.009968, -0.766595, 0.282706, 3.626282, -130.218735, -181.823990, 13.726886, 100.771232
1759223377.849433, -1.190966, -4.243722, -11.980735, -1.050806, -1.501676, 0.139597, 4.059418, -129.892395, -182.894943, 13.726886, 100.771232
1759223377.869288, -2.744204, -4.786159, -10.417920, -1.097066, -2.484646, 0.486729, 3.740601, -130.658951, -183.536026, 13.726886, 100.771232
1759223377.888867, -2.744354, -3.763984, -11.277887, -0.489364, -4.200370, 0.549863, 4.007477, -130.380447, -184.097305, 13.726886, 100.771232
1759223377.909418, -2.219575, -3.122338, -10.156054, 0.178045, -5.211511, 0.076128, 4.920090, -130.432587, -183.873993, 13.726886, 100.771232
1759223377.929478, -2.171242, -1.419911, -10.188376, 0.150368, -5.691013, -1.012436, 6.172729, -130.093552, -183.455032, 13.726886, 100.771232
1759223377.949472, -5.068076, -2.237082, -8.038682, -0.782463, -5.582027, -1.491934, 8.233231, -130.000748, -184.244171, 13.726886, 100.771232
1759223377.969459, -6.266823, -1.877204, -6.964583, -1.533575, -5.174338, -1.811341, 10.442581, -129.994385, -185.958313, 13.726886, 100.771232
1759223377.988837, -9.022399, -3.940856, -3.021632, -2.111390, -4.568755, -1.427154, 11.445953, -130.008011, -188.116043, 13.726886, 100.771232
1759223378.008703, -12.292131, -5.632060, -3.774459, -1.747248, -4.386869, 0.039827, 11.314453, -130.135651, -190.106339, 13.727120, 100.771656
1759223378.029105, -11.034277, -5.260360, -2.518251, -1.290142, -2.717058, 0.705745, 11.470047, -130.160904, -191.641220, 13.727120, 100.771656
1759223378.049458, -9.196877, -5.021539, -2.001104, -1.039980, -1.068420, 0.815736, 10.766022, -130.179932, -192.203644, 13.727120, 100.771656
1759223378.069042, -4.266318, -2.589329, -3.886837, -0.826409, 0.364652, 0.115605, 10.475433, -130.431259, -192.838196, 13.727120, 100.771656
1759223378.089453, -0.535852, 2.083704, 0.220715, 0.421573, 2.236632, -1.912388, 11.897873, -130.112015, -192.409241, 13.727120, 100.771656
1759223378.109413, -5.376180, -3.992631, -1.758092, 0.916101, 2.798009, -2.156144, 13.936615, -129.780609, -191.552628, 13.727120, 100.771656
1759223378.129428, -6.911013, -4.348020, -5.000440, 0.089415, 2.355801, -1.421696, 15.036514, -129.730515, -190.884003, 13.727120, 100.771656
1759223378.149485, -6.560561, -5.800851, -5.667674, -0.890775, 2.134035, -0.415977, 15.417984, -129.356674, -190.721191, 13.727120, 100.771656
1759223378.169519, -5.515343, -4.492121, -6.244377, -1.409592, 2.391601, -0.417219, 15.571411, -129.618576, -191.670029, 13.727120, 100.771656
1759223378.189450, -4.193743, -4.299537, -4.845116, -1.170890, 3.277647, -1.106300, 16.713730, -129.044632, -192.063904, 13.727120, 100.771656
1759223378.209409, -2.489521, -3.680187, -6.885574, -0.511380, 3.582544, -1.947258, 18.330688, -128.773636, -191.592300, 13.727120, 100.771656
1759223378.229438, -3.028815, -4.066252, -9.640253, -0.102515, 3.007650, -2.315738, 19.970184, -127.797745, -190.582138, 13.727120, 100.771656
1759223378.249477, -3.117550, -5.953482, -10.010905, -0.172386, 2.505666, -2.084285, 21.398148, -127.277710, -189.949905, 13.727120, 100.771656
1759223378.269438, -3.094655, -6.799682, -9.636512, -0.574904, 2.366468, -1.330997, 22.639130, -126.914368, -189.815750, 13.727120, 100.771656
1759223378.289437, -3.062334, -6.782773, -10.064775, -0.932806, 1.839599, -0.517601, 22.954102, -126.732254, -189.304749, 13.727120, 100.771656
1759223378.308460, -3.059341, -6.227019, -9.945364, -1.000306, 1.040483, 0.101304, 22.442200, -127.000244, -189.466690, 13.727120, 100.771656
1759223378.329443, -2.985121, -5.320515, -9.233388, -0.879297, 0.455161, 0.517572, 22.355560, -127.171265, -190.204376, 13.727120, 100.771656
1759223378.349425, -2.998588, -4.003404, -9.079262, -0.700481, 0.160265, 0.669203, 21.952545, -127.340424, -190.069717, 13.727120, 100.771656
1759223378.369449, -2.816329, -3.049016, -8.527847, -0.485887, 0.115978, 0.612583, 21.351624, -127.641434, -190.408676, 13.727120, 100.771656
1759223378.388819, -2.662652, -3.057545, -7.799860, -0.249459, -0.031167, 0.473162, 21.002396, -127.624039, -190.874283, 13.727120, 100.771656
1759223378.408587, -2.296937, -3.455282, -8.337508, -0.367533, -0.146634, 0.311651, 20.884354, -127.985275, -191.005875, 13.727120, 100.771656
1759223378.429448, -2.458247, -2.996942, -8.845528, -0.547620, -0.666260, 0.273095, 20.490295, -127.912094, -191.543457, 13.727120, 100.771656
1759223378.449213, -3.736002, -3.353828, -8.874408, -0.920599, -0.172245, 0.435959, 20.123581, -128.268219, -192.340332, 13.727120, 100.771656
1759223378.469442, -3.478476, -3.768174, -10.791415, -1.630518, -0.386514, 0.509980, 20.000305, -128.294556, -194.071701, 13.727120, 100.771656
1759223378.489443, -3.916615, -3.907487, -9.222166, -1.929488, -0.563160, 0.771009, 19.142441, -128.085678, -195.747833, 13.727120, 100.771656
1759223378.508835, -4.435408, -2.767248, -9.529820, -1.816621, -1.676955, 0.998238, 18.222580, -128.237549, -197.225388, 13.727120, 100.771656
1759223378.529436, -4.850952, -2.386121, -9.589825, -2.033004, -1.414633, 1.105864, 17.068253, -128.185867, -199.146637, 13.727120, 100.771656
1759223378.549409, -3.868431, -1.858798, -10.081534, -2.299202, -1.805506, 1.009245, 15.643448, -127.943359, -200.814606, 13.727120, 100.771656
1759223378.569434, -4.639813, -0.940023, -8.377012, -2.207097, -1.761514, 1.096134, 14.646149, -127.638519, -203.153229, 13.727120, 100.771656
1759223378.589357, -4.917840, 0.073322, -7.547721, -1.870569, -1.537007, 1.039719, 13.788712, -127.235046, -204.831238, 13.727120, 100.771656
1759223378.609404, -5.442469, -0.136170, -7.368006, -1.504040, -1.452209, 0.729802, 12.596970, -126.962280, -205.803909, 13.727120, 100.771656
1759223378.629474, -6.844574, -1.745972, -10.979061, -1.386770, -3.398452, 1.189611, 10.665573, -126.922623, -207.032242, 13.727120, 100.771656
1759223378.649404, -10.552444, -4.247014, -11.101913, -0.771510, -4.617671, 2.938323, 6.547852, -127.103226, -207.602859, 13.727120, 100.771656
1759223378.669435, -7.403021, 0.903661, -6.507141, -0.118247, -4.263178, 3.222887, 2.541077, -126.834503, -207.966782, 13.727120, 100.771656
1759223378.689444, -4.865167, 2.864064, -6.057480, -0.167368, -4.124218, 2.249286, -0.616028, -126.762390, -208.155899, 13.727120, 100.771656
1759223378.709400, -6.360346, 1.308431, -5.418677, -0.268481, -3.574921, 1.720794, -2.762283, -126.180450, -207.476944, 13.727120, 100.771656
1759223378.729281, -7.527669, 0.698658, -5.282058, -0.269852, -2.689539, 1.642783, -4.727463, -125.943985, -207.247421, 13.727120, 100.771656
1759223378.749401, -4.157082, 3.859303, -1.641225, -0.422318, -0.980975, 0.872337, -5.728134, -125.735352, -207.649246, 13.727120, 100.771656
1759223378.769431, -5.050568, 3.192069, -1.720084, -0.769091, 0.419287, 0.415172, -5.856796, -125.443695, -208.204254, 13.727120, 100.771656
1759223378.789454, -6.775890, 2.896984, -2.816778, -1.079435, 1.122152, 0.362151, -5.852005, -124.844498, -209.198746, 13.727120, 100.771656
1759223378.809096, -8.529942, 2.430115, -3.547908, -1.250953, 1.057779, 0.430827, -6.035049, -124.330887, -209.721252, 13.727120, 100.771656
1759223378.829436, -10.045771, 2.467374, -4.315997, -1.302536, 0.731534, 0.529425, -5.591583, -123.735672, -211.470901, 13.727120, 100.771656
1759223378.849412, -10.679037, 2.812888, -5.377676, -1.372853, 0.060805, 0.628654, -6.211395, -122.874405, -211.662552, 13.727120, 100.771656
1759223378.869544, -11.169400, 3.138200, -5.924901, -1.409254, -0.613804, 0.775619, -6.843628, -122.358231, -212.443069, 13.727120, 100.771656
1759223378.889430, -11.247062, 3.142988, -5.702839, -1.407305, -1.010506, 0.835106, -8.092102, -121.504395, -213.721634, 13.727120, 100.771656
1759223378.909404, -10.796652, 3.505411, -5.759851, -1.457186, -1.229756, 0.778958, -8.949844, -120.484070, -213.633209, 13.727120, 100.771656
1759223378.929541, -10.533589, 4.081515, -6.067655, -1.651383, -1.379631, 0.849019, -10.128250, -119.510300, -214.524170, 13.727120, 100.771656
1759223378.949275, -9.975292, 4.397400, -5.891831, -1.815010, -1.490666, 0.906915, -11.737457, -118.848434, -214.194839, 13.727120, 100.771656
1759223378.969487, -9.005640, 4.347721, -5.292682, -1.823587, -1.494791, 0.856291, -12.451950, -117.339645, -215.145386, 13.727120, 100.771656
1759223378.989431, -7.880664, 3.957017, -5.096358, -1.793296, -1.231624, 0.714098, -13.759293, -116.039062, -215.651108, 13.727120, 100.771656
1759223379.009415, -7.155820, 2.574066, -7.786393, -1.647293, -1.919706, 1.091142, -15.380051, -114.911301, -216.182526, 13.727120, 100.771656
1759223379.029405, -9.470564, 1.382203, -4.801721, -0.749218, -2.183517, 2.110569, -17.558548, -113.730606, -215.164490, 13.727120, 100.771656
1759223379.049427, -6.780978, 4.281880, -3.737648, -0.034051, -1.727259, 1.740080, -18.926300, -113.346863, -214.362900, 13.727120, 100.771656
1759223379.069542, -5.299715, 6.818537, -2.136077, -0.063613, -0.927185, 0.460046, -19.317749, -112.819244, -214.160522, 13.727120, 100.771656
1759223379.089429, -7.078607, 7.679701, -2.092832, -0.473846, -0.595653, -0.318354, -19.512711, -112.551849, -213.969437, 13.727120, 100.771656
1759223379.109417, -7.876475, 6.541258, -1.432930, -0.915213, -0.618436, -0.633025, -19.668274, -112.303482, -213.574554, 13.727120, 100.771656
1759223379.129400, -7.634361, 5.174019, -0.049979, -1.152343, -0.165041, -0.526470, -19.341858, -112.363007, -214.314621, 13.727120, 100.771656
1759223379.149444, -7.504775, 4.021211, -0.269497, -1.219327, -0.011405, -0.381975, -19.270401, -111.854706, -214.543121, 13.727120, 100.771656
1759223379.169541, -8.282142, 3.074903, -0.183755, -1.058442, -0.211971, 0.057690, -19.662399, -111.459045, -215.194550, 13.727120, 100.771656
1759223379.189419, -8.398560, 4.173542, -0.582539, -1.124997, -0.563623, 0.061979, -19.864471, -110.773636, -215.202805, 13.727120, 100.771656
1759223379.209411, -5.037400, 1.297208, -1.241543, -0.332574, -0.843199, 2.430550, -21.030487, -109.717026, -215.001862, 13.727120, 100.771656
1759223379.229286, -5.123741, 4.225018, -0.702399, -0.621044, -0.012647, 1.239993, -21.366684, -109.186935, -215.292267, 13.727120, 100.771656
1759223379.249427, -5.205144, 4.860529, -0.727837, -0.279872, 0.617441, -0.188313, -21.459335, -109.049316, -215.185211, 13.727120, 100.771656
1759223379.269431, -7.094618, 4.274099, -1.206229, 0.028408, 0.832590, -0.256590, -20.588058, -108.943680, -216.292908, 13.727120, 100.771656
1759223379.289416, -8.718785, 4.510077, -1.581071, -0.509594, 1.211561, 0.152431, -20.008881, -108.722961, -217.286255, 13.727120, 100.771656
1759223379.309390, -9.198523, 5.449203, -1.319504, -0.468105, 1.227600, 0.683650, -19.943039, -108.051575, -217.138229, 13.727120, 100.771656
1759223379.328637, -7.385663, 7.256526, -1.605013, 0.046634, 0.465424, 0.628208, -19.963272, -107.833801, -217.753906, 13.727120, 100.771656
1759223379.349424, -6.963984, 8.131756, -1.284938, 0.136783, -0.031495, 0.264199, -20.212158, -107.834229, -217.446014, 13.727120, 100.771656
1759223379.369538, -7.060201, 11.315596, -2.034473, 0.239552, -0.761967, -0.590635, -20.312927, -108.341385, -217.041412, 13.727120, 100.771656
1759223379.389428, -8.247127, 8.866627, -1.048361, 0.518628, -1.374429, -0.674603, -20.863098, -108.829056, -216.219696, 13.727120, 100.771656
1759223379.409266, -7.978527, 7.579594, -1.172411, 0.296015, -1.449677, -0.672793, -21.558533, -109.264618, -215.800827, 13.727120, 100.771656
1759223379.429430, -5.959916, 6.781875, -0.201861, 0.170674, -0.925717, -0.916025, -21.242630, -109.757843, -214.887543, 13.727120, 100.771656
1759223379.449423, -6.740276, 5.244199, 0.497695, 0.370406, -0.466169, -0.901271, -21.014877, -110.426117, -214.458115, 13.727120, 100.771656
1759223379.469539, -7.424120, 5.054758, 0.307655, 0.366881, -0.263218, -0.696010, -20.748230, -111.127930, -214.114258, 13.727120, 100.771656
1759223379.489353, -7.374291, 4.511274, 0.321122, 0.390522, -0.257548, -0.409788, -20.636932, -111.365601, -214.102127, 13.727120, 100.771656
1759223379.509418, -6.974309, 5.074062, -0.558747, 0.434482, -0.573520, 0.023693, -21.237335, -111.608215, -213.151993, 13.727120, 100.771656
1759223379.529428, -6.571934, 6.675633, -0.369306, -0.132099, -0.535237, 0.480754, -21.667450, -111.331436, -213.733551, 13.727120, 100.771656
1759223379.549422, -5.381567, 5.657798, 0.896329, -0.186621, -0.170188, 0.297097, -22.067764, -111.308578, -213.522873, 13.727120, 100.771656
1759223379.569406, -6.084415, 4.999542, 0.211588, 0.266118, -0.206513, 0.066646, -21.869949, -111.057404, -213.073990, 13.727120, 100.771656
1759223379.589417, -7.285855, 3.118747, -0.129586, 0.288308, -0.213352, 0.178265, -22.359512, -111.524673, -213.005142, 13.727120, 100.771656
1759223379.609409, -7.124396, 3.900753, -0.228796, 0.088350, -0.345008, -0.109407, -22.620285, -111.249008, -212.806839, 13.727120, 100.771656
1759223379.629436, -7.634660, 3.215263, 1.356166, 0.195114, -0.194747, -0.160034, -22.281372, -111.604843, -212.550827, 13.727120, 100.771656
1759223379.649471, -8.023269, 3.330783, 0.335787, 0.002417, -0.176424, 0.258316, -22.887772, -111.240402, -212.219543, 13.727120, 100.771656
1759223379.669403, -8.207323, 3.661782, 0.345513, 0.238625, -0.136280, 0.310601, -22.576019, -111.455200, -212.355942, 13.727120, 100.771656
1759223379.689415, -7.963713, 3.825186, 0.469264, 0.003623, 0.505985, -0.010365, -22.639694, -111.167877, -212.380768, 13.727120, 100.771656
1759223379.708576, -8.759037, 5.198261, -0.972046, 0.108366, 0.483196, -0.657364, -22.201981, -112.052338, -212.740585, 13.727120, 100.771656
1759223379.728898, -10.156353, 6.001665, -1.645565, 0.192953, 0.236054, -1.198607, -21.450150, -112.323700, -212.926468, 13.727120, 100.771656
1759223379.749328, -10.891672, 6.274305, -2.069189, -0.101841, 0.167266, -1.273304, -20.853714, -112.843872, -212.526566, 13.727120, 100.771656
1759223379.769424, -10.575039, 4.566940, -2.198027, -0.183517, 0.074661, -0.740135, -20.615509, -113.152222, -212.942703, 13.727120, 100.771656
1759223379.789414, -10.136751, 2.397344, -1.759738, -0.059585, 0.207308, 0.019057, -20.624435, -113.212692, -213.452698, 13.727120, 100.771656
1759223379.809404, -8.843882, 5.503521, -1.405995, -0.205141, 0.317370, 0.210340, -20.476471, -112.948059, -212.917236, 13.727120, 100.771656
1759223379.829527, -8.349778, 5.469404, -0.336236, -0.426066, 0.510412, 0.212925, -20.532806, -112.386215, -214.117416, 13.727120, 100.771656
1759223379.848700, -7.897573, 4.420145, 0.201263, -0.326363, 0.589213, 0.342068, -20.542801, -112.251450, -213.938950, 13.727120, 100.771656
1759223379.868834, -7.496096, 5.111321, -0.275632, -0.055966, 0.449594, 0.163768, -20.068909, -112.560043, -214.763184, 13.727120, 100.771656
1759223379.889379, -8.328380, 4.056975, -0.017508, -0.162926, 0.567984, 0.038773, -19.668808, -112.294388, -214.782669, 13.727120, 100.771656
1759223379.908557, -8.850765, 4.959888, -1.088015, -0.186880, 0.341251, -0.306867, -19.304031, -112.170837, -215.097382, 13.727120, 100.771656
1759223379.929524, -9.775825, 4.537760, -0.717512, -0.142049, 0.173326, -0.585490, -19.295410, -112.929443, -215.300095, 13.727120, 100.771656
1759223379.949418, -10.400562, 4.729745, -1.239598, -0.049163, -0.137803, -0.869109, -18.845062, -113.093323, -215.490753, 13.727120, 100.771656
1759223379.969447, -10.347590, 3.539977, -2.011728, -0.147258, -0.333401, -0.898190, -18.395050, -113.108215, -215.406876, 13.727120, 100.771656
1759223379.988989, -9.015067, 4.569334, -1.792958, -0.147296, -0.184641, -0.921726, -18.139679, -113.793762, -215.195236, 13.727120, 100.771656
1759223380.009481, -7.274333, 5.742193, -0.949750, -0.266664, 0.150253, -0.830689, -17.453629, -113.779938, -215.042130, 13.727120, 100.771656
1759223380.029483, -6.703465, 5.434090, 0.489165, -0.131563, 0.449914, -0.525178, -17.089127, -113.917480, -215.928375, 13.727120, 100.771656
1759223380.049451, -5.604976, 6.012589, 0.567426, -0.113522, 0.577334, -0.576657, -16.514160, -114.371048, -215.501114, 13.727120, 100.771656
1759223380.069467, -5.783044, 8.034641, 0.761805, -0.008216, 0.379046, -1.290826, -15.762115, -114.541077, -216.257843, 13.727120, 100.771656
1759223380.088846, -8.672846, 5.747580, 2.296339, 0.271386, 0.321738, -1.024104, -15.345490, -115.102417, -215.713760, 13.727120, 100.771656
1759223380.108870, -10.452935, 5.303606, 0.328903, 0.144201, -0.131562, -0.710938, -14.949280, -115.195084, -215.674347, 13.727120, 100.771656
1759223380.129402, -11.226711, 3.830423, -0.688483, -0.092985, -0.350875, -0.291264, -14.626236, -115.193863, -215.348083, 13.727120, 100.771656
1759223380.149487, -9.910798, 4.473416, -0.845303, -0.546959, -0.168144, 0.077481, -15.127319, -114.739166, -215.466049, 13.727120, 100.771656
1759223380.169507, -9.834632, 7.332841, -0.166397, -1.431414, 0.037029, 0.318646, -14.922073, -113.956314, -217.112366, 13.727120, 100.771656
1759223380.189401, -9.321076, 6.985832, 0.992696, -4.522091, 3.111282, -0.563636, -13.419205, -112.259171, -219.605347, 13.727120, 100.771656
1759223380.209388, -7.334786, 6.415413, -2.445677, -2.363158, 1.702090, -1.292630, -12.061356, -111.108063, -221.407303, 13.727120, 100.771656
1759223380.228508, -9.551967, 0.041001, -6.510732, 0.342220, -0.309275, -0.469357, -11.720352, -111.071716, -221.481201, 13.727120, 100.771656
1759223380.249392, -9.597157, -0.339079, -4.803367, 0.270939, 0.637144, -0.315663, -11.598785, -111.072205, -220.555161, 13.727120, 100.771656
1759223380.269121, -6.842479, 5.672163, -4.000262, 0.409616, 0.613060, -1.125842, -10.219757, -112.141220, -221.298019, 13.727120, 100.771656
1759223380.289203, -7.122900, 2.271200, -0.284162, 0.496409, 0.783772, -1.040442, -9.198746, -112.635147, -221.175323, 13.727120, 100.771656
1759223380.309383, -6.361992, 1.998709, -1.219846, 0.253401, 0.946354, -0.641120, -8.414246, -112.880646, -221.506638, 13.727120, 100.771656
1759223380.329400, -7.286154, 1.873912, -0.502184, 0.264031, 1.269222, -0.503610, -7.262695, -113.682693, -221.855637, 13.727120, 100.771656
1759223380.349404, -7.709329, 2.002151, -0.718859, 0.446604, 1.317894, -0.394267, -6.288757, -113.379471, -221.964127, 13.727120, 100.771656
1759223380.369399, -9.486276, 1.633444, -2.667141, 0.609480, 0.642711, 0.235908, -5.589127, -113.684555, -222.101074, 13.727120, 100.771656
1759223380.389390, -10.864438, 1.558925, -3.680337, 0.852058, -0.302663, 0.942121, -6.253220, -114.378098, -221.056702, 13.727120, 100.771656
1759223380.409399, -10.699837, 3.573645, -5.266944, 1.209309, -1.953974, 1.226643, -7.796707, -114.722214, -220.087326, 13.727120, 100.771656
1759223380.429398, -9.792135, 2.712630, -2.825457, 1.481595, -2.279899, 1.759610, -10.215332, -115.075531, -219.040894, 13.727120, 100.771656
1759223380.449474, -7.212682, 4.901080, -0.273238, 0.891700, -1.697352, 2.005033, -11.882416, -115.075790, -217.614609, 13.727120, 100.771656
1759223380.469416, -5.494543, 6.421249, -0.697311, 0.015932, -1.984635, 2.187706, -13.402084, -114.580353, -217.527557, 13.727120, 100.771656
1759223380.489073, -8.166772, 1.198597, 1.467047, -0.413596, -1.208710, 3.263262, -15.973267, -113.428879, -217.104050, 13.727120, 100.771656
1759223380.509387, -8.162582, 3.403807, 3.547908, -0.287899, -0.095942, 3.470571, -17.986160, -111.677139, -216.801682, 13.727120, 100.771656
1759223380.529324, -9.228301, 5.761646, 2.250849, 0.030295, 0.320394, 3.436535, -19.245682, -109.805252, -216.688065, 13.727120, 100.771656
1759223380.549001, -11.125257, 5.339818, 0.132130, 0.100482, 0.842587, 3.570254, -20.064438, -108.436676, -217.121796, 13.727120, 100.771656
1759223380.569452, -9.017312, 3.459771, 0.771831, 0.130879, 1.382661, 3.572485, -20.590561, -106.675385, -217.529968, 13.727120, 100.771656
1759223380.588413, -7.519589, 4.660762, -0.479589, 0.055483, 1.568351, 3.453920, -20.671005, -105.079239, -218.611298, 13.727120, 100.771656
1759223380.609394, -5.344307, 6.985682, -2.838925, -0.386743, 2.264374, 2.986609, -20.350876, -103.382690, -219.556274, 13.727120, 100.771656
1759223380.629398, -2.524835, 8.830714, -6.699724, -1.179504, 1.021210, 1.704016, -19.682083, -101.878006, -220.599716, 13.727120, 100.771656
1759223380.649220, -0.303914, 11.151443, -7.805846, -1.596400, -0.300445, -0.410829, -20.299774, -100.846024, -220.508926, 13.727120, 100.771656
1759223380.669486, -3.583521, 8.885631, -0.616208, -1.051510, 0.036523, -0.923220, -20.021988, -100.496597, -220.971542, 13.727120, 100.771656
1759223380.689396, -9.657312, 8.457218, 0.173879, -0.196030, -0.430444, 0.687627, -20.234406, -100.202927, -220.647049, 13.727120, 100.771656
1759223380.709447, -5.095609, 8.742427, 0.087388, -0.105132, 0.282309, 0.945292, -20.366150, -99.480011, -220.852844, 13.727120, 100.771656
1759223380.729396, -5.264101, 8.825925, -1.245135, -0.315783, 0.124198, 1.038132, -20.639999, -98.811859, -221.264572, 13.727120, 100.771656
1759223380.749403, -4.867113, 8.322694, 0.327257, -0.212581, 0.708730, 1.106008, -20.430649, -98.447998, -220.970596, 13.727120, 100.771656
1759223380.769407, -5.541230, 8.114398, -0.231040, -0.134876, 0.814387, 1.302200, -19.751480, -97.668396, -222.277893, 13.727120, 100.771656
1759223380.789262, -5.548263, 8.100781, -2.108992, -0.325725, 0.189597, 1.597125, -19.460648, -96.741318, -222.174469, 13.727120, 100.771656
1759223380.809053, -4.285471, 8.406341, -2.215235, -0.598520, 0.195996, 1.720591, -19.829224, -95.703354, -222.307922, 13.727120, 100.771656
1759223380.828996, -3.094206, 9.508572, -1.389535, -0.742363, 0.739164, 1.390656, -19.637680, -94.342987, -223.123474, 13.727120, 100.771656
1759223380.849457, -2.968960, 10.040833, -0.863559, -0.557239, 0.904402, 0.825639, -19.368881, -93.553772, -222.834106, 13.727120, 100.771656
1759223380.869438, -3.644125, 10.356419, -0.464026, -0.196054, 0.617428, 0.373747, -18.429031, -93.254425, -223.321732, 13.727120, 100.771656
1759223380.888737, -4.206014, 9.840169, -0.411354, 0.087452, 0.153033, 0.199570, -18.333389, -93.186020, -223.717178, 13.727120, 100.771656
1759223380.909384, -4.021211, 9.567529, -0.710180, 0.161084, -0.270723, 0.140100, -18.399475, -92.938690, -223.028183, 13.727120, 100.771656
1759223380.929343, -3.543418, 9.326912, -0.884807, 0.073656, -0.338100, 0.093968, -18.932281, -93.115784, -222.980179, 13.727120, 100.771656
1759223380.949013, -3.553893, 9.189993, -1.140239, -0.085636, -0.249101, 0.111748, -19.032257, -93.039719, -223.098831, 13.727120, 100.771656
1759223380.969402, -3.781941, 8.903587, -1.053748, -0.161435, -0.180088, 0.196681, -19.108856, -92.874100, -223.008377, 13.727120, 100.771656
1759223380.988735, -4.035876, 8.453178, -1.016937, -0.165029, -0.214371, 0.275421, -19.133224, -92.722183, -222.807343, 13.727120, 100.771656
1759223381.009393, -4.159925, 8.173804, -1.240945, -0.204461, -0.395393, 0.445912, -19.327438, -92.264297, -222.707855, 13.727120, 100.771656
1759223381.029430, -3.144335, 8.459463, -1.556231, -0.362678, -0.639862, 0.556606, -19.794174, -92.030807, -222.158981, 13.727120, 100.771656
1759223381.049177, -2.995446, 7.984812, -0.825700, -0.388227, -0.553184, 0.727694, -20.509583, -91.386292, -221.779770, 13.727120, 100.771656
1759223381.069328, -3.512294, 7.043143, -0.172981, -0.251234, -0.421628, 1.167181, -20.286896, -90.382660, -221.618607, 13.727120, 100.771656
1759223381.089385, -3.815909, 6.099977, -0.679654, -0.248243, -0.462964, 1.804531, -20.754623, -89.587357, -221.195023, 13.727120, 100.771656
1759223381.109394, -3.937414, 4.969614, 0.230143, -0.149400, 0.016119, 2.525692, -20.994553, -87.958252, -220.944305, 13.727120, 100.771656
1759223381.129396, -2.861670, 4.181024, 0.077662, -0.142524, 0.311956, 3.109870, -20.538177, -86.987747, -221.945480, 13.727120, 100.771656
1759223381.149399, -0.600196, 3.717148, -0.457592, -0.349101, 0.563712, 3.186187, -19.787949, -84.929825, -221.419052, 13.727120, 100.771656
1759223381.169403, 0.323217, 2.259079, 0.536301, -0.405417, 1.304197, 3.000400, -18.298950, -83.259064, -222.234726, 13.727120, 100.771656
1759223381.188882, 0.824354, 1.782184, 0.204854, -0.214272, 1.940963, 2.696143, -17.119431, -81.919342, -223.571335, 13.727120, 100.771656
1759223381.209377, 0.798915, 1.646612, -0.111330, 0.008976, 2.253090, 2.418977, -14.902222, -80.455246, -223.785339, 13.727120, 100.771656
1759223381.228475, -1.212962, 6.658724, 0.137667, -0.435997, 2.722076, 2.443702, -12.594223, -79.781998, -225.471207, 13.727120, 100.771656
1759223381.249162, -5.440823, 24.565706, 1.502661, -1.724946, 3.434016, 3.832507, -9.628769, -77.735718, -225.488846, 13.727120, 100.771656
1759223381.269393, -1.992724, 37.208138, 3.655946, -3.320965, 3.833190, 4.357245, -5.248428, -74.440155, -225.927338, 13.727120, 100.771656
1759223381.289392, 8.178443, 20.233847, 3.858256, -1.086591, 2.602592, 1.788469, -2.255112, -73.127838, -226.593903, 13.727120, 100.771656
1759223381.308759, 6.455067, 8.208221, 2.682853, 1.426835, 0.428366, 0.517419, -1.710861, -73.759354, -226.635193, 13.727120, 100.771656
1759223381.329390, 4.311957, 5.259163, 0.826748, 2.026086, -1.316845, 0.563289, -1.807953, -74.855057, -227.255249, 13.727120, 100.771656
1759223381.349395, 5.764340, 5.291784, 0.339827, 1.590494, -1.566219, 1.017021, -3.230194, -75.698853, -226.651947, 13.727120, 100.771656
1759223381.369391, 11.063606, 8.229170, -1.371578, 0.474557, -0.492401, 0.144640, -3.170410, -76.233765, -227.642105, 13.727120, 100.771656
1759223381.388423, 7.876325, 8.368932, -0.936133, -0.488852, 0.276698, -0.294873, -3.130005, -76.010681, -227.561584, 13.727120, 100.771656
1759223381.409384, 4.468777, 9.205705, 0.319925, -0.893040, 0.475857, -0.361542, -2.730042, -75.432968, -227.161438, 13.727120, 100.771656
1759223381.429487, 3.122338, 9.637709, 1.350030, -0.937304, 0.491267, -0.627924, -2.798874, -75.197021, -226.856201, 13.727120, 100.771656
1759223381.449392, 2.301277, 9.172336, 1.308730, -0.797021, 0.539888, -0.862244, -2.668167, -74.924744, -225.857239, 13.727120, 100.771656
1759223381.469428, 1.660828, 8.872762, 0.555904, -0.583556, 0.425086, -0.849246, -2.693054, -74.232803, -226.100220, 13.727120, 100.771656
1759223381.488630, 1.344644, 9.287408, 0.174777, -0.443049, -0.130162, -0.529313, -2.796204, -74.079483, -226.606674, 13.727119, 100.771654
1759223381.509395, 1.308431, 9.750835, 0.663942, -0.376072, -0.795270, -0.253495, -3.227753, -73.773682, -225.328949, 13.727119, 100.771654
1759223381.529434, 1.779939, 9.992201, 2.104503, -0.100781, -0.897030, -0.253498, -3.963791, -73.514999, -225.760391, 13.727119, 100.771654
1759223381.549393, 1.999009, 9.599552, 1.732803, 0.076717, -0.873114, -0.183383, -5.073532, -73.457489, -224.796631, 13.727119, 100.771654
1759223381.569452, 2.353500, 9.737517, 1.015590, 0.046885, -0.499623, -0.094366, -5.057907, -73.869781, -225.436905, 13.727119, 100.771654
1759223381.589073, 2.446425, 9.244761, 0.917129, -0.052622, 0.040220, -0.045782, -5.448074, -73.568420, -225.573318, 13.727119, 100.771654
1759223381.609396, 2.358887, 9.423428, 0.896778, -0.227626, 0.271495, -0.084954, -5.277969, -73.653717, -225.103638, 13.727119, 100.771654
1759223381.629413, 2.180370, 9.732280, 1.090708, -0.254817, 0.343025, -0.116289, -4.893951, -73.521027, -225.328796, 13.727119, 100.771654
1759223381.649396, 1.856554, 9.634567, 0.878373, -0.122138, 0.363553, -0.045280, -4.797928, -73.205429, -225.144440, 13.727119, 100.771654
1759223381.669425, 1.473930, 9.905560, 0.348506, 0.055599, 0.359226, -0.026245, -4.391846, -73.420151, -225.000015, 13.727119, 100.771654
1759223381.689386, 1.028010, 10.019584, -0.365415, 0.113462, 0.093464, -0.078747, -4.186005, -73.517548, -225.288803, 13.727119, 100.771654
1759223381.709382, 0.722001, 10.051756, -0.405368, 0.066760, -0.147702, -0.167324, -4.524551, -73.604950, -225.267639, 13.727119, 100.771654
1759223381.729435, 0.466420, 10.022128, -0.096516, 0.057463, -0.146259, -0.173634, -4.466003, -73.790497, -225.612488, 13.727119, 100.771654
1759223381.749396, 0.354641, 9.944466, 0.339079, 0.161290, 0.191097, -0.116147, -4.663467, -73.817856, -225.606827, 13.727119, 100.771654
1759223381.769434, 0.269647, 10.095600, 0.518494, 0.310232, 0.609041, -0.026104, -4.210495, -74.093781, -226.068069, 13.727119, 100.771654
1759223381.789396, 0.299275, 10.531345, 0.192883, 0.469738, 0.829667, 0.047777, -3.532959, -74.405487, -226.342712, 13.727119, 100.771654
1759223381.809379, 0.972196, 10.511892, -0.600496, 0.695032, 0.713753, 0.023266, -3.234070, -74.795425, -226.089996, 13.727119, 100.771654
1759223381.829440, 1.497723, 10.991032, -1.392079, 0.895292, 0.491707, 0.010527, -2.844849, -75.528152, -226.237244, 13.727119, 100.771654
1759223381.849462, 1.661726, 11.693281, -1.977461, 1.343898, 0.323032, 0.148742, -2.706024, -76.455048, -226.733978, 13.727119, 100.771654
1759223381.869158, 1.579575, 12.293028, -2.626140, 2.147463, 0.195304, 0.424875, -2.324875, -77.845886, -227.849930, 13.727119, 100.771654
1759223381.889382, 1.372326, 13.201478, -4.600159, 3.059372, -0.911585, 0.560270, -2.570999, -80.230927, -228.586655, 13.727119, 100.771654
1759223381.909441, 1.413477, 12.904597, -5.705233, 3.144839, -2.209059, 0.937322, -3.998337, -81.900070, -227.914963, 13.727119, 100.771654
1759223381.929425, 4.651186, 11.262474, -2.946514, 2.404664, -2.283154, 0.873517, -5.641769, -83.504974, -228.737061, 13.727119, 100.771654
1759223381.949048, 9.120711, 10.514586, 6.328324, 1.026947, -0.227660, -0.602947, -5.673080, -84.757980, -228.274734, 13.727119, 100.771654
1759223381.969408, 5.708525, 8.128614, 6.291513, 1.289896, 0.504753, -1.224612, -6.133163, -85.959473, -229.618744, 13.727119, 100.771654
1759223381.989406, 1.841440, 7.543082, 0.941819, 2.649303, 1.054295, -0.398201, -5.194244, -87.901016, -229.410599, 13.727119, 100.771654
1759223382.009388, 3.641431, 8.960898, -5.082142, 2.168299, 1.024329, 0.019756, -4.575272, -89.583710, -229.414108, 13.727119, 100.771654
1759223382.029401, 5.060145, 8.646210, -4.278139, 1.100882, 0.682999, -0.094958, -3.680786, -90.642563, -229.644958, 13.727119, 100.771654
1759223382.049390, 3.348740, 6.842479, -2.357989, 0.455040, -0.290980, -0.318051, -4.088028, -91.176193, -229.445648, 13.727119, 100.771654
1759223382.069442, 1.572392, 5.737106, -0.214580, 0.353013, -0.274647, -0.177083, -3.816116, -91.371658, -230.118835, 13.727119, 100.771654
1759223382.089377, 1.699584, 6.616227, -1.092055, 0.260556, -0.029426, -0.119256, -4.179596, -91.672394, -229.690308, 13.727119, 100.771654
1759223382.109367, 1.893215, 7.397185, -1.183035, 0.170231, 0.341419, -0.132069, -3.772491, -91.496368, -229.643799, 13.727119, 100.771654
1759223382.129399, 2.179472, 7.217919, -1.291672, 0.142652, 0.701736, -0.099399, -3.322037, -91.957336, -229.921249, 13.727119, 100.771654
1759223382.149245, 2.426374, 6.425289, -2.818873, -0.076965, 0.784560, -0.058332, -2.401794, -91.823486, -229.708588, 13.727119, 100.771654
1759223382.169398, 2.821417, 5.387702, -4.083012, -0.503992, 0.583900, -0.055655, -2.492661, -91.889252, -229.577148, 13.727119, 100.771654
1759223382.189408, 3.472191, 5.053561, -4.527435, -0.875233, 0.093822, -0.009954, -1.990967, -91.018768, -229.925201, 13.727119, 100.771654
1759223382.209387, 3.095104, 5.771522, -4.495862, -0.977703, 0.077587, -0.089937, -2.041092, -90.320404, -229.711807, 13.727119, 100.771654
1759223382.229406, 1.618331, 7.432350, -5.162497, -0.937721, 0.257738, -0.113474, -1.717407, -89.789856, -230.040405, 13.727119, 100.771654
1759223382.249398, 0.276530, 9.114426, -6.438308, -0.755258, 0.121900, -0.084800, -1.909210, -88.788269, -230.041626, 13.727119, 100.771654
1759223382.269409, -0.059705, 11.206510, -6.559813, -0.411528, 0.001998, -0.071288, -2.084488, -88.812180, -230.370544, 13.727119, 100.771654
1759223382.289428, 0.335787, 11.989563, -5.523723, -0.024311, 0.150199, -0.175181, -1.747253, -88.791763, -230.159836, 13.727119, 100.771654
1759223382.309367, 0.519991, 11.542446, -4.533271, 0.271272, 0.590081, -0.261246, -1.102493, -88.844193, -229.575241, 13.727119, 100.771654
1759223382.329396, 0.919972, 10.662128, -4.147057, 0.448012, 0.888102, -0.289138, -0.485641, -89.194397, -230.210159, 13.727119, 100.771654
1759223382.349399, 1.657386, 9.593716, -3.842993, 0.481274, 1.064797, -0.352651, 0.099075, -89.630280, -229.770950, 13.727119, 100.771654
1759223382.369400, 2.143110, 8.442853, -4.736629, 0.354806, 1.008622, -0.425234, 0.972427, -90.045532, -230.093765, 13.727119, 100.771654
1759223382.389413, 2.181567, 7.766790, -5.719448, 0.092850, 0.762269, -0.474695, 1.810165, -90.132919, -230.274323, 13.727119, 100.771654
1759223382.409383, 2.418892, 8.098387, -5.209184, -0.305459, 0.464774, -0.430418, 1.943359, -89.768845, -230.072540, 13.727119, 100.771654
1759223382.429396, 4.332757, 10.896012, -3.674052, -0.679966, -0.064161, -0.244794, 2.142380, -89.381821, -229.606750, 13.727119, 100.771654
1759223382.449394, 6.465691, 13.769503, -1.522563, -0.718758, -0.255585, -0.030754, 2.176987, -88.679688, -229.707382, 13.727119, 100.771654
1759223382.469453, 5.900061, 12.958317, -0.373944, -0.451789, -0.176935, -0.171791, 2.161743, -88.499161, -229.205109, 13.727119, 100.771654
1759223382.489394, 3.051560, 9.535656, -2.659808, -0.018549, -1.499889, -0.478431, 0.853897, -88.506195, -229.847305, 13.727119, 100.771654
1759223382.509365, 1.916858, 7.001095, -3.315969, -0.272779, -2.885635, -0.411348, -0.881622, -88.332672, -229.442657, 13.727119, 100.771654
1759223382.529159, 3.504662, 4.914847, -1.368735, -1.418640, -2.894467, -0.241949, -3.356049, -87.077515, -228.994812, 13.727119, 100.771654
1759223382.548796, 4.832696, 4.966472, 0.971597, -2.051451, -2.854362, -0.161072, -5.339493, -85.498352, -228.240372, 13.727119, 100.771654
1759223382.569513, 4.407426, 6.034885, 2.031480, -2.134431, -2.207094, -0.068189, -7.141434, -84.304916, -227.381226, 13.727119, 100.771654
1759223382.589394, 4.094833, 8.098387, 3.344550, -1.862387, -1.348410, 0.090526, -8.049820, -82.922104, -227.146606, 13.727119, 100.771654
1759223382.609358, 3.786580, 9.427169, 4.402638, -1.458381, -0.967224, 0.299078, -8.780136, -81.638275, -226.427109, 13.727119, 100.771654
1759223382.629393, 3.569156, 11.328315, 5.449951, -0.766680, -0.450377, 0.358052, -9.260635, -81.102097, -226.515945, 13.727119, 100.771654
1759223382.649395, 2.609381, 11.864616, 4.795137, -0.193303, 0.192673, 0.143909, -9.305817, -80.835129, -225.793427, 13.727119, 100.771654
1759223382.669396, -1.429937, 12.632556, -4.129998, -0.381795, 1.172438, -0.070182, -8.204834, -80.330307, -226.032791, 13.727119, 100.771654
1759223382.689394, -2.086098, 11.625345, -6.357354, -1.241113, 0.650529, -0.088852, -7.359024, -79.621231, -226.215378, 13.727119, 100.771654
1759223382.709445, 0.895132, 10.841095, 1.100435, -0.751879, -0.000863, -0.251349, -7.741104, -79.175766, -225.675186, 13.727119, 100.771654
1759223382.729391, 1.578677, 9.129390, 2.534711, -0.324198, -0.448747, -0.240271, -8.195923, -79.255859, -225.591125, 13.727119, 100.771654
1759223382.749394, 1.770811, 8.946683, 1.112705, -0.523544, -0.652229, -0.262905, -8.681793, -78.620163, -224.817352, 13.727119, 100.771654
1759223382.769397, 1.262792, 8.508993, -0.360926, -0.997162, -0.553108, -0.164351, -9.057709, -77.983185, -224.972900, 13.727119, 100.771654
1759223382.789456, 0.885855, 8.775797, 0.052822, -1.143858, -0.323868, -0.172020, -9.512344, -77.094833, -224.324707, 13.727119, 100.771654
1759223382.809379, 0.506224, 9.517849, 0.807744, -0.975453, -0.341899, -0.258400, -9.424973, -76.660797, -223.656540, 13.727119, 100.771654
1759223382.829389, 0.122104, 9.778817, 0.388758, -0.893590, -0.720300, -0.130668, -10.103546, -76.209930, -223.673325, 13.727119, 100.771654
1759223382.849393, 0.197671, 9.532813, -0.170886, -0.965111, -1.142908, -0.057781, -10.824814, -75.382034, -222.840286, 13.727119, 100.771654
1759223382.869393, 0.785747, 9.222465, -0.715866, -1.083575, -1.342700, -0.161540, -11.591721, -74.839218, -221.816864, 13.727119, 100.771654
1759223382.889391, 1.310376, 9.067889, -1.250671, -1.127305, -1.325802, -0.176838, -12.594421, -74.393463, -221.346405, 13.727119, 100.771654
1759223382.909361, 1.858050, 9.419388, -0.591517, -0.831013, -1.181636, -0.044207, -13.615646, -73.695541, -220.535645, 13.727119, 100.771654
1759223382.929390, 1.546954, 9.586234, 0.425120, -0.337804, -0.937193, 0.187589, -13.924362, -73.656189, -219.828171, 13.727119, 100.771654
1759223382.949392, 0.824653, 9.525481, 0.463278, -0.090904, -0.658406, 0.331419, -14.543884, -72.910507, -219.878769, 13.727119, 100.771654
1759223382.969393, 0.334440, 9.736470, -0.007632, -0.122448, -0.490064, 0.292078, -14.234741, -72.856857, -219.044388, 13.727119, 100.771654
1759223382.989387, 0.488716, 9.854684, 0.310797, -0.183219, -0.540951, 0.157388, -14.567123, -73.315475, -219.022079, 13.727119, 100.771654
1759223383.009376, 0.559345, 9.544485, 1.555782, -0.183394, -0.389879, 0.032432, -14.927002, -72.880173, -218.098373, 13.727119, 100.771654
1759223383.029394, 0.430058, 9.389011, 2.051532, -0.259445, -0.044417, -0.015278, -14.437256, -72.399460, -218.983521, 13.727119, 100.771654
1759223383.049392, 0.374543, 9.790639, 1.926584, -0.420675, 0.177689, -0.073178, -14.799576, -72.242432, -217.800018, 13.727119, 100.771654
1759223383.069393, 0.381726, 10.103531, 1.401805, -0.505443, -0.027790, -0.132000, -14.675476, -72.476913, -218.389725, 13.727119, 100.771654
1759223383.089380, 1.006762, 10.619182, 0.224007, -0.634040, -0.670214, -0.206535, -15.074326, -71.860962, -217.958969, 13.727119, 100.771654
1759223383.109353, 1.836652, 11.134085, -1.341501, -0.878594, -1.387779, -0.248856, -16.294418, -71.260361, -216.574051, 13.727119, 100.771654
1759223383.129400, 1.892766, 10.884639, -1.572841, -0.850543, -1.988872, -0.177333, -17.276947, -70.967346, -215.811798, 13.727119, 100.771654
1759223383.149387, 1.431583, 11.129596, -0.668132, -0.493701, -2.037809, -0.166499, -18.689545, -70.756622, -213.990814, 13.727119, 100.771654
1759223383.169402, -0.117615, 12.238261, 0.809839, -0.068127, -1.480406, -0.232915, -19.132950, -71.097397, -213.904572, 13.727119, 100.771654
1759223383.189408, -1.788618, 13.406631, 0.961721, 0.227196, -0.721058, -0.376655, -19.436874, -71.201660, -213.516968, 13.727119, 100.771654
1759223383.209372, -2.788497, 13.580061, 0.388908, 0.644209, -0.364641, -0.486931, -19.861069, -71.505890, -213.671326, 13.727119, 100.771654
1759223383.229397, -3.329287, 12.381315, -0.533757, 1.364846, -0.490595, -0.220520, -20.517624, -72.219269, -214.093246, 13.727119, 100.771654
1759223383.249434, 1.294066, 10.094403, -2.054225, 2.112355, -0.461360, -0.159068, -21.082901, -73.281845, -214.493011, 13.727119, 100.771654
1759223383.269388, 4.215890, 8.922890, -2.990059, 2.544217, -0.921297, -0.020271, -21.136536, -74.376816, -214.889526, 13.727119, 100.771654
1759223383.289384, 4.695778, 9.131036, -0.850540, 2.642552, -0.731488, 0.295565, -21.549744, -75.595016, -215.525162, 13.727119, 100.771654
1759223383.308548, 5.612009, 10.880150, 0.592266, 2.540856, -0.450478, 0.520050, -21.509521, -76.396423, -215.516251, 13.727119, 100.771654
1759223383.329386, 6.361693, 13.330316, 1.414225, 2.499451, -0.710019, 0.138901, -21.628098, -77.694229, -216.277527, 13.727119, 100.771654
1759223383.348920, 4.127753, 13.029844, 1.101632, 2.415586, -1.551214, -0.284607, -22.922653, -78.868652, -215.479660, 13.727119, 100.771654
1759223383.369370, 1.485004, 12.039692, 0.445172, 2.183065, -2.580918, -0.322570, -23.998398, -80.101059, -215.641968, 13.727014, 100.771565
1759223383.389383, 0.780210, 11.408521, -0.217423, 1.997920, -3.419206, -0.064928, -25.847382, -81.030075, -214.039658, 13.727014, 100.771565
1759223383.409369, 1.546654, 10.093056, -1.645265, 1.724517, -3.815210, 0.075862, -27.415268, -81.893326, -211.363174, 13.727014, 100.771565
1759223383.429386, 1.961599, 9.438841, -1.720683, 1.463749, -3.053680, 0.001513, -28.911911, -82.378937, -209.938187, 13.727014, 100.771565
1759223383.448925, 1.456124, 8.951920, -1.148618, 0.904855, -0.845166, -0.241210, -29.841064, -82.839691, -209.496460, 13.727014, 100.771565
1759223383.468603, 0.961272, 8.604312, 0.739659, 0.812931, 1.150350, -0.371207, -29.392502, -83.844254, -210.026840, 13.727014, 100.771565
1759223383.489397, 0.532710, 7.854029, 2.160468, 1.580345, 1.861006, -0.474780, -28.367096, -84.376343, -211.634918, 13.727014, 100.771565
1759223383.509352, 0.367959, 6.870461, 0.586729, 1.664532, 1.491944, -0.333685, -28.036636, -85.548340, -212.185593, 13.727014, 100.771565
1759223383.529382, 1.259051, 6.782324, -1.546654, 1.142679, 0.753854, -0.241296, -27.018723, -86.000076, -213.611511, 13.727014, 100.771565
1759223383.548931, 1.429638, 6.162376, -2.112584, 0.303233, 0.773368, -0.303604, -27.099594, -86.054764, -213.382950, 13.727014, 100.771565
1759223383.569367, 1.289876, 5.803694, -1.453280, -0.271838, 1.252525, -0.277755, -26.479446, -86.167847, -215.010666, 13.727014, 100.771565
1759223383.589385, 0.314987, 4.545093, -1.420510, -0.539323, 1.459053, 0.055480, -26.033096, -85.804810, -215.537155, 13.727014, 100.771565
1759223383.609367, 0.699556, 3.858855, -0.944961, -0.696029, 1.757659, 0.341737, -25.071716, -85.520294, -216.682480, 13.727014, 100.771565
1759223383.629381, 1.710956, 4.539257, -1.555333, -0.941937, 2.120846, 0.407377, -23.954147, -84.685715, -217.955811, 13.727014, 100.771565
1759223383.648927, 1.760337, 6.031593, -2.189497, -1.157189, 2.780049, 0.391769, -22.210464, -83.711014, -219.192276, 13.727014, 100.771565
1759223383.669382, 2.173636, 7.599046, -3.768473, -1.191139, 3.424996, 0.162697, -20.034683, -83.049210, -221.429840, 13.727014, 100.771565
1759223383.689410, 2.950405, 9.413253, -6.024560, -1.004658, 3.397894, 0.028692, -18.123367, -82.429916, -222.563171, 13.727014, 100.771565
1759223383.709350, 3.557335, 12.219107, -11.379491, -0.700183, 1.653715, -0.338569, -16.906128, -81.865158, -223.135742, 13.727014, 100.771565
1759223383.729392, 2.165555, 14.229040, -12.999916, -0.484865, -0.322679, -0.762194, -17.349792, -82.022751, -223.113922, 13.727014, 100.771565
1759223383.748739, 0.617105, 12.505065, -5.056255, 0.105412, 0.296093, -0.609821, -17.221619, -82.146667, -222.311371, 13.727014, 100.771565
1759223383.769398, -0.266355, 8.813954, -0.236876, 0.659429, 1.783697, -0.079821, -15.592239, -82.470352, -223.690857, 13.727014, 100.771565
1759223383.788674, 3.274370, 11.236737, 0.497695, 0.552812, 1.634125, -0.162805, -14.766266, -82.737473, -223.614059, 13.727014, 100.771565
1759223383.809366, 5.556942, 15.430929, 0.890793, 0.236720, 0.125558, -0.534678, -14.520966, -82.878494, -224.722015, 13.727014, 100.771565
1759223383.829380, 5.096058, 17.085173, -3.477129, -0.652479, -1.843000, -0.460036, -15.664185, -83.219482, -224.350662, 13.727014, 100.771565
1759223383.848935, 2.885761, 8.154651, 0.601394, -1.296355, -1.865289, -0.505703, -16.901520, -82.375214, -222.991974, 13.727014, 100.771565
1759223383.869393, 2.561646, 4.355801, 1.584812, -1.315318, -1.534204, -0.333156, -18.176590, -82.064438, -221.942886, 13.727014, 100.771565
1759223383.889381, 3.211373, 4.383185, 0.965911, -1.189982, -0.227281, -0.263857, -18.543671, -81.098282, -221.962814, 13.727014, 100.771565
1759223383.909346, 4.458153, 6.872257, 1.361253, -0.775004, 1.710850, 0.258283, -17.247879, -80.392578, -222.078918, 13.727014, 100.771565
1759223383.929380, 3.621829, 10.642526, 2.991705, -0.715868, 2.412960, 0.185313, -15.906479, -79.903976, -223.009369, 13.727014, 100.771565
1759223383.948930, 2.067992, 12.671911, 2.392556, -0.871819, 2.460283, -0.051805, -14.722702, -79.834473, -223.434067, 13.727014, 100.771565
1759223383.969377, 0.190040, 11.904270, 1.277905, -0.967219, 1.827102, -0.238778, -12.346451, -78.997375, -224.559219, 13.727014, 100.771565
1759223383.989357, -0.662745, 10.386047, -0.151583, -0.945517, 0.606571, -0.320111, -12.122971, -78.663422, -224.541702, 13.727014, 100.771565
1759223384.009370, 0.312593, 9.325116, -0.820014, -0.756579, -0.092123, -0.304596, -12.575012, -77.947617, -223.735870, 13.727014, 100.771565
1759223384.029382, 2.335843, 8.777293, -2.209250, -0.758731, -0.231691, -0.270452, -12.589035, -77.581589, -224.142578, 13.727014, 100.771565
1759223384.048947, 3.017592, 8.619425, -1.133056, -0.502928, -0.211053, -0.072028, -13.030197, -77.318573, -223.389343, 13.727014, 100.771565
1759223384.069378, 1.944391, 8.488343, 1.285836, -0.258613, -0.222550, 0.057637, -13.029160, -76.765686, -223.427505, 13.727014, 100.771565
1759223384.089376, 1.073799, 9.521291, 1.733851, -0.519739, -0.015863, -0.032804, -12.995895, -76.406876, -222.880524, 13.727014, 100.771565
1759223384.109363, 0.267702, 10.223989, 0.260669, -0.578668, -0.131586, -0.084724, -13.105728, -76.208252, -223.193893, 13.727014, 100.771565
1759223384.129370, 0.152780, 10.483910, 0.598850, -0.350395, -0.240518, -0.088569, -13.167252, -75.898483, -222.831116, 13.727014, 100.771565
1759223384.148922, 0.275184, 9.652673, 0.856825, -0.403971, -0.238789, -0.039866, -13.297104, -76.080475, -222.668060, 13.727014, 100.771565
1759223384.169367, 0.323965, 9.396493, 0.335936, -0.631231, -0.505731, 0.049526, -13.687057, -74.910400, -222.693237, 13.727014, 100.771565
1759223384.189361, 1.083975, 9.238775, 1.081730, -0.641144, -0.524624, 0.113339, -14.295731, -74.831955, -222.115707, 13.727014, 100.771565
1759223384.209362, 1.608904, 8.752453, 1.246332, -0.561465, -0.546143, 0.189498, -14.299393, -74.026535, -221.797943, 13.727014, 100.771565
1759223384.229368, 1.793107, 8.483405, 1.384297, -0.541186, -0.327534, 0.308525, -14.447739, -73.596786, -221.100433, 13.727014, 100.771565
1759223384.248936, 1.319804, 9.042451, 1.292121, -0.559078, 0.014769, 0.456952, -14.491714, -73.616165, -220.961548, 13.727014, 100.771565
1759223384.269390, 0.105644, 9.479692, 0.718260, -0.616999, -0.014123, 0.507411, -14.165924, -72.686905, -220.302643, 13.727014, 100.771565
1759223384.289356, -0.452354, 9.631873, 0.909048, -0.598171, 0.035096, 0.452727, -13.837189, -72.220413, -220.639099, 13.727014, 100.771565
1759223384.308992, -0.120907, 9.710882, 0.481983, -0.642744, 0.205932, 0.363978, -14.003876, -71.895035, -220.619629, 13.727014, 100.771565
1759223384.328817, 0.324414, 9.985617, 0.128688, -0.637722, 0.333005, 0.252342, -13.660675, -71.593704, -220.122375, 13.727014, 100.771565
1759223384.348803, -0.083199, 9.985317, 0.292841, -0.384850, 0.337790, 0.225150, -13.439163, -70.693100, -220.026550, 13.727014, 100.771565
1759223384.369392, -0.642843, 10.053402, 0.933140, -0.200702, 0.669855, 0.205224, -12.432678, -70.433319, -220.488785, 13.727014, 100.771565
1759223384.389376, -0.418387, 10.441113, 0.651522, -0.229913, 1.076169, 0.051241, -11.747879, -70.248459, -220.682755, 13.727014, 100.771565
1759223384.409360, 0.044442, 10.884939, -1.410783, -0.335084, 0.952237, -0.136092, -11.790787, -69.743607, -221.049088, 13.727014, 100.771565
1759223384.428932, 0.597054, 10.685322, -2.352453, -0.221676, 0.180267, -0.171144, -11.242401, -70.005905, -220.801056, 13.727014, 100.771565
1759223384.448921, 0.736067, 10.324995, -1.441160, -0.089122, -0.471095, -0.133363, -11.517792, -70.076462, -220.600128, 13.727014, 100.771565
1759223384.469374, 0.807893, 10.211420, -0.586579, -0.063979, -0.602678, -0.074952, -11.830872, -70.112915, -220.903214, 13.727014, 100.771565
1759223384.489368, 0.439935, 10.289680, -1.141286, 0.127203, -0.363526, 0.034108, -12.411697, -69.902878, -220.891556, 13.727014, 100.771565
1759223384.509340, 0.139612, 10.807277, -1.876456, 0.522282, -0.161169, 0.120929, -12.344818, -70.320007, -220.278000, 13.727014, 100.771565
1759223384.528616, 0.160860, 12.587066, -1.501763, 0.893630, 0.245357, -0.001829, -12.355026, -70.233597, -221.416046, 13.727014, 100.771565
1759223384.548570, -0.673968, 14.522030, -0.915483, 1.698361, 0.297060, -0.151920, -12.272491, -71.387573, -221.700104, 13.727014, 100.771565
1759223384.569395, -1.790564, 13.522451, -0.640299, 2.452237, -0.155658, -0.060117, -12.228989, -72.801300, -222.403717, 13.727014, 100.771565
1759223384.589360, -0.075118, 11.029189, -0.560692, 2.727468, -0.357610, 0.108183, -12.441696, -75.220184, -224.004379, 13.727014, 100.771565
1759223384.609368, 2.994847, 8.713697, -0.918775, 3.020411, -0.459674, 0.438324, -12.930283, -76.819260, -225.032410, 13.727014, 100.771565
1759223384.629041, 6.035483, 9.069834, -1.092355, 2.869900, -0.865486, 0.739927, -12.587860, -77.846664, -224.469055, 13.727014, 100.771565
1759223384.648861, 7.922563, 10.683676, -1.891719, 2.231798, -2.461199, 0.398232, -13.862762, -79.318802, -224.943176, 13.727014, 100.771565
1759223384.669535, 7.879767, 12.411691, -1.554884, 1.786179, -3.343830, -0.514508, -17.164383, -81.462875, -223.940704, 13.727014, 100.771565
1759223384.689370, 2.611326, 11.876437, 0.256928, 1.466760, -2.561383, -0.870364, -19.112106, -83.030579, -223.192505, 13.727014, 100.771565
1759223384.709359, -0.541538, 10.766575, 2.257283, 1.470453, -0.979761, -0.743858, -20.092361, -83.910202, -222.674454, 13.727014, 100.771565
1759223384.729370, -1.480514, 9.151237, 1.305588, 0.898001, 0.538297, -0.791944, -19.596497, -85.235672, -223.697876, 13.727014, 100.771565
1759223384.748918, -1.328333, 9.431209, 0.485724, 0.883224, 1.316651, -0.943683, -19.667145, -86.067337, -223.181427, 13.727014, 100.771565
1759223384.769484, -1.146074, 10.259603, -0.902913, 1.160574, 1.262364, -0.813343, -18.683456, -87.083923, -224.972748, 13.727014, 100.771565
1759223384.789396, 0.888698, 9.244611, -0.369156, 1.274284, 1.457232, -0.619105, -17.065262, -88.459946, -225.542236, 13.727014, 100.771565
1759223384.809371, 3.497180, 8.521413, -1.066766, 1.182187, 1.759063, -0.601354, -15.702530, -89.607727, -225.932983, 13.726961, 100.771666
1759223384.829373, 4.973954, 7.716961, -2.609530, 0.841006, 1.714862, -0.761224, -14.241959, -90.899948, -227.025497, 13.726961, 100.771666
1759223384.848919, 4.156484, 6.335357, -3.287987, 0.324712, 1.487303, -0.850900, -14.075226, -90.885941, -227.288071, 13.726961, 100.771666
1759223384.869415, 2.135478, 4.941782, -3.619734, -0.214094, 0.874063, -0.590451, -13.115250, -91.318604, -227.800369, 13.726961, 100.771666
1759223384.889348, 2.629731, 5.308244, -2.485331, -0.589063, 0.747225, -0.365258, -12.107300, -90.452637, -228.384415, 13.726961, 100.771666
1759223384.908815, 3.325995, 6.405238, -1.380108, -0.781706, 0.959357, -0.214188, -11.756897, -90.667313, -228.667267, 13.726961, 100.771666
1759223384.928504, 3.892972, 7.044041, -2.120365, -1.047918, 1.021279, -0.170706, -11.042313, -89.765244, -228.322784, 13.726961, 100.771666
1759223384.948976, 3.074753, 6.423344, -3.333477, -1.469933, 1.012764, -0.065896, -10.217026, -89.192368, -228.381210, 13.726961, 100.771666
1759223384.969404, 2.245761, 5.948244, -4.102165, -1.943890, 0.865306, 0.184029, -9.615814, -87.772995, -229.273499, 13.726961, 100.771666
1759223384.989374, 2.326416, 5.899612, -3.622876, -2.171858, 0.894338, 0.477028, -8.666382, -85.913513, -229.021561, 13.726961, 100.771666
1759223385.009360, 2.421885, 6.893954, -3.529951, -2.065698, 1.008194, 0.574095, -8.018417, -84.370728, -229.257904, 13.726961, 100.771666
1759223385.029399, 2.493711, 9.553164, -3.581426, -1.547547, 1.079586, 0.552435, -7.261414, -82.935669, -228.817841, 13.726961, 100.771666
1759223385.048917, 1.997063, 11.748497, -4.654927, -1.086981, 0.754674, 0.493350, -6.485886, -81.746735, -229.520599, 13.726961, 100.771666
1759223385.069409, 1.515679, 12.691513, -6.997354, -0.702119, -0.756326, 0.140628, -6.501389, -80.882828, -229.867844, 13.726961, 100.771666
1759223385.089359, 1.464503, 13.247866, -6.118532, -0.110214, -2.333142, -0.358645, -7.774292, -80.726089, -228.652893, 13.726961, 100.771666
1759223385.109384, 2.272247, 14.314782, -2.312051, -0.278507, -2.786411, -0.290764, -11.028351, -80.414795, -227.519684, 13.726961, 100.771666
1759223385.129404, 4.117877, 11.890354, 4.282179, -0.634049, -1.748598, -0.429866, -11.578979, -80.231705, -226.894058, 13.726961, 100.771666
1759223385.148916, 2.906561, 9.138817, 3.010709, -0.987978, -1.456438, -0.069670, -12.499237, -79.754242, -226.389374, 13.726961, 100.771666
1759223385.169426, 3.166032, 7.574955, 2.998588, -1.169042, -0.782937, 0.048913, -13.691299, -79.271973, -226.446777, 13.726961, 100.771666
1759223385.189371, 2.378041, 6.242881, 2.710685, -1.219942, 0.164784, 0.084248, -14.011505, -78.133041, -225.900330, 13.726961, 100.771666
1759223385.209355, 1.998410, 6.681319, 2.926313, -1.207421, 1.058503, 0.302493, -12.794434, -77.154297, -225.488754, 13.726961, 100.771666
1759223385.229401, 3.497779, 8.639177, 2.567781, -0.998168, 1.110132, 0.427563, -12.347412, -76.101501, -226.073868, 13.726961, 100.771666
1759223385.248916, 4.346823, 10.943597, 2.866907, -0.810756, 1.407082, 0.229477, -11.485916, -75.577744, -225.611267, 13.726961, 100.771666
1759223385.269468, 2.840271, 13.189807, -0.884807, -1.946113, 3.368554, 0.082931, -9.216370, -74.709610, -226.347855, 13.726961, 100.771666
1759223385.289408, 2.108394, 13.588740, -3.078046, -2.081218, 2.829197, -0.377019, -7.155975, -73.219666, -226.418030, 13.726961, 100.771666
1759223385.309350, 0.916830, 10.918008, -5.403115, -0.675924, -0.359209, -0.248812, -6.525238, -72.260208, -226.343567, 13.726961, 100.771666
1759223385.329457, 0.708983, 10.855011, -2.553865, -0.029051, -1.852621, -0.136404, -7.514694, -71.949844, -226.152573, 13.726961, 100.771666
1759223385.348913, 2.123058, 10.677242, -0.960524, -0.140699, -1.755536, -0.375563, -9.015198, -72.086014, -225.165604, 13.726961, 100.771666
1759223385.369474, 1.932570, 10.077195, 1.068412, -0.155929, -1.296203, -0.619256, -10.069183, -71.966263, -225.422104, 13.726961, 100.771666
1759223385.389362, 0.685041, 8.465448, 2.314146, 0.047122, -1.195046, -0.532785, -11.113708, -72.538986, -224.328247, 13.726961, 100.771666
1759223385.408691, 0.334889, 7.760954, 2.365172, 0.110654, -1.489874, -0.226151, -12.300415, -72.868240, -224.851944, 13.726961, 100.771666
1759223385.429415, 0.722301, 8.504055, 2.108843, 0.007890, -1.448348, -0.087291, -13.178299, -72.567963, -223.719208, 13.726961, 100.771666
1759223385.448913, 1.436970, 8.714146, 1.000028, -0.335529, -1.677167, 0.065744, -14.290863, -72.631622, -223.055298, 13.726961, 100.771666
1759223385.469479, 1.773655, 8.488792, 0.277727, -0.844140, -2.370041, 0.382474, -15.449677, -72.126663, -222.047287, 13.726961, 100.771666
1759223385.489368, 2.767248, 8.800487, 1.083975, -1.068522, -2.820380, 0.379706, -16.815964, -71.081345, -220.165939, 13.726961, 100.771666
1759223385.509330, 3.634997, 9.346215, 2.108843, -1.017056, -2.841507, 0.237118, -18.725571, -70.783936, -218.826309, 13.726961, 100.771666
1759223385.529257, 4.017470, 9.700856, 1.506102, -1.195917, -2.021977, 0.129763, -20.273193, -69.829315, -216.940674, 13.726961, 100.771666
1759223385.549439, 3.979313, 10.281600, -0.601992, -1.551332, -0.396385, 0.245988, -20.362213, -69.078598, -215.752060, 13.726961, 100.771666
1759223385.569442, 1.764527, 8.561665, -0.162656, -0.857774, -0.896933, 0.450652, -20.305695, -68.589294, -215.528732, 13.726961, 100.771666
1759223385.589344, 0.021398, 7.354688, -0.334440, 0.095152, -2.369650, 0.476149, -21.474609, -67.827942, -214.153488, 13.726961, 100.771666
1759223385.609351, 0.315137, 8.318654, 1.218349, 0.471445, -2.992723, 0.197972, -22.446213, -67.922150, -213.028320, 13.726961, 100.771666
1759223385.629398, 0.627131, 9.444826, 2.264017, 0.423326, -2.734867, -0.285013, -23.980179, -68.227127, -211.371658, 13.726961, 100.771666
1759223385.649367, -0.247052, 10.667216, 3.135357, 0.264147, -1.729927, -0.640000, -25.190506, -68.757263, -210.459778, 13.726961, 100.771666
1759223385.669482, -1.502062, 11.988965, 3.127426, 0.160487, -0.517569, -0.913818, -25.837387, -69.417755, -210.405823, 13.726961, 100.771666
1759223385.689366, -3.066374, 12.601132, 2.346318, -0.091735, 0.518668, -1.070164, -26.311096, -69.935730, -210.033844, 13.726961, 100.771666
1759223385.708797, -8.434922, 11.869853, -11.044153, -1.936923, -2.363795, -0.457072, -26.582779, -69.649841, -209.034622, 13.726961, 100.771666
1759223385.729460, -8.225429, 13.179631, -3.308039, -1.489776, -4.003763, -0.568363, -28.672195, -69.342728, -205.410858, 13.726961, 100.771666
1759223385.749394, -8.315960, 13.979444, 0.510863, 1.011700, -3.212779, -0.846960, -30.476913, -70.010971, -203.483597, 13.726961, 100.771666
1759223385.769471, -5.363311, 14.262409, 0.535104, 2.297309, -0.191093, -1.429792, -30.940125, -71.637482, -203.222778, 13.726961, 100.771666
1759223385.788418, -0.356736, 11.035025, -5.904101, 1.861534, 1.236940, -1.818892, -31.600342, -73.603485, -204.188263, 13.726961, 100.771666
1759223385.809410, 0.701351, 8.966884, -4.246566, 2.379794, 1.250632, -1.216595, -31.959656, -75.526367, -207.029999, 13.726961, 100.771666
1759223385.829406, 0.796521, 8.410232, -0.896030, 2.825257, 1.404195, 0.044089, -31.342758, -76.518112, -208.192780, 13.726928, 100.771674
1759223385.849364, 2.524237, 9.355343, -1.207276, 2.751086, 1.276454, 1.600593, -30.549118, -77.014160, -209.927826, 13.726928, 100.771674
1759223385.869464, 6.336704, 15.279795, -1.364096, 2.681523, 0.296461, 2.124776, -29.479691, -76.631119, -211.329620, 13.726928, 100.771674
1759223385.889341, 10.421661, 19.924397, -1.332822, 2.619611, -1.359866, 0.966313, -30.085556, -77.052200, -211.577438, 13.726928, 100.771674
1759223385.909327, 9.872341, 15.482554, -2.100613, 2.112521, -2.398902, -0.472788, -30.411728, -78.019165, -211.266129, 13.726928, 100.771674
1759223385.929408, 4.749797, 9.016563, -1.494730, 1.204972, -1.783447, -0.674011, -31.506454, -79.250977, -208.801620, 13.726928, 100.771674
1759223385.949365, 1.796399, 7.991097, -0.915483, 1.024368, -0.544990, -0.463540, -31.925278, -80.471619, -208.922974, 13.726928, 100.771674
1759223385.969478, 1.854608, 8.245182, 4.371513, 1.608426, 2.158703, -0.254247, -31.931061, -80.795990, -210.274048, 13.726928, 100.771674
1759223385.989352, 0.858471, 7.290643, 2.215235, 2.593085, 2.464222, -0.171176, -30.927292, -81.735733, -211.905930, 13.726928, 100.771674
1759223386.009361, -0.325911, 6.996007, -1.984195, 2.448370, 0.932665, -0.356153, -30.242340, -83.529297, -213.926483, 13.726928, 100.771674
1759223386.028555, 0.872238, 6.890961, -1.504756, 1.529938, 1.022853, -0.546409, -29.769913, -84.688721, -214.464005, 13.726928, 100.771674
1759223386.049407, 1.699883, 6.375160, -0.584036, 0.791862, 1.670704, -0.675940, -29.048462, -85.901871, -215.583389, 13.726928, 100.771674
1759223386.069396, 2.051681, 6.006304, -0.588674, 0.321328, 1.704382, -0.515896, -27.851120, -86.387665, -217.255219, 13.726928, 100.771674
1759223386.089359, 2.962226, 5.713014, -0.839168, -0.089874, 1.451249, -0.450247, -27.520737, -86.891479, -217.643860, 13.726928, 100.771674
1759223386.109325, 3.673603, 4.273800, -1.183633, -0.494000, 1.403351, -0.387857, -26.888153, -86.656830, -218.915955, 13.726928, 100.771674
1759223386.129403, 3.787777, 2.554613, -2.192490, -0.980118, 1.309764, -0.274492, -26.123871, -86.598602, -219.244431, 13.726928, 100.771674
1759223386.149362, 2.824260, 2.208651, -4.613627, -1.735033, 1.043303, -0.052260, -25.308533, -85.749390, -220.107956, 13.726928, 100.771674
1759223386.169404, 1.622371, 2.443133, -5.316774, -2.373049, 0.920428, 0.172379, -24.823456, -84.695831, -220.631454, 13.726928, 100.771674
1759223386.188574, 0.671574, 3.706374, -4.084658, -2.571214, 1.276672, 0.198979, -24.222519, -83.049423, -220.226273, 13.726928, 100.771674
1759223386.209416, 0.459238, 6.442198, -3.160197, -2.263462, 1.707030, 0.324505, -23.286224, -81.757645, -221.443359, 13.726928, 100.771674
1759223386.229469, 1.903540, 12.924050, -3.638738, -1.086789, 2.402237, 0.447828, -22.293411, -80.577896, -221.757828, 13.726928, 100.771674
1759223386.249360, 1.804480, 20.586393, -7.677905, 1.004258, 2.680970, 0.270731, -20.809036, -80.520157, -223.431107, 13.726928, 100.771674
1759223386.269415, -1.091307, 19.972281, -13.909563, 1.510470, 1.089573, -0.097670, -19.211411, -81.543030, -224.191254, 13.726928, 100.771674
1759223386.289359, -0.982670, 9.429264, -10.496779, 0.704049, 0.652003, -0.124514, -18.570496, -82.125839, -224.888245, 13.726928, 100.771674
1759223386.309345, 2.771737, 6.057480, -6.917746, -0.306909, 0.965579, -0.394052, -17.897095, -82.378784, -225.202591, 13.726928, 100.771674
1759223386.329397, 6.721871, 11.311555, -1.277755, -0.351340, 0.580257, -0.681897, -17.631561, -82.167084, -224.403259, 13.726928, 100.771674
1759223386.348575, 8.765771, 20.018070, 1.501763, -0.020513, -0.599819, -1.060953, -17.690338, -82.846664, -224.880981, 13.726928, 100.771674
1759223386.369444, 1.268927, 15.666309, 5.245247, -0.762245, -2.173000, -1.035029, -18.558563, -82.387131, -223.982895, 13.726928, 100.771674
1759223386.389358, 1.097891, 4.773888, 7.304111, -1.172377, -1.286970, -0.847968, -19.972595, -82.295959, -222.748688, 13.726928, 100.771674
1759223386.409407, 1.037737, 1.973570, 3.622577, -1.704061, -0.430344, -0.733440, -20.553650, -81.789276, -222.568878, 13.726928, 100.771674
1759223386.429459, 2.020856, 3.053505, 4.783316, -1.427382, 0.713030, -0.334654, -20.811890, -80.902298, -221.537308, 13.726928, 100.771674
1759223386.449359, 3.683779, 8.488343, 6.916100, -0.317904, 1.337506, 0.257498, -19.744858, -80.642868, -222.188248, 13.726928, 100.771674
1759223386.469465, 5.166837, 13.150901, 5.887641, 0.368271, 0.953962, 0.514137, -18.705521, -80.899643, -223.226654, 13.726928, 100.771674
1759223386.489356, 5.969493, 13.863475, 4.007295, 0.201465, 1.087973, 0.349044, -18.120132, -80.792007, -223.016006, 13.726928, 100.771674
1759223386.509320, 8.363246, 10.671855, -4.926968, -2.615374, 3.943824, -0.109136, -15.904358, -79.370514, -224.496674, 13.726928, 100.771674
1759223386.529387, 6.285228, 8.776694, -6.282984, -1.661712, 1.835325, -0.067528, -14.428925, -78.199799, -224.424484, 13.726928, 100.771674
1759223386.549356, 2.989310, 7.898322, -5.613804, -0.652787, -1.425193, 0.093492, -14.570694, -77.723724, -224.410400, 13.726928, 100.771674
1759223386.569475, 1.560571, 8.963442, -1.062427, -0.596307, -2.045346, -0.238735, -16.057846, -77.338120, -223.621170, 13.726928, 100.771674
1759223386.589106, 0.440234, 9.959580, 2.234538, -0.647988, -1.697658, -0.650450, -17.373901, -76.794800, -222.175873, 13.726928, 100.771674
1759223386.609360, -0.087089, 8.431630, 3.268085, -0.537363, -0.895089, -0.786281, -18.533157, -77.006561, -221.737976, 13.726928, 100.771674
1759223386.629394, -1.015441, 7.430554, 1.772607, -0.684538, -0.215947, -0.605531, -18.796402, -76.960541, -221.130341, 13.726928, 100.771674
1759223386.649362, -2.504485, 6.965780, -1.085322, -1.285895, -0.101717, 0.023114, -18.917709, -76.284210, -221.179504, 13.726928, 100.771674
1759223386.669411, -3.255665, 7.979276, -1.962647, -1.673005, -0.552077, 0.421143, -18.947647, -75.203918, -220.357986, 13.726928, 100.771674
1759223386.689357, -2.646341, 8.652495, -2.079963, -1.492114, -1.503415, 0.224449, -19.672302, -73.946579, -219.162872, 13.726928, 100.771674
1759223386.709317, -1.942895, 8.775647, -1.047463, -1.223080, -1.928854, 0.040129, -20.310379, -73.043976, -217.575653, 13.726928, 100.771674
1759223386.729418, -0.893336, 9.299977, 0.024391, -1.144003, -1.532088, 0.118238, -21.421387, -72.745239, -215.826645, 13.726928, 100.771674
1759223386.749355, 0.654665, 10.374974, -1.520617, -1.433687, -0.342469, 0.212881, -21.689713, -72.085236, -215.294296, 13.726928, 100.771674
1759223386.769074, 1.909226, 9.863213, -2.207454, -1.142242, 0.562409, 0.344165, -21.465714, -71.310333, -214.883224, 13.726928, 100.771674
1759223386.789347, 1.798494, 9.928006, 0.216376, -0.050425, 0.538817, 0.481819, -20.962112, -70.951691, -214.261642, 13.726928, 100.771674
1759223386.809324, 1.016039, 11.260679, 2.100014, 0.439162, 0.522369, 0.331353, -20.078323, -70.951340, -215.201477, 13.726928, 100.771674
1759223386.829397, -1.032350, 12.319065, 2.245462, 0.215176, 0.898245, 0.052083, -19.576447, -70.738007, -215.402618, 13.726893, 100.771686
1759223386.849358, -1.777246, 12.592154, 0.603638, -0.309121, 0.868616, -0.437068, -19.051987, -70.931808, -215.988678, 13.726893, 100.771686
1759223386.869402, -4.326622, 11.954399, -4.772542, -1.295922, -0.433138, -0.402815, -19.137497, -70.499557, -215.608658, 13.726893, 100.771686
1759223386.889347, -5.183297, 13.115586, -5.098452, -1.133597, -2.044150, -0.266316, -20.645370, -70.339798, -214.187134, 13.726893, 100.771686
1759223386.909317, -1.777395, 14.915577, -0.748787, 1.048021, -1.665286, -0.667953, -21.765411, -70.739944, -213.113617, 13.726893, 100.771686
1759223386.929470, 0.171485, 13.788956, 0.490961, 2.385135, 0.341521, -0.934824, -22.443726, -71.816101, -213.490555, 13.726893, 100.771686
1759223386.949354, 0.628179, 12.923003, 0.075866, 2.454346, 2.170552, -0.699246, -21.736038, -73.631241, -215.110199, 13.726893, 100.771686
1759223386.969469, 1.315913, 12.143540, -1.026215, 2.522935, 2.052317, -0.255629, -20.726486, -74.706345, -217.481216, 13.726893, 100.771686
1759223386.988974, 1.897255, 11.490073, 1.905485, 2.457339, 2.206367, 0.252107, -19.477005, -75.587585, -219.290131, 13.726893, 100.771686
1759223387.009345, 2.809446, 13.568988, 2.215085, 2.376312, 1.026702, 0.879691, -18.411316, -77.229111, -220.643250, 13.726893, 100.771686
1759223387.029468, 4.392612, 15.347880, 1.223437, 2.599390, -1.723801, 1.181659, -19.130569, -77.758423, -220.354401, 13.726893, 100.771686
1759223387.049353, 6.076035, 14.000543, 1.408988, 3.211008, -3.792013, 0.305884, -21.292297, -79.603348, -219.902039, 13.726893, 100.771686
1759223387.069456, 6.019771, 10.983400, -1.092205, 3.373655, -4.532949, -0.277223, -23.866150, -81.112000, -218.067383, 13.726893, 100.771686
1759223387.089363, 3.432238, 9.377340, -1.238401, 2.574054, -2.450750, -0.056321, -25.692810, -82.511383, -216.584335, 13.726893, 100.771686
1759223387.109318, 2.101959, 8.524256, 0.503082, 1.710373, -0.092565, 0.221801, -25.985779, -83.444092, -216.733704, 13.726893, 100.771686
1759223387.129404, 1.280599, 8.209568, 2.402432, 1.496665, 1.549281, 0.220588, -25.560471, -83.964111, -217.791260, 13.726893, 100.771686
1759223387.149352, 1.182137, 7.296928, 1.689708, 1.822878, 1.787468, -0.141858, -24.219604, -85.029755, -219.089417, 13.726893, 100.771686
1759223387.169458, 0.297629, 6.755839, 1.398064, 2.113472, 1.266483, -0.473551, -23.325089, -86.336044, -220.692947, 13.726893, 100.771686
1759223387.189015, -0.188992, 8.077288, 2.409315, 2.282356, 1.444697, -0.444912, -22.710907, -88.122498, -220.969162, 13.726893, 100.771686
1759223387.208454, 1.021127, 6.664859, 0.349254, 1.802477, 1.690117, -0.247013, -21.562042, -89.222900, -222.882767, 13.726893, 100.771686
1759223387.229388, 2.834884, 5.616498, 0.249745, 1.176885, 2.099935, -0.233153, -20.697433, -90.048843, -223.318039, 13.726893, 100.771686
1759223387.249363, 4.069544, 4.275895, -1.318008, 0.358350, 1.609648, -0.287080, -19.198883, -90.844818, -224.163681, 13.726893, 100.771686
1759223387.269416, 4.437054, 2.713528, -1.549797, -0.381210, 1.158610, -0.428060, -18.020554, -90.785553, -225.415146, 13.726893, 100.771686
1759223387.289342, 3.550451, 1.237952, -2.350358, -1.095510, 1.115486, -0.374003, -17.424377, -90.284424, -225.474686, 13.726893, 100.771686
1759223387.308726, 1.972224, 0.562787, -4.057573, -1.904121, 0.939944, -0.140090, -16.668365, -89.169571, -226.213348, 13.726893, 100.771686
1759223387.329444, 1.183633, 1.820042, -4.835988, -2.617729, 1.176726, -0.052358, -16.009964, -87.460327, -226.151352, 13.726893, 100.771686
1759223387.348779, 1.185429, 4.063259, -3.660585, -2.723372, 2.042662, -0.082839, -14.736252, -85.887634, -226.800232, 13.726893, 100.771686
1759223387.369481, 1.454926, 9.042900, -6.883779, -1.430801, 1.958830, 0.178393, -13.759644, -84.060623, -227.463776, 13.726893, 100.771686
1759223387.388882, 1.027561, 21.008820, -16.486473, -0.262523, -0.132570, -0.011273, -13.311295, -83.866745, -227.562302, 13.726893, 100.771686
1759223387.408762, 1.613692, 22.332215, -10.985495, -0.529865, -0.054753, -0.313164, -13.693298, -83.549393, -227.389313, 13.726893, 100.771686
1759223387.429475, 1.973121, 14.364761, -8.097190, -0.025275, 0.600678, -0.248881, -13.530411, -83.519394, -227.661377, 13.726893, 100.771686
1759223387.449350, 4.809652, 7.075913, -5.085135, 0.452532, 0.820384, -0.131633, -12.490234, -83.973053, -227.880600, 13.726893, 100.771686
1759223387.469418, 6.098780, 6.859687, -1.875109, 0.149893, 1.027823, -0.356468, -11.382706, -84.084793, -228.407089, 13.726893, 100.771686
1759223387.489413, 6.737283, 12.676550, -0.730232, -0.814195, 0.638683, -0.144088, -11.265472, -83.450729, -229.102325, 13.726893, 100.771686
1759223387.509310, 6.410924, 16.155325, 2.533814, -1.330398, -0.720916, 0.844903, -11.471390, -82.149002, -229.126038, 13.726893, 100.771686
1759223387.529379, 6.603507, 12.860305, 5.096806, -0.888389, -2.402127, 0.711136, -12.722916, -81.697342, -227.022324, 13.726893, 100.771686
1759223387.549358, 5.467908, 7.728333, 1.837250, -1.116438, -3.742963, -0.089308, -14.868286, -80.490494, -226.057632, 13.726893, 100.771686
1759223387.569397, 3.140145, 4.418649, 0.648679, -1.826498, -4.361506, -0.453378, -18.653152, -79.925140, -223.974762, 13.726893, 100.771686
1759223387.589013, 1.985841, 3.185485, 2.666542, -1.956193, -3.228049, -0.454284, -21.016205, -78.784409, -221.108337, 13.726893, 100.771686
1759223387.609419, 1.716942, 5.377975, 5.163994, -1.800742, -0.729155, -0.203471, -21.594711, -77.797287, -221.073608, 13.726893, 100.771686
1759223387.629371, 2.437148, 10.147076, 7.872135, -1.100914, 1.882746, 0.143361, -20.606888, -76.878784, -220.764694, 13.726893, 100.771686
1759223387.649401, 2.661454, 12.793417, 3.343353, -1.023068, 1.462927, 0.358736, -19.218582, -76.128128, -221.392227, 13.726893, 100.771686
1759223387.669444, 2.458247, 11.073931, 2.327463, -1.079170, 1.171344, 0.402438, -18.271637, -75.422943, -222.269073, 13.726893, 100.771686
1759223387.689321, 2.255039, 8.428488, 1.045069, -2.826476, 1.172086, 0.033350, -17.594147, -74.310272, -221.701157, 13.726893, 100.771686
1759223387.709325, 2.707842, 8.561515, -9.456797, -3.148153, -0.748135, -0.652414, -17.429352, -72.347763, -221.339874, 13.726893, 100.771686
1759223387.728735, 2.596063, 8.651597, -4.096479, -2.103076, -1.990407, -0.807643, -18.936600, -71.480194, -219.531937, 13.726893, 100.771686
1759223387.749332, -0.308852, 9.040954, 2.345270, -0.275045, -2.397028, -0.542313, -20.744980, -71.831650, -218.044876, 13.726893, 100.771686
1759223387.769392, -0.731578, 9.207351, 1.706168, -0.192067, -1.778531, -0.118731, -21.567276, -71.414490, -216.982208, 13.726893, 100.771686
1759223387.789382, -0.948403, 8.603264, 0.321571, -0.623602, -0.967093, 0.219860, -22.786301, -71.354721, -216.099396, 13.726893, 100.771686
1759223387.809312, -1.067814, 8.270919, -0.663643, -1.269608, -0.511192, 0.432374, -22.719482, -71.061234, -215.474060, 13.726893, 100.771686
1759223387.829162, -0.620996, 8.510788, -0.543783, -1.618817, -0.596312, 0.303582, -22.986252, -69.890076, -213.883789, 13.726859, 100.771704
1759223387.849344, 0.561440, 8.759187, -0.939275, -1.712103, -1.215315, 0.240454, -23.409393, -68.833450, -212.709915, 13.726859, 100.771704
1759223387.869331, 1.074398, 9.152285, -1.704522, -1.618658, -1.707946, 0.224884, -23.715759, -68.111160, -211.403046, 13.726859, 100.771704
1759223387.889326, 0.764050, 8.657732, -0.306458, -1.116271, -1.441015, 0.309157, -24.749451, -67.568741, -209.378311, 13.726859, 100.771704
1759223387.909328, -0.397437, 8.453776, 0.149488, -0.549562, -0.787919, 0.441503, -25.029099, -66.699539, -208.362106, 13.726859, 100.771704
1759223387.929359, -0.785448, 10.752210, 1.197101, -0.200732, -0.066334, 0.295979, -25.181061, -66.552933, -207.835083, 13.726859, 100.771704
1759223387.948774, -0.844106, 11.926865, 1.287931, -0.152561, 0.247293, 0.192556, -24.881500, -66.010513, -207.654907, 13.726859, 100.771704
1759223387.969349, -2.392855, 14.593856, -1.764078, -0.330075, 0.334273, -0.373812, -24.778290, -65.960953, -208.190552, 13.726859, 100.771704
1759223387.989102, -3.433584, 13.742867, -4.756979, -0.081931, -0.741238, -0.483732, -25.207840, -65.912003, -208.164856, 13.726859, 100.771704
1759223388.009344, -1.769914, 13.621810, -1.799542, 1.557761, -1.293511, -0.679073, -25.918121, -66.408768, -208.138672, 13.726859, 100.771704
1759223388.029343, -0.553809, 15.034539, 1.136797, 2.948409, -0.696550, -1.221760, -27.107132, -67.713333, -208.395309, 13.726859, 100.771704
1759223388.049342, -0.060454, 14.356681, -3.400215, 3.453048, -1.140538, -1.526670, -27.508713, -69.571182, -209.452026, 13.726859, 100.771704
1759223388.068769, 0.879570, 15.671397, -2.712182, 3.395529, -0.820485, -1.819008, -28.936142, -71.957672, -210.620758, 13.726859, 100.771704
1759223388.089326, 0.511910, 15.134497, 2.937985, 2.580655, 1.830904, -1.346916, -29.344818, -74.794327, -212.697708, 13.726859, 100.771704
1759223388.109322, 2.357241, 15.384990, 3.042881, 2.083678, 1.425012, 0.238392, -27.999054, -76.335068, -215.041733, 13.726859, 100.771704
1759223388.129340, 4.865916, 16.239271, 2.944569, 2.550834, -0.611007, 1.392771, -27.748840, -77.431610, -216.118729, 13.726859, 100.771704
1759223388.149343, 6.991069, 13.265972, 0.364517, 3.884673, -3.542379, 1.021131, -28.612228, -78.743256, -216.237915, 13.726859, 100.771704
1759223388.169355, 7.459435, 10.214412, -3.336021, 3.690694, -3.586741, -0.016833, -30.448654, -80.166504, -214.959259, 13.726859, 100.771704
1759223388.189357, 3.680187, 7.511658, -1.332373, 1.953417, -0.657409, -0.261873, -31.437347, -81.872086, -213.092453, 13.726859, 100.771704
1759223388.209323, 1.806874, 7.030424, 2.803311, 0.920598, 1.986055, -0.242398, -30.901123, -83.239746, -214.029373, 13.726859, 100.771704
1759223388.229358, 0.873285, 6.488885, 1.287632, 1.043844, 2.551624, -0.631540, -29.973450, -83.881729, -215.387207, 13.726859, 100.771704
1759223388.249338, -0.306907, 7.990199, 0.284611, 1.783313, 1.093390, -1.140310, -29.141205, -85.284698, -217.699265, 13.726859, 100.771704
1759223388.269344, -0.829591, 9.026589, 3.534440, 2.111019, 1.137640, -1.482615, -28.086746, -87.680756, -218.212265, 13.726859, 100.771704
1759223388.289333, -1.111508, 6.497414, 4.461744, 2.051895, 2.123229, -0.808065, -27.348373, -89.939896, -218.799683, 13.726859, 100.771704
1759223388.309303, 1.362750, 4.348768, 2.777872, 1.822183, 2.731074, -0.200024, -25.492752, -91.523636, -220.197144, 13.726859, 100.771704
1759223388.329338, 3.807828, 4.031985, 0.811485, 1.239950, 2.708508, -0.172728, -24.056427, -92.620743, -222.102356, 13.726859, 100.771704
1759223388.349332, 4.617667, 3.665373, -0.685191, 0.438254, 2.243478, -0.451922, -22.015732, -93.398529, -223.375565, 13.726859, 100.771704
1759223388.369346, 4.513220, 1.905336, -2.681655, -0.435191, 1.936301, -0.673418, -20.477295, -94.291763, -225.055832, 13.726859, 100.771704
1759223388.389131, 3.069666, 0.741005, -5.169680, -1.494426, 1.826090, -0.437681, -18.689438, -93.888199, -225.159103, 13.726859, 100.771704
1759223388.409390, 1.474529, 1.573888, -6.217293, -2.428400, 1.985474, -0.193166, -17.719101, -92.613297, -226.401794, 13.726859, 100.771704
1759223388.429353, 1.625364, 2.868852, -3.958962, -2.925584, 2.599163, 0.120633, -16.277527, -90.967804, -226.944443, 13.726859, 100.771704
1759223388.448422, 3.453187, 6.055235, -1.768866, -2.207796, 2.790838, 0.168983, -14.086945, -88.521652, -228.373550, 13.726859, 100.771704
1759223388.469355, 4.133589, 12.633155, -6.555474, -0.000770, 0.820091, 0.371569, -12.513290, -87.567459, -229.306732, 13.726859, 100.771704
1759223388.489329, 4.695029, 24.053796, -16.745645, 0.491155, -0.857352, -0.122952, -12.963516, -88.297409, -228.430069, 13.726859, 100.771704
1759223388.508862, 1.515829, 19.423111, -14.071471, -0.467659, -0.105825, -0.365299, -13.188614, -88.411118, -228.738541, 13.726859, 100.771704
1759223388.529335, 0.530615, 9.330802, -6.050148, 0.076479, 1.182642, -0.143497, -12.948334, -89.001541, -229.856308, 13.726859, 100.771704
1759223388.549339, 1.248576, 7.320122, -1.980454, 0.487657, 1.577002, -0.096898, -11.313034, -89.167130, -229.121948, 13.726859, 100.771704
1759223388.569372, 5.089923, 14.767436, -2.604891, -0.281118, 0.859002, -0.493596, -10.125900, -89.668762, -230.412827, 13.726859, 100.771704
1759223388.589331, 7.851485, 19.409045, 3.804686, -0.809015, -0.329775, -0.096755, -9.139603, -89.038727, -230.700470, 13.726859, 100.771704
1759223388.609322, 7.462577, 15.660473, 6.275502, -0.886400, -2.772784, -0.641432, -10.368454, -88.448227, -229.819870, 13.726859, 100.771704
1759223388.629334, 3.683779, 5.079149, 5.828684, -0.933078, -3.176586, -0.729456, -13.104126, -87.927048, -228.298355, 13.726859, 100.771704
1759223388.649334, 2.037017, 2.045247, 1.467795, -1.298809, -3.589118, -0.475700, -15.019623, -88.062225, -226.646439, 13.726859, 100.771704
1759223388.669315, 1.772457, 1.944391, 0.104447, -1.678785, -3.107345, -0.054514, -18.131622, -87.095901, -225.453293, 13.726859, 100.771704
1759223388.689337, 3.661034, 4.197784, 0.629974, -2.199556, -0.446091, 0.370299, -19.218231, -85.783310, -223.730438, 13.726859, 100.771704
1759223388.709302, 3.836259, 10.582371, 6.640468, -1.491740, 1.898058, 0.419279, -18.549469, -84.236877, -223.909393, 13.726859, 100.771704
1759223388.729337, 5.250035, 16.203059, 6.036830, -1.141423, 2.056931, 0.266395, -17.464752, -83.402008, -224.741623, 13.726859, 100.771704
1759223388.749390, 3.219902, 13.363685, 2.444330, -1.420551, 0.973806, 0.310072, -15.894745, -82.742996, -225.544067, 13.726859, 100.771704
1759223388.768477, -0.225654, 8.354118, -5.469554, -2.204744, -0.322987, 0.275715, -15.318466, -81.215424, -225.946518, 13.726859, 100.771704
1759223388.789323, -0.502932, 8.839542, -7.785196, -2.075671, -1.859531, -0.328085, -16.575104, -79.825089, -223.951874, 13.726859, 100.771704
1759223388.809279, 0.103699, 8.834006, 1.030853, -1.404952, -1.373041, -0.709739, -17.638550, -78.622375, -223.474472, 13.726859, 100.771704
1759223388.829317, 0.082301, 7.630470, 3.548656, -0.841975, -0.636294, -0.431219, -18.898224, -78.525528, -221.998886, 13.726836, 100.771717
1759223388.849337, 0.127491, 7.672219, 2.435951, -0.707103, -0.042874, 0.172570, -18.893692, -77.935715, -221.597015, 13.726836, 100.771717
1759223388.869318, 1.369184, 7.745392, 0.811185, -0.998422, 0.283093, 0.249795, -18.592438, -77.509003, -221.574661, 13.726836, 100.771717
1759223388.888438, 1.326986, 7.935132, -0.170886, -1.371265, 0.320595, 0.181242, -18.718506, -76.816116, -220.789856, 13.726836, 100.771717
1759223388.909299, 0.798167, 8.504204, -0.023643, -1.453271, 0.010987, 0.305600, -18.194595, -75.974472, -221.231644, 13.726836, 100.771717
1759223388.929443, 0.583287, 8.161235, -0.510713, -1.378664, -0.541707, 0.477104, -18.333618, -75.088165, -220.605652, 13.726836, 100.771717
1759223388.949331, 0.550966, 8.342596, -1.061080, -1.262261, -1.036424, 0.551034, -18.689743, -73.388336, -219.461060, 13.726836, 100.771717
1759223388.969315, 0.046837, 9.235783, 0.004339, -1.046458, -1.064748, 0.510497, -18.966614, -72.766098, -219.233948, 13.726836, 100.771717
1759223388.989330, -0.451756, 10.134057, -0.143652, -0.928643, -0.566759, 0.443334, -19.556366, -72.127853, -217.846100, 13.726836, 100.771717
1759223389.009325, -0.313341, 10.807576, -0.003591, -0.737550, -0.198976, 0.356734, -19.502472, -71.244598, -217.921570, 13.726836, 100.771717
1759223389.029351, -0.757017, 11.713482, 0.545728, -0.418394, 0.102905, 0.285394, -19.763779, -71.095352, -217.429794, 13.726836, 100.771717
1759223389.049329, -0.519991, 13.310414, 2.619556, -0.068316, 0.712471, 0.043072, -19.186844, -71.038086, -217.235153, 13.726836, 100.771717
1759223389.069450, -1.605163, 13.848362, -0.849044, -0.343923, 0.506239, -0.160178, -18.794373, -71.130692, -218.371201, 13.726836, 100.771717
1759223389.089326, -2.462586, 12.934674, -4.870405, -0.527938, -0.713168, -0.308047, -19.018753, -71.001892, -217.836243, 13.726836, 100.771717
1759223389.109315, -1.608904, 13.688998, -2.881571, 0.528571, -1.437241, -0.453638, -19.475281, -71.026047, -217.756943, 13.726836, 100.771717
1759223389.129312, -0.099210, 13.979145, -0.029329, 1.814068, -0.919713, -0.771712, -20.447189, -72.001801, -217.477524, 13.726836, 100.771717
1759223389.149336, 0.157419, 11.763910, 1.760337, 2.484170, 0.825088, -0.946249, -20.940704, -73.634369, -217.621536, 13.726836, 100.771717
1759223389.169440, 1.274912, 11.957541, -0.524330, 3.218113, 1.228259, -1.080709, -20.002884, -75.915039, -219.522018, 13.726836, 100.771717
1759223389.188701, 2.396745, 13.459454, -0.399083, 3.172830, 0.922730, -0.925381, -20.112335, -78.212616, -220.401276, 13.726836, 100.771717
1759223389.209295, 3.541922, 14.116961, 0.861464, 3.149450, -0.107396, -0.296671, -19.477249, -80.777985, -221.978882, 13.726836, 100.771717
1759223389.229358, 4.735282, 13.739725, 1.706617, 3.309533, -1.538180, 0.425290, -20.162048, -82.688477, -222.052399, 13.726836, 100.771717
1759223389.249340, 6.728305, 13.388825, 0.714968, 3.486862, -3.018029, 0.766919, -21.702026, -84.917496, -221.146286, 13.726836, 100.771717
1759223389.269328, 7.323564, 11.825411, -1.806276, 3.205138, -3.804993, 0.085624, -23.211487, -86.488342, -219.788361, 13.726836, 100.771717
1759223389.289161, 3.661034, 10.617686, -1.726519, 2.638505, -2.673378, -0.148449, -25.421371, -88.102219, -217.942719, 13.726836, 100.771717
1759223389.309293, 0.977882, 9.910648, 0.098462, 2.038697, -0.564486, -0.195653, -26.454132, -89.894058, -217.106918, 13.726836, 100.771717
1759223389.329339, -0.392799, 8.794052, 0.370652, 1.651897, 0.964642, -0.161957, -26.206451, -91.437820, -217.338837, 13.726836, 100.771717
1759223389.349287, 0.374543, 8.374917, -2.190096, 1.239617, 0.204783, -0.407158, -25.614594, -91.942642, -218.053360, 13.726836, 100.771717
1759223389.369317, 1.303493, 8.692299, -0.946458, 0.752868, -0.253417, -0.985985, -25.633011, -92.959747, -217.807861, 13.726836, 100.771717
1759223389.389327, 1.391480, 8.194454, 3.337068, 1.150441, 1.143444, -1.309576, -25.723770, -94.033981, -217.461304, 13.726836, 100.771717
1759223389.409312, 1.350779, 5.954978, 4.343082, 1.713262, 2.740647, -0.927409, -24.322433, -96.078110, -218.435013, 13.726836, 100.771717
1759223389.429304, 0.947805, 3.724181, 0.706140, 1.686242, 2.733985, -0.327736, -22.682022, -97.620544, -220.230606, 13.726836, 100.771717
1759223389.448887, 2.046893, 3.565415, -2.266860, 0.740266, 2.154270, -0.226795, -20.903061, -97.953308, -221.400955, 13.726836, 100.771717
1759223389.469321, 2.452111, 3.462614, -2.571971, -0.319423, 1.531894, -0.336128, -19.682220, -98.373276, -222.577499, 13.726836, 100.771717
1759223389.488875, 2.017713, 2.504784, -1.201291, -1.119391, 1.370677, -0.346536, -18.598923, -98.160843, -221.934769, 13.726836, 100.771717
1759223389.509296, 1.686865, 2.041356, -0.339977, -1.775504, 1.579234, -0.273224, -17.433212, -97.587540, -224.086807, 13.726836, 100.771717
1759223389.529316, 1.409586, 2.012476, -0.184204, -2.427217, 2.049254, -0.156691, -15.946365, -96.172821, -224.730316, 13.726836, 100.771717
1759223389.548855, 1.094449, 2.100613, -0.942567, -2.753591, 2.148994, 0.288330, -14.229172, -94.049911, -226.697495, 13.726836, 100.771717
1759223389.569309, 2.440440, 3.762488, -1.339257, -2.561944, 2.378419, 0.528339, -12.563934, -92.166473, -228.029694, 13.726836, 100.771717
1759223389.589335, 5.152771, 9.262717, -4.908413, -1.146575, 2.516087, 0.667766, -11.428970, -90.911606, -228.401810, 13.726836, 100.771717
1759223389.608562, 5.576096, 26.020184, -21.717055, 0.795150, 0.205678, 0.161690, -10.174927, -91.002625, -229.265335, 13.726836, 100.771717
1759223389.629341, 2.297985, 25.587432, -19.379117, -0.721524, -0.801464, -0.624802, -10.215164, -91.489151, -228.136108, 13.726836, 100.771717
1759223389.649286, 0.518644, 10.319458, -7.796119, -0.469524, 0.607802, -0.488778, -10.361496, -90.730698, -228.640488, 13.726836, 100.771717
1759223389.669443, 2.919579, 6.443545, -0.044742, 0.362383, 1.560375, -0.081324, -9.090942, -91.037598, -228.930603, 13.726836, 100.771717
1759223389.689325, 9.440636, 16.439038, -1.032350, 0.204040, 1.093711, -0.052885, -7.968033, -90.974686, -229.099976, 13.726836, 100.771717
1759223389.709322, 9.533561, 22.981792, 1.315165, -0.749993, 0.013427, 0.006181, -7.014511, -90.956573, -229.857147, 13.726836, 100.771717
1759223389.729402, 4.053982, 14.027777, 6.200533, -1.156199, -2.112098, -0.792103, -7.921494, -90.268036, -229.447540, 13.726836, 100.771717
1759223389.749324, 2.875287, 4.839280, 6.031742, -0.996655, -2.801889, -0.681100, -10.042908, -89.777863, -227.794601, 13.726836, 100.771717
1759223389.769442, 1.984195, 1.306336, 2.463334, -0.774129, -3.034708, -0.379791, -11.651825, -88.793121, -227.352524, 13.726836, 100.771717
1759223389.788372, 1.243040, 0.680701, 1.885284, -0.885365, -2.369913, -0.203819, -14.311966, -88.661255, -225.827805, 13.726836, 100.771717
1759223389.808458, 1.429189, 2.392705, 1.912967, -1.509331, -1.486688, 0.346898, -15.532150, -88.066803, -225.223358, 13.726836, 100.771717
1759223389.829436, 3.879953, 7.859565, 3.359663, -1.724874, -1.198646, 0.923395, -16.094040, -86.775284, -224.751022, 13.726818, 100.771716
1759223389.849279, 7.129484, 14.234427, 6.488436, -1.212662, -0.587766, 0.675079, -16.785522, -85.207718, -223.875534, 13.726818, 100.771716
1759223389.869434, 5.618144, 12.970438, 4.324527, -1.055660, 0.036886, 0.310382, -16.655304, -84.579758, -223.543320, 13.726818, 100.771716
1759223389.889325, 2.177676, 10.503512, 1.260547, -2.511763, 2.639161, 0.538234, -16.333664, -83.380508, -223.722046, 13.726818, 100.771716
1759223389.908894, -0.169240, 10.367492, -5.479579, -3.863913, 3.926645, -0.027088, -13.867828, -80.800034, -225.026474, 13.726818, 100.771716
1759223389.929332, -1.906233, 9.446622, -7.149984, -0.712220, -0.880455, -0.715179, -13.025742, -79.407791, -224.760406, 13.726818, 100.771716
1759223389.949322, -1.262492, 8.961497, 1.920449, 0.313564, -1.974185, -0.624175, -14.010696, -79.890106, -223.637665, 13.726818, 100.771716
1759223389.969447, -0.587627, 8.799140, 2.010381, 0.222623, -2.063343, -0.431799, -15.229538, -80.488251, -223.617081, 13.726818, 100.771716
1759223389.989307, -0.295235, 8.108862, 1.672799, -0.267738, -1.695498, -0.373770, -17.106430, -80.009491, -222.597565, 13.726818, 100.771716
1759223390.009288, -0.758663, 7.745991, 0.658256, -0.980017, -1.062718, -0.134843, -17.731018, -79.807587, -221.880035, 13.726818, 100.771716
1759223390.029370, -1.128268, 8.273014, 1.075146, -1.507953, -0.131774, 0.285039, -17.922592, -79.028961, -221.245041, 13.726818, 100.771716
1759223390.049264, -0.072275, 8.780884, 1.646911, -1.663855, 0.406386, 0.453410, -17.981461, -77.733948, -221.344574, 13.726818, 100.771716
1759223390.069307, 0.662895, 9.007735, 0.867300, -1.832381, 0.486504, 0.550994, -17.512833, -76.696884, -220.388031, 13.726818, 100.771716
1759223390.089322, 1.969081, 8.602666, -1.068712, -2.204206, 0.229770, 0.553568, -16.916016, -74.906403, -220.024918, 13.726818, 100.771716
1759223390.109044, 3.373281, 8.929923, -2.330905, -2.101092, -0.424929, 0.493587, -16.932602, -73.681366, -219.241898, 13.726818, 100.771716
1759223390.128949, 3.805883, 9.568876, -0.530465, -0.716496, -1.267429, 0.508542, -17.167206, -72.687866, -218.003235, 13.726818, 100.771716
1759223390.149212, 1.033846, 9.786299, 0.851288, 0.156232, -1.022624, 0.763546, -17.409698, -72.405258, -217.520767, 13.726818, 100.771716
1759223390.168819, -0.213234, 11.370962, 2.487725, 0.395533, -0.057400, 0.561571, -17.275635, -71.883713, -217.001266, 13.726818, 100.771716
1759223390.188579, -0.299275, 12.665476, 3.108572, 0.264452, 0.901672, 0.108744, -16.719223, -72.161240, -217.581970, 13.726818, 100.771716
1759223390.209285, -1.876755, 13.501502, -1.358111, -0.416597, 0.347234, -0.404984, -16.593155, -71.913376, -217.971863, 13.726818, 100.771716
1759223390.229321, -3.227982, 12.207136, -2.537704, -0.679665, -0.849475, -0.488723, -16.840271, -72.123093, -217.500519, 13.726818, 100.771716
1759223390.249322, -0.952443, 13.238289, -1.010652, 0.491237, -1.752579, -0.438192, -17.921677, -72.059341, -215.868378, 13.726818, 100.771716
1759223390.269326, 1.480066, 14.632313, 1.633743, 2.475247, -1.395175, -0.741763, -18.783890, -73.169144, -216.551331, 13.726818, 100.771716
1759223390.289320, 2.059163, 12.979566, -0.176123, 3.489181, -0.740847, -1.071817, -19.824432, -75.094070, -216.127060, 13.726818, 100.771716
1759223390.309283, 2.527828, 12.167931, -3.019238, 3.305415, -0.700992, -1.091215, -20.374008, -77.318970, -216.746292, 13.726818, 100.771716
1759223390.328908, 3.456778, 11.867010, -1.821239, 2.738623, -0.369645, -0.661880, -20.724121, -79.401108, -217.723740, 13.726818, 100.771716
1759223390.349320, 3.950582, 12.239309, 0.228646, 2.489168, -0.599287, 0.029085, -21.133102, -80.447189, -217.660446, 13.726818, 100.771716
1759223390.369328, 5.305701, 14.699351, 1.603965, 2.449911, -1.770475, 0.376207, -21.389328, -81.468933, -217.680695, 13.726818, 100.771716
1759223390.388916, 5.683236, 15.699229, 0.035464, 2.646416, -3.648476, 0.063609, -23.451767, -82.871994, -215.762741, 13.726818, 100.771716
1759223390.409285, 3.893122, 12.258761, -1.254861, 2.472731, -3.612099, -0.608361, -25.530640, -84.244812, -213.678848, 13.726818, 100.771716
1759223390.429371, 0.477643, 9.251046, 0.569970, 1.769180, -0.938060, -1.049646, -26.677628, -85.522018, -212.451355, 13.726818, 100.771716
1759223390.449319, -1.509544, 8.951172, 0.403573, 1.548553, 0.590286, -1.263344, -26.723907, -86.911102, -212.036087, 13.726818, 100.771716
1759223390.469338, -2.169895, 7.709329, 0.718260, 1.518147, 1.604763, -0.874035, -26.587128, -87.763916, -213.452179, 13.726818, 100.771716
1759223390.489314, -1.139341, 8.824429, -0.350601, 1.370037, 1.655578, -0.608965, -25.922424, -89.130768, -214.254944, 13.726818, 100.771716
1759223390.508486, 0.245855, 9.753229, 0.539892, 1.433662, 1.445056, -0.532837, -25.096252, -90.250885, -215.537033, 13.726818, 100.771716
1759223390.529307, 2.355894, 9.098266, 3.677045, 1.857421, 1.805341, -0.501858, -24.658142, -91.040176, -216.040207, 13.726818, 100.771716
1759223390.549267, 3.849577, 6.112546, 2.691232, 1.872688, 2.087304, -0.477544, -23.609055, -92.094193, -217.231277, 13.726818, 100.771716
1759223390.569323, 4.899734, 4.186262, 1.800889, 1.466848, 2.599195, -0.455656, -22.142792, -92.846649, -219.009995, 13.726818, 100.771716
1759223390.589319, 5.066580, 3.274370, -0.809240, 0.692551, 2.595271, -0.515120, -21.056351, -93.684402, -219.788605, 13.726818, 100.771716
1759223390.609281, 3.468450, 2.659210, -2.948459, -0.356101, 1.964747, -0.549550, -19.605728, -93.750656, -221.850128, 13.726818, 100.771716
1759223390.629324, 2.166902, 1.344943, -2.802263, -1.218327, 1.419299, -0.529455, -18.678970, -93.627884, -222.257645, 13.726818, 100.771716
1759223390.648819, 1.310676, -0.100257, -2.736872, -1.934658, 1.240877, -0.396681, -18.159790, -92.441071, -222.789856, 13.726818, 100.771716
1759223390.669329, 0.457143, 0.991798, -2.826654, -2.493810, 1.508838, -0.133962, -17.090271, -91.036774, -224.210358, 13.726818, 100.771716
1759223390.689313, 0.337582, 4.028843, -2.366070, -2.770963, 2.104446, 0.237748, -15.963974, -89.125946, -224.258896, 13.726818, 100.771716
1759223390.709306, 1.941698, 7.998878, -1.627309, -2.230132, 2.516809, 0.664727, -14.423065, -87.414322, -225.425705, 13.726818, 100.771716
1759223390.729308, 4.018069, 17.774852, -5.620089, -0.003150, 1.956754, 0.921761, -12.910751, -86.036057, -226.137085, 13.726818, 100.771716
1759223390.749314, 4.204966, 29.085510, -17.980155, 0.860510, -0.061049, 0.166062, -12.816849, -86.565323, -226.477036, 13.726818, 100.771716
1759223390.769354, 2.277185, 15.265879, -13.972411, 0.052197, -0.031165, -0.134999, -12.846207, -86.900101, -226.284103, 13.726818, 100.771716
1759223390.789376, 4.524742, 7.243657, -6.903082, -0.194106, 0.550629, -0.287135, -12.948334, -86.546738, -226.598221, 13.726818, 100.771716
1759223390.809281, 7.631667, 10.608708, -1.780837, -0.235862, 0.213765, -0.034130, -12.356720, -86.107574, -226.859024, 13.726818, 100.771716
1759223390.829328, 11.712135, 20.654478, 2.160617, -0.304566, -1.138740, -0.121740, -12.379669, -85.728958, -227.059601, 13.726806, 100.771725
1759223390.849192, 6.648848, 17.844883, 3.204639, -0.683331, -3.299985, -0.241120, -14.536896, -85.120438, -225.821426, 13.726806, 100.771725
1759223390.869317, 3.309236, 5.818808, 6.859986, -0.494742, -3.272106, 0.000391, -16.601349, -84.854095, -224.275360, 13.726806, 100.771725
1759223390.888659, 1.978658, 2.057068, 3.339313, -0.661014, -3.361839, 0.130938, -19.205338, -84.541901, -222.143066, 13.726806, 100.771725
1759223390.909278, 1.432182, 0.629226, 2.328660, -0.641602, -3.196595, 0.343276, -21.759857, -83.838211, -220.888519, 13.726806, 100.771725
1759223390.929312, 1.248576, 1.487847, 2.819472, -0.566300, -2.280538, 0.459585, -23.178741, -83.249893, -219.465836, 13.726806, 100.771725
1759223390.948887, 2.204910, 6.401946, 5.057601, -0.963998, -0.354103, 0.649552, -23.963455, -82.417419, -218.009613, 13.726806, 100.771725
1759223390.969358, 3.905841, 14.218116, 7.293038, -1.343913, 1.623697, 0.660872, -23.308472, -81.482437, -218.865158, 13.726806, 100.771725
1759223390.989293, 3.557784, 16.761656, 5.235520, -1.827718, 2.510576, 0.245065, -22.388870, -80.206635, -219.375626, 13.726806, 100.771725
1759223391.009279, 1.109413, 11.694478, 2.170643, -2.356393, 2.906579, 0.280254, -20.336334, -78.838455, -220.603851, 13.726806, 100.771725
1759223391.029339, 0.294636, 9.265411, -3.480122, -4.158243, 2.980584, 0.169601, -18.402191, -77.032837, -221.985458, 13.726806, 100.771725
1759223391.049319, 1.383100, 8.308179, -8.732402, -4.215997, -0.765734, -0.466427, -18.155212, -73.805344, -220.467316, 13.726806, 100.771725
1759223391.069423, 1.062128, 7.918672, 0.557999, -0.781627, -2.922013, -0.626432, -19.918640, -73.328354, -218.696747, 13.726806, 100.771725
1759223391.089309, -0.560692, 8.661473, 3.556736, 0.372258, -1.502855, -0.373373, -21.308090, -73.432526, -217.079407, 13.726806, 100.771725
1759223391.109277, -1.248875, 8.881441, 0.392499, -0.010181, -0.426927, 0.269515, -21.781158, -73.576874, -217.334808, 13.726806, 100.771725
1759223391.129309, -0.357335, 9.460538, 0.574309, -0.701672, 0.598894, 0.354531, -21.474625, -73.106384, -217.394928, 13.726806, 100.771725
1759223391.149313, 0.327108, 9.655965, 1.068113, -1.169719, 0.997702, 0.023482, -21.073456, -72.531403, -217.540451, 13.726806, 100.771725
1759223391.169311, 0.359878, 8.260445, -0.359878, -1.561311, 0.341721, -0.085136, -20.456085, -71.283340, -217.043884, 13.726806, 100.771725
1759223391.189308, 1.555184, 7.482479, -2.454805, -1.892676, -0.839540, -0.053879, -21.148102, -70.543610, -216.318680, 13.726806, 100.771725
1759223391.209328, 2.321179, 8.346486, -1.611597, -1.593649, -1.684221, 0.030943, -22.059219, -69.612778, -214.597137, 13.726806, 100.771725
1759223391.229328, 1.978808, 9.660005, -0.026486, -0.856947, -0.992569, 0.288345, -22.942154, -69.027771, -213.656494, 13.726806, 100.771725
1759223391.249310, 1.791611, 10.609905, 0.360178, -0.295095, 0.126946, 0.428740, -22.547211, -68.270081, -212.887970, 13.726806, 100.771725
1759223391.269355, 0.813131, 10.304794, -0.474501, -0.261338, 0.043031, 0.475667, -22.758499, -68.277542, -213.276733, 13.726806, 100.771725
1759223391.289288, -0.596156, 11.061960, 0.653617, -0.157092, -0.307728, 0.415156, -22.679474, -67.641022, -213.253616, 13.726806, 100.771725
1759223391.309922, -1.048361, 13.741520, 1.877653, -0.088324, 0.054647, 0.213846, -22.662415, -67.528091, -212.938629, 13.726806, 100.771725
1759223391.329323, -1.932420, 15.223232, -3.309834, -0.382379, -0.112567, -0.072689, -22.726562, -67.203033, -212.805191, 13.726806, 100.771725
1759223391.349294, -1.219397, 12.704831, -1.918354, 0.706519, -0.321051, -0.333102, -23.095520, -67.308685, -212.464157, 13.726806, 100.771725
1759223391.369419, -0.864606, 13.427431, 1.856105, 2.228190, 0.096258, -0.661013, -23.604599, -68.819229, -214.057526, 13.726806, 100.771725
1759223391.389309, -0.940772, 12.713510, 1.252616, 2.881104, 0.651739, -0.891029, -23.587021, -70.192047, -215.043610, 13.726806, 100.771725
1759223391.409274, -0.211737, 12.084733, -2.395997, 3.495707, -0.216677, -0.882348, -24.397659, -72.711426, -216.766876, 13.726806, 100.771725
1759223391.429332, 2.775478, 13.571682, -2.440290, 3.208697, -0.908905, -1.265056, -25.063919, -75.491028, -218.257629, 13.726806, 100.771725
1759223391.448799, 3.206135, 12.544420, -0.873584, 2.385610, -0.895684, -0.982543, -26.097504, -77.594223, -217.593353, 13.726806, 100.771725
1759223391.469403, 4.114136, 14.198065, 1.210718, 1.916624, -1.099318, -0.390851, -26.531021, -79.466995, -218.942276, 13.726806, 100.771725
1759223391.489311, 4.850353, 16.709433, 1.528847, 2.345780, -2.401823, -0.200204, -27.948929, -80.541504, -217.343719, 13.726806, 100.771725
1759223391.509272, 4.128801, 15.476868, 0.061950, 3.129618, -3.403931, -0.386675, -29.578949, -82.401489, -215.929504, 13.726806, 100.771725
1759223391.529318, 1.737891, 12.448801, -0.137816, 2.643555, -1.737239, -0.530556, -31.379517, -84.178940, -214.899216, 13.726806, 100.771725
1759223391.548321, 0.244209, 9.567828, 1.334917, 1.692401, 0.672628, -0.297462, -31.213867, -85.857651, -214.878204, 13.726806, 100.771725
1759223391.569313, 0.642544, 8.376264, -0.965761, 1.105645, 0.502238, -0.490797, -30.612946, -86.610672, -215.921494, 13.726806, 100.771725
1759223391.589278, 1.342698, 8.646809, -0.412551, 0.694980, -0.120969, -1.069795, -31.323242, -88.230072, -215.688522, 13.726806, 100.771725
1759223391.609290, 1.352874, 8.238747, 1.489044, 0.886211, 0.058585, -1.308071, -31.317261, -89.626877, -215.878586, 13.726806, 100.771725
1759223391.629300, 1.962946, 6.713940, 4.413561, 1.286001, 1.433450, -1.134246, -30.699371, -90.953232, -216.545135, 13.726806, 100.771725
1759223391.648783, 3.277213, 4.950461, 6.519710, 1.833935, 3.070093, -0.803695, -29.630234, -92.506393, -217.844742, 13.726806, 100.771725
1759223391.669404, 2.745102, 3.599233, 3.543119, 2.077927, 3.108147, -0.434901, -27.257751, -94.190475, -220.468262, 13.726806, 100.771725
1759223391.689286, 2.615965, 3.688567, -0.484975, 1.395113, 2.492634, -0.355364, -25.634933, -95.823685, -221.725952, 13.726806, 100.771725
1759223391.709271, 2.638111, 2.593369, -3.583970, 0.098687, 1.869214, -0.343282, -24.011932, -96.361298, -223.098373, 13.726806, 100.771725
1759223391.729338, 1.667262, 0.670975, -4.028244, -1.217711, 1.710955, -0.105510, -22.819580, -96.071259, -224.304428, 13.726806, 100.771725
1759223391.749305, 1.063774, 1.012897, -3.285144, -2.294842, 1.677461, 0.208490, -21.987320, -94.889343, -225.488892, 13.726806, 100.771725
1759223391.769362, 0.896030, 2.539500, -1.850419, -2.877535, 1.829484, 0.576523, -20.333069, -92.547928, -226.841507, 13.726806, 100.771725
1759223391.789377, 1.926285, 3.985298, -1.247978, -2.769006, 1.914659, 0.780670, -19.079620, -90.491989, -226.969681, 13.726806, 100.771725
1759223391.809307, 3.350685, 6.689998, -1.169717, -1.940511, 2.242743, 0.666706, -17.759094, -88.794937, -228.327744, 13.726806, 100.771725
1759223391.829308, 5.281908, 14.692916, -4.554819, -0.195433, 2.016975, 0.223541, -16.243500, -88.009140, -229.881775, 13.726784, 100.771720
1759223391.849136, 3.902100, 26.950780, -18.847754, 0.203529, -0.615518, -0.450038, -15.784088, -88.479187, -229.841400, 13.726784, 100.771720
1759223391.869057, -0.104896, 19.244294, -14.308647, -0.493627, -1.245769, -0.455919, -16.992828, -88.577866, -229.202789, 13.726784, 100.771720
1759223391.888833, -0.964265, 9.116521, -4.051288, -0.258727, 0.614899, 0.077184, -17.237503, -88.294830, -228.747986, 13.726784, 100.771720
1759223391.909268, 3.115156, 15.758785, -0.993893, 0.079312, 1.261693, 0.559594, -15.879318, -88.348618, -229.210739, 13.726784, 100.771720
1759223391.929308, 7.684041, 21.819108, 1.133654, 0.337693, 0.447954, 0.373498, -14.522614, -88.572586, -229.856979, 13.726784, 100.771720
1759223391.948320, 5.156362, 13.456910, 3.707721, 0.300049, -1.952162, -0.718372, -16.024673, -88.727676, -229.299606, 13.726784, 100.771720
1759223391.969408, 2.936937, 4.422240, 6.218789, -0.151983, -2.590202, -1.024575, -17.513748, -89.268845, -227.368958, 13.726784, 100.771720
1759223391.989283, 2.234089, 2.705747, 4.432864, -0.961335, -2.545741, -0.519724, -19.473251, -89.433304, -226.566849, 13.726784, 100.771720
1759223392.009299, 3.884742, 5.089474, 4.175338, -1.356668, -1.841618, -0.054581, -21.296036, -88.658768, -225.269897, 13.726784, 100.771720
1759223392.029351, 4.894047, 5.978770, 4.363732, -1.534537, -0.914010, -0.076868, -21.763504, -87.549927, -224.981842, 13.726784, 100.771720
1759223392.049302, 5.039495, 8.452130, 6.632238, -1.189420, 1.057142, -0.030581, -21.586716, -87.006332, -224.850082, 13.726784, 100.771720
1759223392.069344, 4.478055, 10.015245, 4.882974, -0.993398, 2.189875, 0.379153, -20.004272, -85.978683, -226.197464, 13.726784, 100.771720
1759223392.089306, 3.877260, 10.931027, 2.946963, -1.008843, 2.476939, 0.619787, -18.554932, -84.842545, -226.789688, 13.726784, 100.771720
1759223392.109268, 3.029713, 9.570971, 0.888847, -1.619464, 2.582695, 0.542711, -16.144852, -84.071930, -227.900604, 13.726784, 100.771720
1759223392.129303, -0.807145, 9.979332, -17.069161, -2.979677, 0.601021, 0.219300, -14.890793, -81.605865, -228.682938, 13.726784, 100.771720
1759223392.149303, 0.851588, 9.839421, -4.904223, -1.339735, -1.686159, -0.455636, -16.093887, -80.331161, -226.919159, 13.726784, 100.771720
1759223392.169358, 0.381875, 9.191191, 4.110395, -0.399078, -1.240898, -0.586689, -16.949142, -80.173950, -226.228836, 13.726784, 100.771720
1759223392.189293, 0.397288, 7.700052, 3.897611, -0.236142, -1.090136, -0.359503, -18.041580, -80.379395, -225.777954, 13.726784, 100.771720
1759223392.209288, 0.114024, 7.941866, 2.296937, -0.321259, -0.953550, -0.332758, -18.592728, -79.942169, -225.501846, 13.726784, 100.771720
1759223392.229337, -0.363021, 8.406491, 1.163432, -0.655150, -0.759143, -0.212716, -19.193497, -80.183563, -224.514740, 13.726784, 100.771720
1759223392.249055, -0.824653, 8.449287, 0.636858, -1.115672, -0.457453, 0.036316, -19.830551, -79.468384, -224.100891, 13.726784, 100.771720
1759223392.269359, -1.296759, 8.424747, -1.029207, -1.847030, -0.268421, 0.317307, -19.588425, -78.563278, -223.875320, 13.726784, 100.771720
1759223392.289290, -0.478092, 8.783578, -2.308010, -2.500723, -0.492714, 0.303867, -20.200638, -76.980911, -222.317184, 13.726784, 100.771720
1759223392.309264, 0.063596, 9.167847, -1.048062, -2.275934, -1.213665, 0.201525, -20.903549, -75.313080, -221.097290, 13.726784, 100.771720
1759223392.329373, 0.458490, 10.671705, -1.553687, -1.414604, -2.130907, 0.189611, -21.934998, -74.442749, -220.156174, 13.726784, 100.771720
1759223392.349144, 0.495001, 9.840019, -0.218770, -0.506958, -1.597083, 0.362577, -22.469803, -74.090530, -218.250229, 13.726784, 100.771720
1759223392.369355, -0.322020, 9.777321, 1.635240, -0.061161, -0.251002, 0.429018, -23.003799, -73.581512, -218.596695, 13.726784, 100.771720
1759223392.389291, -1.229423, 11.221623, 3.064129, 0.225760, 1.023877, 0.365877, -22.514404, -73.233643, -218.529999, 13.726784, 100.771720
1759223392.408985, -1.439514, 13.884424, 1.258752, -0.017055, 1.588728, 0.198869, -21.404800, -73.333710, -219.335098, 13.726784, 100.771720
1759223392.428928, -1.155202, 13.179332, -3.591602, -0.778956, 0.732158, -0.131308, -20.523346, -73.184052, -219.878708, 13.726784, 100.771720
1759223392.449298, -0.485275, 11.775282, -5.027674, -0.392708, -1.171805, -0.231619, -21.294266, -73.146225, -218.911804, 13.726784, 100.771720
1759223392.469342, 0.301370, 13.411420, -1.762581, 1.164058, -1.876792, -0.335808, -22.447235, -73.815903, -218.462112, 13.726784, 100.771720
1759223392.489285, 0.561141, 12.756905, 0.419883, 2.063251, -0.741684, -0.567629, -23.602707, -75.174072, -218.289185, 13.726784, 100.771720
1759223392.509262, 1.633145, 11.991359, -0.655413, 2.742063, -0.019269, -0.639039, -23.646667, -77.104660, -219.507416, 13.726784, 100.771720
1759223392.529340, 2.930952, 13.530980, -2.212542, 2.831457, -0.689495, -0.987771, -24.021103, -79.256165, -219.512375, 13.726784, 100.771720
1759223392.549287, 1.946037, 13.057377, 1.180790, 2.309399, -0.673770, -0.965356, -24.671967, -81.363785, -219.338882, 13.726784, 100.771720
1759223392.569328, 2.840421, 12.331785, 4.095880, 2.547702, -0.332642, -0.669119, -24.804123, -82.959656, -219.880585, 13.726784, 100.771720
1759223392.589291, 3.104980, 14.215722, 3.273472, 2.753845, -0.724766, 0.015962, -25.350983, -84.903214, -219.323898, 13.726784, 100.771720
1759223392.609278, 3.726126, 14.453197, 0.118064, 3.089630, -2.112780, 0.358955, -26.103165, -86.434708, -218.771210, 13.726784, 100.771720
1759223392.628479, 4.023007, 12.491149, -2.171691, 3.339414, -3.100009, 0.053639, -27.419281, -88.024155, -216.978577, 13.726784, 100.771720
1759223392.648808, 2.672677, 10.113557, -2.808997, 2.672326, -2.802073, -0.150492, -29.438644, -89.488571, -214.569839, 13.726784, 100.771720
1759223392.669340, 1.593192, 9.750237, -2.243966, 1.613475, -1.793378, -0.212098, -29.929626, -90.385330, -213.737442, 13.726784, 100.771720
1759223392.689280, 1.646163, 8.584859, 0.416441, 1.210178, -0.156201, 0.031260, -30.372482, -90.811554, -213.074875, 13.726784, 100.771720
1759223392.709251, 2.801066, 8.710555, 2.608782, 0.557808, 2.289947, -0.184239, -29.485611, -91.133545, -213.942917, 13.726784, 100.771720
1759223392.729282, 1.778293, 8.026411, 1.269525, 1.197186, 2.370643, -0.678065, -27.901337, -92.008026, -215.888275, 13.726784, 100.771720
1759223392.749290, 1.249923, 7.996634, 3.676596, 2.073222, 2.115932, -0.663144, -26.816452, -93.580750, -217.550171, 13.726784, 100.771720
1759223392.769317, 0.700753, 6.713790, 4.480748, 2.200149, 2.223911, -0.323745, -25.627960, -94.372772, -218.767334, 13.726784, 100.771720
1759223392.789367, 1.934665, 5.736358, 0.642394, 1.671849, 2.146858, -0.188681, -23.767685, -95.540741, -218.921310, 13.726784, 100.771720
1759223392.809256, 3.640384, 6.002712, -1.442058, 0.800727, 1.954502, -0.403969, -22.669952, -96.558365, -220.786713, 13.726784, 100.771720
1759223392.828588, 3.618387, 4.501698, -2.057667, -0.041643, 1.556583, -0.453470, -21.510468, -96.656876, -221.496414, 13.726759, 100.771724
1759223392.849192, 2.758719, 1.562516, -2.078466, -0.749464, 1.210157, -0.306400, -20.639999, -96.309723, -222.162582, 13.726759, 100.771724
1759223392.869331, 2.122011, 0.187795, -2.921375, -1.622777, 1.031860, -0.137498, -19.758926, -95.959045, -223.366089, 13.726759, 100.771724
1759223392.889272, 0.984316, 1.634192, -3.905242, -2.480906, 1.149177, 0.077222, -19.011322, -94.004715, -223.253754, 13.726759, 100.771724
1759223392.909248, 0.625784, 3.796306, -3.267936, -2.927581, 1.817548, 0.257565, -17.964172, -92.628876, -224.866791, 13.726759, 100.771724
1759223392.929273, 1.354969, 8.310873, -4.236390, -1.637478, 2.703799, 0.384385, -16.486526, -91.089874, -225.913513, 13.726759, 100.771724
1759223392.948433, 0.795474, 18.423681, -12.208782, -0.102457, 1.195523, 0.636423, -15.263046, -90.497498, -226.496658, 13.726759, 100.771724
1759223392.969323, 4.937293, 21.659145, -18.236784, -0.494294, -1.281311, -0.004152, -15.440201, -90.149353, -226.145294, 13.726759, 100.771724
1759223392.989270, 5.671265, 9.299678, -9.292196, -0.664244, -0.801795, -0.502150, -16.248825, -89.288055, -225.588974, 13.726759, 100.771724
1759223393.009260, 2.978537, 4.977246, 0.382923, 0.111890, 0.649136, -0.261884, -15.796722, -89.283096, -225.729782, 13.726759, 100.771724
1759223393.029319, 1.611148, 8.577078, 2.941127, -0.041609, 1.049896, -0.138950, -14.550842, -89.056534, -226.572266, 13.726759, 100.771724
1759223393.049272, 4.648791, 15.962142, 3.710863, -0.651138, -0.519221, -0.337053, -14.173874, -88.973557, -225.854218, 13.726759, 100.771724
1759223393.069325, 6.160730, 18.331804, 6.237943, -1.105630, -2.508111, -0.118433, -15.701950, -88.375473, -226.115967, 13.726759, 100.771724
1759223393.089268, 4.266318, 11.370213, 3.637391, -1.489457, -3.244419, -0.419166, -18.037766, -87.636459, -224.219070, 13.726759, 100.771724
1759223393.108948, 2.067243, 7.540538, 4.316297, -1.467855, -2.023945, -0.430645, -20.100784, -86.912994, -223.137466, 13.726759, 100.771724
1759223393.129312, 0.873435, 5.908142, 0.792930, -1.212923, 0.442055, -0.009959, -20.253494, -86.032272, -222.752808, 13.726759, 100.771724
1759223393.148768, 2.093131, 11.620108, 5.631162, -1.158857, 3.168916, 0.004957, -17.997223, -85.457245, -224.106216, 13.726759, 100.771724
1759223393.169326, 1.752256, 12.111817, 4.582203, -1.253365, 3.584114, 0.109175, -15.359329, -84.781570, -225.865768, 13.726759, 100.771724
1759223393.188795, 2.982277, 9.987113, -1.190068, -1.549037, 1.566337, -0.129430, -14.219910, -83.729599, -225.930801, 13.726759, 100.771724
1759223393.209262, 4.909759, 8.467094, -6.275352, -1.497503, -1.271665, -0.548828, -14.582825, -82.118958, -226.139938, 13.726759, 100.771724
1759223393.229299, 2.192490, 7.924957, -1.694047, -1.261085, -2.024135, -0.543786, -16.094467, -81.842545, -224.789017, 13.726759, 100.771724
1759223393.249134, 0.995838, 7.621791, 1.266982, -1.004014, -1.564992, -0.058033, -17.184738, -80.952393, -223.559235, 13.726759, 100.771724
1759223393.269326, 0.280122, 8.974515, 1.145177, -0.879871, -0.665411, 0.083942, -17.642578, -80.117264, -223.370377, 13.726759, 100.771724
1759223393.289271, -0.659004, 9.611672, 0.870292, -0.787684, 0.244132, -0.162164, -17.762131, -79.825134, -222.700302, 13.726759, 100.771724
1759223393.309239, -1.417816, 9.233837, -0.255731, -0.824725, 0.632513, -0.333509, -17.359894, -79.421082, -223.547043, 13.726759, 100.771724
1759223393.329296, -1.745373, 8.027758, -1.246182, -0.944053, 0.379104, -0.274336, -17.064529, -78.975128, -223.637070, 13.726759, 100.771724
1759223393.349256, -1.032200, 8.314613, -1.548300, -1.086298, -0.627867, -0.012647, -17.367279, -78.377808, -223.198410, 13.726759, 100.771724
1759223393.369320, 0.350302, 8.060978, -0.712125, -1.113283, -1.227593, 0.087633, -18.121948, -77.693481, -222.420395, 13.726759, 100.771724
1759223393.389248, 0.884807, 7.654113, -0.523432, -1.198805, -1.385599, 0.226312, -18.773956, -76.829788, -220.712189, 13.726759, 100.771724
1759223393.409241, 1.934066, 7.846547, -0.968903, -1.348585, -0.910867, 0.410367, -18.978195, -75.844788, -220.160767, 13.726759, 100.771724
1759223393.429299, 3.001281, 9.283816, -0.477045, -1.068518, -0.122362, 0.506904, -19.162292, -74.893921, -220.047501, 13.726759, 100.771724
1759223393.449254, 2.223016, 9.796325, -0.174477, -0.402786, -0.087208, 0.604228, -19.268463, -74.193863, -219.098221, 13.726759, 100.771724
1759223393.469357, -0.104746, 10.017639, -0.401478, -0.183821, -0.321293, 0.666478, -19.058243, -73.961212, -219.798477, 13.726759, 100.771724
1759223393.489295, -0.629974, 12.452841, 1.507000, -0.241757, 0.020226, 0.457234, -18.623535, -73.366943, -219.001846, 13.726759, 100.771724
1759223393.509213, -1.214010, 13.677476, 1.416470, -0.405273, 0.595498, -0.034823, -18.297333, -72.995636, -219.824081, 13.726759, 100.771724
1759223393.529288, -3.089119, 12.257415, -2.323423, -0.577053, 0.203186, -0.173972, -18.185211, -73.011276, -219.740417, 13.726759, 100.771724
1759223393.548285, -3.316568, 13.595624, -2.137124, 0.559118, -0.486129, -0.194365, -18.730423, -73.786102, -219.248550, 13.726759, 100.771724
1759223393.569354, -1.685817, 16.656162, 1.337461, 1.761583, -0.069418, -0.610733, -19.187866, -74.710815, -221.087433, 13.726759, 100.771724
1759223393.589239, -0.268001, 12.406903, -0.514005, 2.549054, 0.362803, -0.760993, -19.030701, -76.515671, -221.244629, 13.726759, 100.771724
1759223393.609226, 2.091335, 12.978219, -2.843114, 2.978782, 0.001899, -0.859045, -19.009598, -78.830048, -222.526611, 13.726759, 100.771724
1759223393.629279, 2.006940, 12.819753, -1.336862, 2.650834, -0.666666, -0.580347, -18.956558, -80.689423, -222.985199, 13.726759, 100.771724
1759223393.648729, 1.725770, 11.099070, 1.868225, 1.886794, -0.772991, -0.179486, -19.356522, -82.215576, -222.650848, 13.726759, 100.771724
1759223393.669354, 2.523189, 12.861651, 3.806182, 1.554755, -1.040384, -0.181026, -20.148773, -83.286636, -223.231949, 13.726759, 100.771724
1759223393.689268, 2.225261, 14.073417, 2.336292, 2.470062, -2.731075, -0.468906, -22.225540, -84.704269, -221.806046, 13.726759, 100.771724
1759223393.709201, 1.069460, 13.170503, 1.085621, 3.487025, -3.587781, -0.323796, -24.377304, -87.241425, -220.504974, 13.726759, 100.771724
1759223393.729349, 1.381604, 11.250054, -1.670255, 3.101563, -2.369467, 0.000256, -25.675629, -89.051422, -219.121506, 13.726759, 100.771724
1759223393.749016, 2.616862, 9.951798, -0.598999, 1.788548, 0.040951, 0.060529, -25.886734, -90.508362, -218.749344, 13.726759, 100.771724
1759223393.769283, 3.251475, 9.853636, 1.204283, 0.768816, 1.923718, -0.209854, -24.640701, -91.318649, -219.936005, 13.726759, 100.771724
1759223393.789219, 2.557157, 9.624391, -0.444424, 0.686792, 1.544965, -0.806404, -23.789352, -91.713272, -220.694489, 13.726759, 100.771724
1759223393.809203, 1.190068, 9.745598, -0.924012, 1.219570, -0.209164, -1.307411, -23.514282, -93.283020, -220.820953, 13.726759, 100.771724
1759223393.829300, 0.990302, 8.559570, 3.230077, 1.544905, 0.866705, -1.260844, -22.881104, -95.467468, -221.518707, 13.726749, 100.771724
1759223393.849232, 1.439813, 6.124218, 5.616797, 2.010854, 2.782074, -0.807645, -20.995071, -97.145889, -222.701630, 13.726749, 100.771724
1759223393.868875, 1.616984, 5.316026, 2.810643, 2.220355, 2.887662, -0.348814, -18.821884, -98.628586, -224.117111, 13.726749, 100.771724
1759223393.888740, 2.268356, 4.676923, 0.471957, 1.907194, 2.572356, -0.195481, -16.939529, -99.986099, -224.769928, 13.726749, 100.771724
1759223393.908477, 2.617910, 3.407548, -1.582118, 0.969195, 2.360110, -0.099457, -14.872513, -101.219452, -225.515930, 13.726749, 100.771724
1759223393.929290, 2.494908, 1.246032, -2.757073, -0.154519, 1.958064, 0.069547, -13.640381, -101.339508, -226.504745, 13.726749, 100.771724
1759223393.949228, 2.568230, 0.407912, -2.565986, -1.059545, 1.860436, 0.148336, -12.084213, -100.483032, -227.321121, 13.726749, 100.771724
1759223393.969338, 1.591695, 1.930325, -3.223194, -1.924257, 1.857960, 0.272489, -9.936768, -99.539780, -228.586884, 13.726749, 100.771724
1759223393.989224, 0.761805, 3.271826, -3.381361, -2.622475, 2.007605, 0.492594, -8.946732, -97.692139, -229.472534, 13.726749, 100.771724
1759223394.009226, 1.930475, 5.509806, -3.287089, -2.502222, 2.236684, 0.538638, -7.165527, -96.057190, -230.456436, 13.726749, 100.771724
1759223394.029273, 3.856610, 10.363751, -5.532102, -1.534670, 2.217820, 0.330755, -5.437164, -94.353622, -231.313889, 13.726749, 100.771724
1759223394.049222, 6.073641, 19.047221, -11.665149, -0.685086, 0.368974, -0.186315, -4.506943, -94.164536, -231.047958, 13.726749, 100.771724
1759223394.069327, 4.361038, 21.695507, -11.792491, -0.610306, -0.919389, -0.667705, -4.632507, -93.752609, -231.459503, 13.726749, 100.771724
1759223394.089217, 0.483180, 13.423391, -6.250812, -0.405429, -0.277360, -0.205908, -4.806213, -93.950668, -230.907166, 13.726749, 100.771724
1759223394.109188, 0.511611, 7.963414, -3.399916, -0.055056, 0.713689, 0.282540, -3.956833, -94.031418, -231.389740, 13.726749, 100.771724
1759223394.129219, 4.519505, 14.021492, -4.148403, -0.415102, 0.608102, 0.303327, -3.285919, -93.730484, -231.815094, 13.726749, 100.771724
1759223394.149277, 6.772149, 17.491588, -1.220295, -0.633943, -0.404487, 0.456342, -3.082062, -93.353088, -231.774033, 13.726749, 100.771724
1759223394.169350, 5.593304, 13.237691, 1.824082, -0.806702, -2.330234, -0.011292, -4.609070, -92.941528, -231.413666, 13.726749, 100.771724
1759223394.189214, 4.494515, 5.783643, 4.445584, -1.083287, -3.789998, -0.300802, -7.234329, -92.031082, -229.927521, 13.726749, 100.771724
1759223394.209263, 3.203143, 3.995174, 4.155137, -1.008358, -3.400434, 0.106487, -10.120361, -91.108612, -229.340317, 13.726749, 100.771724
1759223394.229243, 3.538929, 4.624251, 3.182493, -1.073137, -2.759819, 0.193890, -12.092194, -91.350555, -228.310394, 13.726749, 100.771724
1759223394.249210, 3.259406, 5.541529, 4.070292, -1.087869, -1.278717, 0.244070, -13.211044, -90.367722, -227.850815, 13.726749, 100.771724
1759223394.269325, 3.430442, 8.448090, 5.653159, -0.851120, 0.581916, 0.355489, -12.454544, -90.078201, -228.540421, 13.726749, 100.771724
1759223394.289211, 3.645771, 12.421567, 6.028001, -0.546123, 1.803006, 0.314291, -11.048218, -89.164536, -228.419373, 13.726749, 100.771724
1759223394.309179, 2.410662, 11.959785, 3.105280, -0.753909, 2.170617, 0.444396, -9.532669, -88.977921, -228.835693, 13.726749, 100.771724
1759223394.329212, 0.446818, 10.108619, -2.568529, -2.376965, 2.508125, 0.465212, -7.535263, -87.239349, -229.833908, 13.726749, 100.771724
1759223394.348721, -0.119112, 9.800964, -10.345046, -2.458065, -0.461524, -0.275523, -7.475189, -85.440582, -229.429703, 13.726749, 100.771724
1759223394.369262, -0.022446, 10.503063, -2.962825, -1.250022, -1.863962, -0.786334, -8.566025, -84.738785, -229.221085, 13.726749, 100.771724
1759223394.389205, -0.610671, 10.102484, 2.577508, -0.582916, -1.038555, -0.620513, -9.362122, -84.079407, -227.898361, 13.726749, 100.771724
1759223394.409188, -0.726341, 8.656386, 3.723881, -0.215093, -0.287170, -0.148238, -9.052353, -84.621613, -227.728607, 13.726749, 100.771724
1759223394.429252, 0.134823, 7.716063, 0.752378, -0.702581, -0.258831, 0.065592, -9.102829, -84.266464, -228.001984, 13.726749, 100.771724
1759223394.449205, 1.181987, 8.200739, -1.253065, -1.616500, 0.071971, -0.095610, -8.947067, -83.173798, -227.489273, 13.726749, 100.771724
1759223394.469313, 0.854880, 8.599972, -1.023222, -1.857679, 0.207177, -0.160333, -8.711685, -82.051758, -227.806702, 13.726749, 100.771724
1759223394.489200, 0.678607, 8.737489, -1.026215, -1.357332, -0.343285, 0.075009, -8.719894, -80.792160, -226.909988, 13.726749, 100.771724
1759223394.509193, 1.104026, 8.396016, -0.536002, -0.710957, -0.615400, 0.261869, -8.673843, -80.828247, -227.148026, 13.726749, 100.771724
1759223394.529236, 1.037587, 8.516175, -0.055216, -0.637530, -0.336617, 0.397926, -8.309616, -80.489456, -226.703873, 13.726749, 100.771724
1759223394.549203, 0.824653, 8.841039, -0.438139, -0.946389, -0.065843, 0.512404, -8.482132, -79.591827, -226.341446, 13.726749, 100.771724
