SamplingTime, AccelerationX, AccelerationY, AccelerationZ, GyroX, GyroY, GyroZ, MagneticFieldX, MagneticFieldY, MagneticFieldZ, Latitude, Longitude
1759259119.412745, 1.138144, 3.495834, -8.321497, 0.032998, -0.096349, 0.160266, 23.574905, -163.026733, 48.452316, , 
1759259119.433698, 0.807744, 3.965546, -9.419538, 0.102166, -0.219407, 0.241317, 23.461975, -162.498062, 47.953293, 13.767913, 100.802499
1759259119.453716, 0.880468, 3.785382, -9.504831, 0.018776, -0.113855, 0.308798, 23.571533, -162.431107, 47.381027, 13.767913, 100.802499
1759259119.473335, 0.898873, 3.895665, -9.450213, -0.033960, 0.038257, 0.397327, 23.365952, -162.448944, 47.900940, 13.767913, 100.802499
1759259119.493703, 0.910246, 3.527108, -8.862137, 0.056255, 0.077735, 0.456004, 23.007874, -162.192307, 47.882263, 13.767913, 100.802499
1759259119.513709, 0.942867, 3.605368, -8.740033, 0.018820, -0.022160, 0.479128, 22.866714, -162.220947, 47.615997, 13.767913, 100.802499
1759259119.533708, 0.971896, 3.754707, -8.831462, -0.062632, -0.041719, 0.587431, 22.528168, -161.842667, 47.482224, 13.767913, 100.802499
1759259119.553715, 1.195754, 3.922002, -8.940548, -0.100283, -0.071222, 0.724371, 22.175308, -161.531860, 47.641693, 13.767913, 100.802499
1759259119.573704, 1.081132, 3.409942, -8.742727, -0.049070, -0.151059, 0.744129, 21.685394, -161.197037, 47.769043, 13.767913, 100.802499
1759259119.593716, 0.791733, 3.045275, -8.900744, 0.025730, -0.306801, 0.651773, 20.985519, -161.087143, 48.198730, 13.767913, 100.802499
1759259119.613704, 0.966809, 3.285892, -9.370756, 0.154404, -0.325381, 0.579224, 20.621033, -160.947098, 48.926819, 13.767913, 100.802499
1759259119.633717, 1.186776, 4.352210, -9.968857, 0.005290, -0.095841, 0.684304, 20.399460, -160.645645, 48.459183, 13.767913, 100.802499
1759259119.653707, 1.823783, 5.214571, -10.057592, -0.272544, 0.348589, 1.010662, 19.893661, -160.119171, 48.386078, 13.767913, 100.802499
1759259119.673713, 2.384475, 5.726332, -9.941174, -0.525738, 0.674973, 1.484789, 19.531433, -159.269531, 47.979599, 13.767913, 100.802499
1759259119.693720, 2.750938, 7.029825, -10.660781, -0.550432, 1.184117, 2.181357, 19.430130, -158.071045, 46.926605, 13.767913, 100.802499
1759259119.713722, 3.737498, 7.828142, -10.024672, -0.726508, 1.759299, 3.184903, 18.914825, -155.949310, 45.949615, 13.767913, 100.802499
1759259119.733705, 4.247164, 5.835567, -7.823054, -0.927367, 1.781730, 3.855825, 18.561447, -153.291931, 44.948166, 13.767913, 100.802499
1759259119.753646, 3.439720, 2.880524, -6.354361, -0.972390, 1.175876, 3.898305, 17.816284, -150.589142, 43.942093, 13.767913, 100.802499
1759259119.773714, 3.004573, 2.116923, -6.870461, -0.924297, 0.939130, 3.625670, 17.905045, -148.159332, 43.370651, 13.767913, 100.802499
1759259119.793724, 3.453337, 1.873313, -5.792921, -1.206931, 0.684984, 3.378682, 17.238159, -145.638916, 42.603699, 13.767913, 100.802499
1759259119.813727, 2.596811, 2.780416, -6.351218, -1.583270, 0.277339, 3.204353, 17.174789, -142.733231, 41.761688, 13.767913, 100.802499
1759259119.833715, 0.389806, 2.359037, -9.966164, -1.803222, 0.760937, 2.946837, 17.395004, -139.859543, 41.268814, 13.767913, 100.802499
1759259119.853177, 0.083797, 1.911171, -10.256311, -1.867107, 1.671547, 2.684479, 18.589188, -137.035980, 40.221130, 13.767913, 100.802499
1759259119.872972, 2.216283, -0.126444, -7.925256, -1.859457, 1.352569, 1.963398, 19.345520, -134.467545, 39.850739, 13.767913, 100.802499
1759259119.893218, 1.625214, -0.871340, -9.023148, -0.985651, 1.195103, 1.044817, 20.029968, -133.418793, 39.026947, 13.767913, 100.802499
1759259119.913737, 5.405958, 1.937358, -4.988170, -0.436545, 0.307133, 1.258299, 20.562317, -132.405411, 38.928391, 13.767913, 100.802499
1759259119.933705, 4.943727, 2.092832, -5.758504, -0.682004, 0.173811, 1.666809, 20.914185, -131.060852, 39.231934, 13.767913, 100.802499
1759259119.953723, 4.317045, -0.672621, -8.504204, -1.101330, 0.437746, 1.578825, 21.242081, -129.355728, 38.820099, 13.767913, 100.802499
1759259119.973707, 6.061071, -0.227300, -3.845387, -0.892896, -0.349200, 0.651586, 21.005707, -128.575821, 39.314606, 13.767913, 100.802499
1759259119.993730, 6.608595, 1.508796, -6.687454, -0.801003, -1.122159, 0.205149, 20.873337, -128.442825, 39.447845, 13.767913, 100.802499
1759259120.013724, 6.837241, 3.914819, -9.453954, -0.608715, -0.929907, 0.054390, 20.329498, -128.047180, 39.927505, 13.767913, 100.802499
1759259120.033735, 7.288399, 5.914875, -8.807071, -0.605538, -0.614694, 0.305607, 19.769775, -127.559570, 40.530701, 13.767913, 100.802499
1759259120.053731, 6.713491, 5.985055, -8.038532, -0.760125, -0.507123, 0.713203, 19.445526, -126.641296, 41.214813, 13.767913, 100.802499
1759259120.073715, 5.602432, 4.399346, -6.924929, -0.964566, -0.322835, 0.836951, 19.103790, -125.551010, 41.339767, 13.767913, 100.802499
1759259120.093722, 5.669619, 3.328838, -5.802797, -1.068134, -0.429991, 0.502263, 18.946030, -124.636154, 42.209061, 13.767913, 100.802499
1759259120.113375, 6.314258, 4.827309, -5.875969, -1.048735, -0.821979, 0.021254, 18.600800, -123.772171, 42.674393, 13.767913, 100.802499
1759259120.133712, 5.991490, 6.268469, -8.702474, -0.975832, -0.551490, -0.104734, 17.972870, -123.279449, 42.828735, 13.767913, 100.802499
1759259120.153705, 6.306626, 5.259014, -9.671078, -1.036022, 0.193338, -0.388689, 18.105774, -122.628281, 43.075562, 13.767913, 100.802499
1759259120.173722, 8.185925, 4.266018, -11.109395, -1.495205, 0.903306, -0.683420, 18.391418, -122.022675, 43.042328, 13.767913, 100.802499
1759259120.193746, 6.569839, 7.061698, -8.721179, -0.532018, 1.478793, -0.233274, 19.227982, -121.479263, 42.162994, 13.767913, 100.802499
1759259120.213734, 7.750180, 7.013514, -5.669769, 0.213601, 1.468690, -0.166312, 20.459763, -121.739029, 41.435608, 13.767913, 100.802499
1759259120.233711, 8.706215, 7.901314, -5.102343, 0.120556, 1.485011, 0.835871, 21.694321, -121.149445, 41.013962, 13.767913, 100.802499
1759259120.253576, 6.988525, 3.948338, -3.632902, -0.184511, 1.398661, 1.142549, 23.204575, -120.364960, 40.139496, 13.767913, 100.802499
1759259120.273718, 2.106598, -1.421857, -8.172458, 0.045955, 2.021070, 0.341610, 24.292007, -120.139969, 39.608505, 13.767913, 100.802499
1759259120.293742, 3.470695, -1.056741, -3.200449, -0.257333, 1.389003, -0.474057, 25.290329, -119.909317, 39.068008, 13.767913, 100.802499
1759259120.313137, 4.886566, 2.495656, -3.620781, -0.440465, 1.365184, -0.678542, 26.199081, -119.966995, 38.797333, 13.767913, 100.802499
1759259120.333721, 6.207117, 2.795829, -5.111022, -0.623941, 1.726272, -0.506165, 27.457703, -119.600235, 38.328690, 13.767913, 100.802499
1759259120.353434, 6.152500, 2.676717, -4.283526, -0.835510, 1.857986, -0.220554, 28.955002, -118.816818, 38.049210, 13.767913, 100.802499
1759259120.373732, 5.917718, 2.133533, -3.872023, -0.914293, 1.623358, -0.182387, 30.004517, -118.185181, 38.215988, 13.767913, 100.802499
1759259120.393729, 5.261557, 2.107047, -3.160346, -0.892209, 0.922867, -0.267980, 30.518082, -117.544846, 37.635406, 13.767913, 100.802499
1759259120.413204, 5.526715, 1.688211, -3.614646, -0.909756, 0.446830, -0.726847, 30.723495, -117.017807, 38.577148, 13.767913, 100.802499
1759259120.433717, 5.729325, 1.877653, -3.073257, -1.080461, 0.035265, -1.367202, 30.213272, -116.445236, 38.178833, 13.767913, 100.802499
1759259120.453271, 5.982511, 3.615843, -3.741539, -1.010214, -0.392206, -1.958282, 29.318024, -116.375732, 38.993835, 13.767913, 100.802499
1759259120.473717, 6.403741, 7.513454, -4.304475, -0.474841, -0.607711, -1.963781, 28.196503, -116.945068, 39.297409, 13.767913, 100.802499
1759259120.493727, 6.576273, 8.272266, -5.206341, 0.044098, -0.349102, -1.435642, 27.510742, -117.269165, 39.763412, 13.767913, 100.802499
1759259120.513735, 6.100725, 6.184672, -3.955670, -0.045341, -0.038216, -1.307483, 27.177444, -117.523102, 40.055344, 13.767913, 100.802499
1759259120.533724, 5.719448, 4.597166, -1.346589, -0.123092, -0.421287, -1.844901, 26.312668, -118.227371, 40.102692, 13.767913, 100.802499
1759259120.553131, 6.535273, 5.444714, -2.699911, -0.334426, -0.834876, -2.489976, 24.796783, -118.952621, 40.517761, 13.767913, 100.802499
1759259120.573721, 6.842179, 8.349030, -3.822642, -1.099973, -1.017444, -2.534829, 23.373901, -119.681854, 40.896637, 13.767913, 100.802499
1759259120.593756, 5.898565, 9.799467, -5.176114, -1.256036, -0.752333, -2.085519, 22.012253, -119.697144, 41.654175, 13.767913, 100.802499
1759259120.613741, 5.305252, 9.064447, -4.874295, -0.667449, -0.317615, -1.799879, 21.175797, -120.068726, 42.497269, 13.767913, 100.802499
1759259120.633696, 4.704008, 7.590517, -3.544466, -0.147331, -0.294244, -1.769380, 20.327179, -120.646408, 42.696350, 13.767913, 100.802499
1759259120.652974, 4.196886, 5.698350, -0.793827, 0.258378, -1.050102, -2.325059, 18.776581, -121.879990, 43.205627, 13.767913, 100.802499
1759259120.673737, 3.188478, 5.325303, 0.198120, 0.302494, -2.561861, -3.240330, 16.367920, -123.792908, 44.023773, 13.767913, 100.802499
1759259120.693750, 1.496675, 6.958747, -2.372803, -0.304026, -3.535775, -4.356397, 13.080887, -126.438568, 46.064636, 13.767913, 100.802499
1759259120.713722, -2.151938, 9.971700, -2.085499, -1.904852, -4.404564, -4.377978, 9.750748, -128.219757, 49.241302, 13.767913, 100.802499
1759259120.733554, 0.335338, 9.754576, -1.068263, -4.268635, -5.746068, -3.614665, 5.917831, -128.516586, 53.959854, 13.767913, 100.802499
1759259120.752824, 1.013645, 7.370849, -0.140360, -5.373779, -6.522593, -2.759887, 2.560974, -128.378006, 59.644638, 13.767913, 100.802499
1759259120.773722, -1.260547, 6.533926, -3.688866, -5.378709, -5.543459, -1.640798, 0.531784, -127.953506, 64.358215, 13.767913, 100.802499
1759259120.793752, -0.879121, 5.096058, -4.504990, -3.513926, -0.367935, -1.519650, 0.082214, -128.325989, 65.145935, 13.767913, 100.802499
1759259120.813480, -0.339827, 3.651158, -0.290746, -2.636680, 0.916244, -1.468169, 0.131668, -129.049194, 65.151886, 13.767913, 100.802499
1759259120.833402, -1.530344, 5.332486, 0.535104, -2.696949, 0.209805, -1.377642, -0.055786, -129.604813, 65.003174, 13.767913, 100.802499
1759259120.853743, -4.024653, 12.666823, 2.032228, -2.388082, 0.512306, -0.373930, 0.256439, -129.361542, 64.713531, 13.767913, 100.802499
1759259120.873723, -4.267515, 18.119318, 7.826945, -1.935542, -0.862980, 1.055157, 0.838974, -128.425858, 66.315948, 13.767913, 100.802499
1759259120.893748, -6.562507, 28.590808, 9.771036, -1.626233, -2.710442, 2.034895, 0.426514, -126.292542, 68.908203, 13.767913, 100.802499
1759259120.913128, -3.378817, 15.629049, 0.367211, -1.646341, -2.268601, 0.880181, -0.223892, -125.141495, 70.519012, 13.767913, 100.802499
1759259120.933259, -3.506907, 8.275408, -4.952855, 0.554012, 2.092431, -0.233868, 0.389832, -125.375839, 68.020844, 13.767913, 100.802499
1759259120.953748, -3.642179, 8.714295, 0.204106, 1.794051, 4.023384, -0.400732, 1.158432, -126.165787, 63.951553, 13.767913, 100.802499
1759259120.973723, -2.302623, 7.646631, 3.483264, 1.519097, 3.036424, -0.084343, 1.963043, -126.360931, 62.431656, 13.767913, 100.802499
1759259120.993730, -3.621230, 9.553613, 2.412906, 0.444171, 0.470880, 0.045473, 1.898071, -126.334778, 62.041183, 13.767913, 100.802499
1759259121.012973, -3.170671, 9.108740, -1.950975, 0.003695, 0.160371, 0.034878, 2.244553, -126.319168, 62.401978, 13.767913, 100.802499
1759259121.033114, -3.351882, 9.666440, 0.046537, -0.193631, 1.046939, 0.118282, 2.520264, -126.259308, 60.951553, 13.767913, 100.802499
1759259121.053751, -3.018639, 9.005790, 1.189020, -0.679666, 1.078359, 0.075231, 2.913177, -126.032104, 60.058197, 13.767913, 100.802499
1759259121.073749, -1.769016, 8.339902, 1.783680, -1.033480, 0.858203, -0.068647, 3.407501, -125.694153, 59.662842, 13.767913, 100.802499
1759259121.093736, -2.505981, 10.047567, 2.636615, -1.111766, 0.523998, -0.302443, 3.527573, -125.639786, 59.024094, 13.767913, 100.802499
1759259121.113743, -2.486079, 9.994445, 1.375618, -0.915559, 0.175845, 0.017023, 3.533127, -125.232559, 59.471985, 13.767913, 100.802499
1759259121.132957, -1.782184, 9.387964, 0.630274, -0.459954, 0.454529, 0.479903, 3.690720, -124.743683, 59.149765, 13.767913, 100.802499
1759259121.153756, -1.104924, 9.177574, 0.774075, -0.228664, 1.013537, 0.880637, 4.364120, -124.131866, 58.340683, 13.767913, 100.802499
1759259121.173748, -0.505925, 8.911069, 1.392827, -0.223882, 1.640542, 1.030686, 5.284348, -123.143234, 57.663956, 13.767913, 100.802499
1759259121.193753, -0.340276, 8.631995, 2.012177, -0.176981, 2.218099, 1.088570, 6.460052, -122.224106, 55.465454, 13.767913, 100.802499
1759259121.213750, -0.583287, 9.076867, 2.654721, 0.084997, 2.356004, 1.124182, 7.891373, -121.416763, 53.544632, 13.767913, 100.802499
1759259121.232811, -1.090708, 9.557952, 2.634819, 0.259155, 2.017950, 1.104669, 9.293640, -120.583206, 52.134720, 13.767913, 100.802499
1759259121.253388, -1.090110, 9.687389, 2.399738, 0.406328, 1.552635, 0.896010, 10.368881, -120.389801, 50.950882, 13.767913, 100.802499
1759259121.273747, -1.100884, 9.753229, 1.793556, 0.474247, 1.262405, 0.724833, 11.220413, -120.215210, 50.676590, 13.767913, 100.802499
1759259121.293754, -1.165378, 9.667637, 1.242591, 0.458811, 1.154168, 0.662795, 12.088211, -119.816650, 49.463074, 13.767913, 100.802499
1759259121.313749, -1.013196, 9.511565, 0.935085, 0.481198, 1.193684, 0.722120, 12.998444, -119.698578, 48.639755, 13.767913, 100.802499
1759259121.333453, -0.784400, 9.565883, 0.928501, 0.468147, 1.254507, 0.843757, 14.032227, -119.405396, 47.951492, 13.767913, 100.802499
1759259121.353754, -0.456694, 9.491214, 0.988356, 0.362567, 1.373459, 0.945441, 15.126236, -118.886826, 46.413940, 13.767913, 100.802499
1759259121.373749, -0.220117, 9.356390, 1.101033, 0.223334, 1.438580, 0.947160, 16.300720, -118.549423, 46.471222, 13.767913, 100.802499
1759259121.393756, -0.154276, 9.566781, 1.074847, 0.128621, 1.435204, 0.975706, 17.533493, -117.977448, 44.754715, 13.767913, 100.802499
1759259121.413755, -0.009876, 9.743054, 1.129614, 0.185680, 1.453069, 0.905685, 18.903671, -117.758682, 43.969635, 13.767913, 100.802499
1759259121.433295, 0.010475, 9.719112, 0.955436, 0.332757, 1.484017, 0.672769, 20.177429, -117.545853, 43.801407, 13.767913, 100.802499
1759259121.453095, -0.148889, 9.765200, 0.847098, 0.465276, 1.506984, 0.474584, 21.427979, -117.691727, 42.482208, 13.767913, 100.802499
1759259121.472905, -0.099509, 9.506028, 0.733075, 0.474172, 1.496128, 0.351498, 22.598007, -117.775177, 42.004456, 13.767913, 100.802499
1759259121.493756, -0.114173, 9.683798, 0.570119, 0.446078, 1.427680, 0.296642, 23.874222, -117.898224, 40.873917, 13.767913, 100.802499
1759259121.513743, -0.197971, 9.719262, 0.390405, 0.385551, 1.348089, 0.335611, 24.764252, -117.768738, 39.999847, 13.767913, 100.802499
1759259121.533159, -0.045789, 9.583989, 0.407164, 0.348798, 1.303897, 0.275997, 25.535721, -118.126862, 40.004456, 13.767913, 100.802499
1759259121.553760, 0.120159, 10.056844, 0.446369, 0.350102, 1.106825, 0.252877, 26.717056, -118.439011, 39.437698, 13.767913, 100.802499
1759259121.573756, 0.196474, 9.689933, 0.084246, 0.312992, 0.991638, 0.229004, 27.703690, -118.540207, 39.769608, 13.767913, 100.802499
1759259121.593757, 0.532111, 9.399187, -0.049979, 0.248859, 1.056842, 0.186386, 28.390961, -118.901215, 38.696457, 13.767913, 100.802499
1759259121.613775, 0.790984, 9.563639, -0.007332, 0.157375, 1.125826, 0.198076, 29.409576, -118.892334, 39.054398, 13.767913, 100.802499
1759259121.633740, 0.672022, 9.795278, 0.104597, 0.123412, 1.205061, 0.227940, 30.291367, -118.986633, 37.945023, 13.767913, 100.802499
1759259121.653772, 0.423624, 10.061483, 0.187945, 0.134475, 1.140343, 0.206878, 31.504120, -119.130463, 37.136658, 13.767913, 100.802499
1759259121.673769, 0.525228, 9.869348, 0.016759, 0.160046, 1.045830, 0.132379, 32.223846, -119.218430, 37.822418, 13.767913, 100.802499
1759259121.693758, 0.825401, 9.736919, -0.114473, 0.231399, 1.064070, 0.134204, 33.190659, -119.311951, 37.165604, 13.767913, 100.802499
1759259121.713765, 1.069460, 9.353098, 0.057760, 0.233463, 1.033403, 0.188890, 34.126129, -119.495117, 36.826324, 13.767913, 100.802499
1759259121.733741, 1.389236, 8.935909, 0.121356, 0.176788, 0.919944, 0.235642, 34.718323, -119.591461, 36.399277, 13.767913, 100.802499
1759259121.753768, 1.851765, 8.947730, -0.057910, 0.065203, 0.787381, 0.260975, 35.490997, -119.632095, 36.320755, 13.767913, 100.802499
1759259121.773761, 2.199822, 9.194782, -0.358681, -0.031167, 0.635230, 0.243825, 36.422592, -119.331192, 36.680176, 13.767913, 100.802499
1759259121.793772, 2.354099, 9.387665, -0.433650, -0.045665, 0.560437, 0.168058, 36.872604, -119.327087, 35.909454, 13.767913, 100.802499
1759259121.813765, 2.418443, 9.442582, -0.100856, -0.026023, 0.425710, 0.082436, 37.191452, -119.099289, 36.391968, 13.767913, 100.802499
1759259121.833740, 2.111387, 9.762657, 0.295684, -0.026105, 0.079230, 0.025364, 37.035461, -118.940964, 36.527191, 13.767913, 100.802499
1759259121.853056, 1.538574, 9.860071, 0.542736, -0.047132, -0.421027, 0.105173, 36.564270, -118.960541, 36.486801, 13.767913, 100.802499
1759259121.873758, 1.040580, 9.774777, 0.540341, -0.092610, -0.890644, 0.117155, 35.734985, -118.914185, 37.125061, 13.767913, 100.802499
1759259121.893772, 0.715417, 9.762208, 0.504129, -0.142272, -1.207864, 0.106823, 34.721954, -118.781235, 36.741318, 13.767913, 100.802499
1759259121.913563, 0.570119, 9.809942, 0.429310, -0.168986, -1.357129, 0.103529, 33.606247, -118.626999, 36.969727, 13.767913, 100.802499
1759259121.933736, 0.414047, 9.781960, 0.303914, -0.173333, -1.337132, 0.078201, 32.592133, -118.493362, 37.925934, 13.767913, 100.802499
1759259121.953803, 0.291494, 9.629629, 0.191536, -0.152708, -1.113110, 0.061380, 31.804489, -118.088608, 37.825241, 13.767913, 100.802499
1759259121.973761, 0.291644, 9.492112, 0.179415, -0.102037, -0.744304, 0.058799, 31.345459, -118.201569, 38.414307, 13.767913, 100.802499
1759259121.993760, 0.288202, 9.579650, 0.279074, -0.053078, -0.299608, 0.082671, 31.335724, -118.046982, 37.780075, 13.767913, 100.802499
1759259122.013763, 0.250344, 9.596708, 0.502633, -0.050893, 0.053952, 0.097560, 31.561966, -117.833328, 37.492355, 13.767913, 100.802499
1759259122.033738, 0.207248, 9.638457, 0.711527, -0.092390, 0.225430, 0.083025, 31.799316, -117.600616, 38.048676, 13.767913, 100.802499
1759259122.053767, 0.208894, 9.789292, 0.774375, -0.112925, 0.238863, 0.030611, 31.882172, -118.029068, 37.520233, 13.767904, 100.802502
1759259122.073189, 0.356736, 9.906159, 0.556502, -0.051705, 0.146579, -0.004291, 32.121567, -118.017120, 38.314835, 13.767904, 100.802502
1759259122.093763, 0.536152, 9.854085, 0.294038, 0.042820, 0.081658, -0.000028, 32.176773, -118.021378, 37.897034, 13.767904, 100.802502
1759259122.113759, 0.613065, 9.744700, 0.190638, 0.038859, 0.098331, -0.001221, 32.248596, -118.211792, 38.577896, 13.767904, 100.802502
1759259122.133747, 0.587627, 9.672874, 0.166098, -0.023373, 0.141637, -0.012216, 32.338394, -118.202896, 37.671402, 13.767904, 100.802502
1759259122.153767, 0.684891, 9.612420, 0.084096, -0.016477, 0.174725, -0.048554, 32.275467, -118.200211, 37.744995, 13.767904, 100.802502
1759259122.173783, 0.944961, 9.429863, -0.038756, 0.053915, 0.236240, -0.060812, 32.547119, -118.189377, 37.933777, 13.767904, 100.802502
1759259122.193771, 1.246631, 9.383475, -0.052373, 0.076609, 0.335285, -0.057597, 33.060074, -118.238937, 37.441284, 13.767904, 100.802502
1759259122.213768, 1.463905, 9.546131, -0.010924, 0.034573, 0.419514, -0.039310, 33.240326, -118.400497, 37.662201, 13.767904, 100.802502
1759259122.233741, 1.594089, 9.661950, -0.020351, 0.016671, 0.449921, 0.007986, 33.690430, -118.251587, 36.908920, 13.767904, 100.802502
1759259122.253774, 1.738789, 9.707141, 0.040103, 0.057925, 0.442269, 0.061239, 33.959167, -118.115234, 37.048477, 13.767904, 100.802502
1759259122.273771, 1.692102, 9.786299, 0.162806, 0.077773, 0.370280, 0.079478, 34.491211, -118.249420, 38.546371, 13.767904, 100.802502
1759259122.293800, 1.274015, 9.886706, 0.263213, 0.054710, 0.198740, 0.129021, 34.527832, -118.417603, 37.492355, 13.767904, 100.802502
1759259122.313767, 0.862362, 9.657312, 0.199766, 0.052520, -0.022555, 0.131877, 34.513168, -118.394165, 36.912674, 13.767904, 100.802502
1759259122.333743, 0.560991, 9.620950, 0.147842, 0.032054, -0.186006, 0.092476, 34.327164, -118.068375, 37.585205, 13.767904, 100.802502
1759259122.353776, 0.443526, 9.536255, 0.180164, -0.016488, -0.244139, 0.051710, 34.004852, -118.111725, 37.218384, 13.767904, 100.802502
1759259122.373772, 0.518943, 9.460837, 0.225354, -0.019168, -0.185150, 0.002279, 34.102707, -118.128815, 37.881897, 13.767904, 100.802502
1759259122.393778, 0.717512, 9.493309, 0.347459, 0.007645, -0.017544, -0.036591, 33.991638, -118.170441, 36.825546, 13.767904, 100.802502
1759259122.413792, 0.973991, 9.615114, 0.494403, 0.009688, 0.174891, -0.050604, 34.138855, -118.113098, 36.885956, 13.767904, 100.802502
1759259122.433745, 1.144129, 9.724948, 0.490961, -0.017332, 0.358218, -0.023756, 34.465179, -117.904831, 37.498352, 13.767904, 100.802502
1759259122.453780, 1.239897, 9.695020, 0.281169, 0.022102, 0.453107, 0.007367, 34.862473, -117.874191, 37.620270, 13.767904, 100.802502
1759259122.473752, 1.235109, 9.629629, -0.093823, 0.064939, 0.566106, 0.046753, 35.480286, -118.005936, 37.567383, 13.767904, 100.802502
1759259122.492956, 1.184382, 9.512163, -0.152032, 0.061805, 0.608784, 0.050015, 35.745026, -117.840134, 36.894302, 13.767904, 100.802502
1759259122.513467, 1.128866, 9.481487, 0.102352, 0.037202, 0.600558, 0.048001, 36.191299, -118.060150, 37.276413, 13.767904, 100.802502
1759259122.533746, 1.141286, 9.570821, 0.285957, 0.054891, 0.366255, 0.034344, 36.687820, -118.213699, 36.619781, 13.767904, 100.802502
1759259122.553764, 1.156998, 9.677213, 0.225205, 0.062884, 0.215866, 0.015473, 36.899368, -118.142487, 36.540634, 13.767904, 100.802502
1759259122.573761, 1.054197, 9.824008, 0.095020, 0.019351, 0.150101, 0.019619, 37.072510, -118.425079, 37.093796, 13.767904, 100.802502
1759259122.593754, 0.874033, 9.787796, -0.171485, -0.013649, 0.170004, 0.043540, 37.118347, -118.386749, 36.915619, 13.767904, 100.802502
1759259122.613760, 0.925808, 9.725546, -0.068085, 0.020866, 0.319063, 0.023952, 37.545441, -118.464767, 37.131195, 13.767904, 100.802502
1759259122.633122, 0.957980, 9.442282, 0.280271, 0.043819, 0.396666, -0.010766, 37.673721, -118.473816, 36.199310, 13.767904, 100.802502
1759259122.653762, 1.065869, 9.375843, 0.475399, 0.032615, 0.313549, -0.036952, 37.951614, -118.585922, 36.100082, 13.767904, 100.802502
1759259122.673768, 1.312471, 9.446023, 0.377985, 0.020752, 0.189554, -0.044633, 38.158234, -118.653549, 36.276642, 13.767904, 100.802502
1759259122.693701, 1.451485, 9.662399, 0.196025, 0.001602, 0.116681, -0.025786, 38.312500, -118.581665, 36.148346, 13.767904, 100.802502
1759259122.713771, 1.512088, 9.683349, 0.091728, -0.002448, 0.087746, 0.004954, 38.324280, -118.588562, 36.727158, 13.767904, 100.802502
1759259122.733231, 1.452383, 9.529970, 0.036811, 0.020009, 0.064059, 0.021070, 38.561172, -118.672562, 35.968109, 13.767904, 100.802502
1759259122.753774, 1.336413, 9.536853, 0.060154, -0.006135, 0.048182, 0.030259, 38.465591, -118.580109, 36.050751, 13.767904, 100.802502
1759259122.773770, 1.266233, 9.548675, 0.345214, -0.026142, -0.018899, 0.032181, 38.521011, -118.499588, 36.771103, 13.767904, 100.802502
1759259122.793563, 1.183334, 9.450961, 0.273687, -0.030147, -0.133371, 0.012197, 38.339890, -118.310944, 36.294388, 13.767904, 100.802502
1759259122.813702, 1.135600, 9.609128, 0.110283, -0.041995, -0.133118, 0.035266, 38.127869, -118.281891, 35.890747, 13.767904, 100.802502
1759259122.832946, 0.999579, 9.829993, 0.039355, -0.074069, -0.076903, 0.047991, 38.084167, -118.249344, 36.448685, 13.767904, 100.802502
1759259122.853779, 0.854880, 9.894637, 0.068833, -0.059718, -0.018257, 0.040222, 38.211105, -118.282379, 36.234924, 13.767904, 100.802502
1759259122.873774, 0.872387, 9.605387, 0.041001, -0.010549, 0.031722, 0.020390, 38.149582, -118.200790, 36.643265, 13.767904, 100.802502
1759259122.893402, 1.012897, 9.536255, 0.150087, 0.011657, 0.080829, -0.017129, 38.265671, -118.075241, 35.940323, 13.767904, 100.802502
1759259122.913590, 1.149217, 9.579350, 0.383521, -0.008450, 0.051285, -0.036978, 38.226837, -118.182892, 36.024582, 13.767904, 100.802502
1759259122.933751, 1.214908, 9.514857, 0.464026, -0.028442, -0.049426, -0.037530, 38.207672, -118.061310, 36.610550, 13.767904, 100.802502
1759259122.953775, 1.267879, 9.505280, 0.409109, -0.043459, -0.125621, -0.041032, 38.015366, -118.039795, 36.475006, 13.767904, 100.802502
1759259122.973757, 1.351676, 9.510218, 0.304662, -0.068733, -0.157035, -0.025401, 37.804352, -117.978943, 37.071640, 13.767904, 100.802502
1759259122.993264, 1.390582, 9.594614, 0.285359, -0.087660, -0.163134, -0.013577, 37.685150, -117.799316, 36.187790, 13.767904, 100.802502
1759259123.013392, 1.291223, 9.621997, 0.387412, -0.071777, -0.181955, 0.019427, 37.661011, -117.668716, 36.336166, 13.767904, 100.802502
1759259123.033752, 1.139790, 9.655067, 0.464325, -0.076326, -0.238186, 0.028238, 37.402359, -117.446747, 36.791962, 13.767903, 100.802501
1759259123.053766, 0.975338, 9.635315, 0.454300, -0.093557, -0.287605, 0.025152, 37.222733, -117.469315, 36.280838, 13.767903, 100.802501
1759259123.073772, 0.872387, 9.591920, 0.309151, -0.091385, -0.276677, 0.023453, 37.168106, -117.788315, 37.023407, 13.767903, 100.802501
1759259123.093110, 0.841861, 9.630527, 0.171634, -0.065256, -0.191676, 0.023538, 37.100357, -117.790771, 36.827927, 13.767903, 100.802501
1759259123.113245, 0.907253, 9.637410, 0.161309, -0.030523, -0.050744, 0.013959, 37.041046, -117.814011, 37.272598, 13.767903, 100.802501
1759259123.133754, 1.003170, 9.643695, 0.334141, -0.004753, 0.071799, 0.008066, 37.122284, -117.643814, 36.956894, 13.767903, 100.802501
1759259123.153801, 1.070208, 9.668684, 0.585831, 0.013385, 0.088904, 0.020983, 37.205795, -117.856506, 36.839355, 13.767903, 100.802501
1759259123.173778, 1.071705, 9.700557, 0.627430, 0.014543, 0.014357, 0.038730, 37.204758, -117.851395, 37.029831, 13.767903, 100.802501
1759259123.192961, 0.988356, 9.647735, 0.570867, 0.001185, -0.070136, 0.054073, 37.036255, -117.943726, 36.719971, 13.767903, 100.802501
1759259123.213105, 0.908749, 9.584289, 0.516699, -0.005165, -0.115476, 0.055710, 37.008636, -117.790344, 37.474289, 13.767903, 100.802501
1759259123.233272, 0.888548, 9.541791, 0.503680, 0.008295, -0.116977, 0.031750, 36.848907, -117.752716, 36.614807, 13.767903, 100.802501
1759259123.253173, 0.840215, 9.566033, 0.540641, 0.014052, -0.098613, 0.012330, 36.839691, -117.885406, 36.481979, 13.767903, 100.802501
1759259123.273317, 0.843208, 9.529671, 0.540042, -0.018128, -0.089678, -0.010919, 36.807556, -117.620453, 37.085175, 13.767903, 100.802501
1759259123.292807, 0.957531, 9.465177, 0.557400, -0.041109, -0.097565, -0.045065, 36.687851, -117.668747, 36.706924, 13.767903, 100.802501
1759259123.312968, 1.021426, 9.503484, 0.412850, -0.045008, -0.100759, -0.056418, 36.463058, -117.625351, 36.489349, 13.767903, 100.802501
1759259123.333495, 1.108815, 9.542091, 0.261716, -0.066606, -0.050380, -0.052217, 36.568237, -117.475235, 36.925919, 13.767903, 100.802501
1759259123.353792, 1.200991, 9.542989, 0.266953, -0.074510, 0.011564, -0.056260, 36.496948, -117.435852, 36.919693, 13.767903, 100.802501
1759259123.373814, 1.259500, 9.603292, 0.264260, -0.068941, 0.040474, -0.060734, 36.457092, -117.309937, 37.433517, 13.767903, 100.802501
1759259123.393786, 1.319205, 9.585785, 0.279074, -0.090256, 0.042444, -0.045327, 36.714645, -117.273682, 36.643616, 13.767903, 100.802501
1759259123.412801, 1.351078, 9.619902, 0.389507, -0.130392, -0.004553, -0.045740, 36.625748, -117.094925, 36.748138, 13.767903, 100.802501
1759259123.433770, 1.273266, 9.695170, 0.383820, -0.189458, -0.088602, -0.036745, 36.412918, -116.794403, 37.145218, 13.767903, 100.802501
1759259123.453811, 1.143830, 9.654020, 0.419883, -0.185595, -0.188282, -0.028188, 36.278580, -116.598175, 37.064346, 13.767903, 100.802501
1759259123.473780, 0.976984, 9.588029, 0.268599, -0.118054, -0.280219, -0.011637, 36.045914, -116.547913, 37.767181, 13.767903, 100.802501
1759259123.493788, 0.961721, 9.717017, -0.003591, -0.111534, -0.261901, -0.023228, 35.701340, -116.374115, 37.228180, 13.767903, 100.802501
1759259123.513705, 1.009006, 9.827450, 0.121955, -0.072546, -0.182470, -0.027964, 35.524353, -116.523361, 36.908737, 13.767903, 100.802501
1759259123.533055, 1.089362, 9.739762, 0.268001, 0.021643, -0.126487, -0.009876, 35.302460, -116.304657, 37.607712, 13.767903, 100.802501
1759259123.553785, 1.106570, 9.640702, 0.475099, 0.018459, -0.084505, 0.013752, 35.360489, -116.189209, 37.236832, 13.767903, 100.802501
1759259123.573767, 1.085172, 9.523536, 0.650624, -0.033079, -0.081079, 0.030716, 35.367569, -116.187454, 37.891785, 13.767903, 100.802501
1759259123.593789, 1.119289, 9.510667, 0.726790, -0.042974, -0.085579, 0.022923, 35.429230, -116.742325, 37.681168, 13.767903, 100.802501
1759259123.613601, 1.089661, 9.583241, 0.733374, -0.031627, -0.105235, 0.026910, 35.303253, -116.774765, 38.304642, 13.767903, 100.802501
1759259123.633439, 1.107767, 9.552116, 0.682198, -0.033952, -0.096232, 0.028647, 35.259659, -116.684113, 37.334396, 13.767903, 100.802501
1759259123.653689, 1.130063, 9.619154, 0.624587, -0.043061, -0.034858, 0.025101, 35.177109, -116.814545, 37.751648, 13.767903, 100.802501
1759259123.673788, 1.189320, 9.655666, 0.606182, -0.048882, 0.061594, 0.021801, 35.266510, -116.806641, 38.143906, 13.767903, 100.802501
1759259123.693783, 1.295413, 9.599402, 0.622792, -0.031720, 0.165885, 0.030137, 35.446396, -116.625046, 37.612869, 13.767903, 100.802501
1759259123.713415, 1.333570, 9.527277, 0.697910, -0.021139, 0.200301, 0.046923, 35.762314, -116.674301, 38.104492, 13.767903, 100.802501
1759259123.733775, 1.315315, 9.471162, 0.738761, -0.026657, 0.161536, 0.056980, 35.933304, -116.533722, 37.421677, 13.767903, 100.802501
1759259123.753791, 1.287781, 9.464429, 0.798466, -0.026337, 0.070720, 0.055912, 35.869888, -116.526520, 37.560562, 13.767903, 100.802501
1759259123.773787, 1.290774, 9.500641, 0.738013, -0.009680, -0.049000, 0.043577, 35.740143, -116.621094, 37.981155, 13.767903, 100.802501
1759259123.793796, 1.306785, 9.667188, 0.613065, -0.004609, -0.114116, 0.032145, 35.582153, -116.555038, 37.543976, 13.767903, 100.802501
1759259123.813246, 1.256956, 9.747842, 0.630872, -0.005932, -0.115863, 0.037760, 35.651443, -116.530487, 37.403778, 13.767903, 100.802501
1759259123.833763, 1.187823, 9.694721, 0.741155, 0.021236, -0.118862, 0.041534, 35.469833, -116.487259, 37.306137, 13.767903, 100.802501
1759259123.853506, 1.086968, 9.590573, 0.753276, 0.052918, -0.120506, 0.051735, 35.228302, -116.444199, 37.586853, 13.767903, 100.802501
1759259123.873790, 0.983269, 9.517849, 0.792780, 0.069252, -0.107508, 0.073606, 35.312302, -116.325745, 38.280945, 13.767903, 100.802501
1759259123.893452, 0.881515, 9.540594, 0.799813, 0.068970, -0.083211, 0.092262, 35.355820, -116.439041, 37.588028, 13.767903, 100.802501
1759259123.913300, 0.818817, 9.668684, 0.813280, 0.061850, -0.038203, 0.080486, 35.393570, -116.419205, 37.568420, 13.767903, 100.802501
1759259123.932887, 0.796371, 9.691429, 0.854580, 0.046276, 0.002898, 0.049945, 35.252243, -116.448212, 37.854965, 13.767903, 100.802501
1759259123.953793, 0.803404, 9.559748, 0.888698, 0.020218, -0.002733, 0.037975, 35.333923, -116.375320, 37.184769, 13.767903, 100.802501
1759259123.973791, 0.899771, 9.427618, 0.820762, -0.003295, -0.029936, 0.023465, 35.367874, -116.373169, 38.022675, 13.767903, 100.802501
1759259123.993778, 1.045219, 9.513959, 0.698059, -0.045082, -0.024131, -0.009880, 35.389938, -116.254868, 37.470383, 13.767903, 100.802501
1759259124.012912, 1.251419, 9.574412, 0.597353, -0.071710, 0.025336, -0.020368, 35.581909, -116.050659, 37.535950, 13.767903, 100.802501
1759259124.032965, 1.421857, 9.572766, 0.465373, -0.065110, 0.124496, -0.016067, 35.639938, -115.963486, 38.132050, 13.767904, 100.802501
1759259124.053790, 1.545008, 9.565135, 0.388010, -0.071874, 0.248069, -0.006238, 35.874283, -115.766098, 37.577759, 13.767904, 100.802501
1759259124.073776, 1.591994, 9.483134, 0.497695, -0.079872, 0.323612, 0.010480, 36.101501, -115.712036, 37.577759, 13.767904, 100.802501
1759259124.093429, 1.599776, 9.628881, 0.595558, -0.071848, 0.315396, 0.025742, 36.070969, -116.343140, 37.633163, 13.767904, 100.802501
1759259124.113805, 1.495927, 9.748591, 0.681899, -0.060130, 0.224703, 0.057015, 36.474884, -116.255005, 38.227417, 13.767904, 100.802501
1759259124.133767, 1.282394, 9.595062, 0.681599, -0.035775, 0.068722, 0.078416, 36.509750, -116.318100, 37.457153, 13.767904, 100.802501
1759259124.153795, 1.067664, 9.479393, 0.659902, -0.005347, -0.074603, 0.080149, 36.517700, -116.323166, 37.652512, 13.767904, 100.802501
1759259124.173796, 0.959476, 9.513660, 0.668880, 0.016892, -0.171243, 0.062420, 36.476501, -116.388412, 37.911346, 13.767904, 100.802501
1759259124.193801, 0.956035, 9.602395, 0.693870, 0.045924, -0.215540, 0.040400, 36.174942, -116.276001, 37.828568, 13.767904, 100.802501
1759259124.213791, 0.970250, 9.655366, 0.643142, 0.065035, -0.194906, 0.027692, 36.101959, -116.337479, 38.215179, 13.767904, 100.802501
1759259124.233006, 0.920122, 9.558850, 0.626233, 0.020218, -0.085661, 0.011315, 36.110245, -116.367416, 37.608154, 13.767904, 100.802501
1759259124.253793, 0.928950, 9.396942, 0.654365, 0.022849, -0.039279, -0.010418, 36.066360, -116.427307, 37.106583, 13.767904, 100.802501
1759259124.273793, 1.032799, 9.489867, 0.656909, 0.038028, 0.047029, -0.034100, 35.916855, -116.353165, 37.983719, 13.767904, 100.802501
1759259124.293797, 1.206229, 9.650428, 0.582390, 0.013808, 0.122019, -0.039527, 36.086258, -116.585983, 37.427704, 13.767904, 100.802501
1759259124.313796, 1.334767, 9.725995, 0.490512, -0.021161, 0.189178, -0.046672, 36.148544, -116.452637, 37.204575, 13.767904, 100.802501
1759259124.332839, 1.467496, 9.553762, 0.365116, 0.012102, 0.252713, -0.039555, 36.165558, -116.368591, 37.310684, 13.767904, 100.802501
1759259124.353780, 1.466598, 9.348609, 0.439486, 0.062365, 0.302938, -0.034848, 36.618637, -116.421249, 38.008942, 13.767904, 100.802501
1759259124.373796, 1.345242, 9.285462, 0.738611, 0.029006, 0.208626, -0.007381, 36.692230, -116.332062, 38.284470, 13.767904, 100.802501
1759259124.393796, 1.272518, 9.300725, 0.858621, -0.031387, -0.016675, 0.000002, 36.851410, -116.284409, 37.450317, 13.767904, 100.802501
1759259124.413792, 1.198597, 9.668385, 0.608127, -0.065714, -0.210329, 0.006768, 36.701019, -116.353119, 37.213242, 13.767904, 100.802501
1759259124.433774, 1.214908, 9.983372, 0.114024, -0.068934, -0.216644, -0.002228, 36.319000, -116.135330, 37.639053, 13.767904, 100.802501
1759259124.453873, 1.200991, 9.829844, 0.050727, -0.020033, -0.062397, -0.001105, 36.584991, -116.210892, 37.509811, 13.767904, 100.802501
1759259124.473582, 1.003919, 9.468319, 0.491859, -0.034994, 0.013656, -0.003359, 36.562668, -115.935516, 38.574432, 13.767904, 100.802501
1759259124.493797, 0.826897, 9.287856, 0.827795, -0.102234, -0.071496, -0.012681, 36.263123, -115.812775, 37.777435, 13.767904, 100.802501
1759259124.513671, 0.777966, 9.327061, 0.965462, -0.142259, -0.224068, -0.032380, 35.971649, -115.760651, 38.041702, 13.767904, 100.802501
1759259124.533777, 0.800561, 9.567230, 0.840365, -0.141764, -0.353423, -0.031443, 35.829559, -115.495712, 38.229019, 13.767904, 100.802501
1759259124.553800, 0.798766, 9.645341, 0.678457, -0.144019, -0.386207, -0.026552, 35.502350, -115.195068, 37.774002, 13.767904, 100.802501
1759259124.573786, 0.812383, 9.564237, 0.490811, -0.139589, -0.314022, -0.015119, 35.309769, -115.103760, 38.832367, 13.767904, 100.802501
1759259124.593608, 0.858621, 9.505579, 0.406865, -0.126595, -0.187184, -0.018433, 35.145432, -114.961227, 37.739624, 13.767904, 100.802501
1759259124.613557, 0.935534, 9.286510, 0.566528, -0.095315, -0.075073, -0.037611, 35.403519, -115.570984, 38.874695, 13.767904, 100.802501
1759259124.633774, 1.315464, 8.840290, 0.542436, 0.035999, -0.026457, -0.136279, 35.150330, -115.886978, 37.938324, 13.767904, 100.802501
1759259124.653796, 1.815403, 9.454553, 0.637007, 0.061847, -0.030248, -0.135894, 35.332932, -115.823608, 38.481888, 13.767904, 100.802501
1759259124.673327, 2.216731, 10.465355, 0.817321, 0.050928, -0.106484, -0.058682, 34.995087, -116.019028, 39.018326, 13.767904, 100.802501
1759259124.693799, 2.511069, 10.655095, 0.872387, -0.016325, -0.201260, 0.036985, 34.795273, -115.901016, 38.390762, 13.767904, 100.802501
1759259124.713415, 2.653524, 9.910648, 0.807295, -0.100143, -0.277452, 0.102611, 34.635162, -115.778397, 39.202621, 13.767904, 100.802501
1759259124.733785, 2.599504, 8.894758, 0.579846, -0.244732, -0.286078, 0.079041, 34.211578, -115.656265, 38.552505, 13.767904, 100.802501
1759259124.753799, 2.200720, 9.106196, 0.360327, -0.283119, -0.230409, 0.143900, 34.093185, -115.355652, 38.612732, 13.767904, 100.802501
1759259124.773239, 2.098518, 9.301773, 0.265756, -0.267021, -0.107043, 0.283512, 34.322769, -115.204880, 38.960785, 13.767904, 100.802501
1759259124.793804, 1.812560, 9.563339, -0.020500, -0.137430, 0.126904, 0.275446, 34.460098, -114.867630, 38.623062, 13.767904, 100.802501
1759259124.813293, 1.663072, 9.480290, 0.151733, 0.038035, 0.357337, 0.193133, 34.898972, -114.967636, 38.674011, 13.767904, 100.802501
1759259124.833779, 1.676240, 9.275287, 0.674716, -0.010265, 0.349371, 0.155659, 35.207306, -114.537277, 38.677628, 13.767904, 100.802501
1759259124.853801, 2.033276, 9.097817, 0.780809, -0.148848, 0.180842, 0.083813, 35.444916, -114.593491, 38.777069, 13.767904, 100.802501
1759259124.873806, 2.161515, 9.460239, 0.496498, -0.244500, 0.126271, 0.039902, 35.423035, -114.224762, 39.507431, 13.767904, 100.802501
1759259124.893802, 2.276437, 9.173084, 0.313341, -0.304052, 0.196425, 0.041209, 35.701767, -114.093918, 38.929413, 13.767904, 100.802501
1759259124.913175, 2.189348, 9.270947, 0.398335, -0.306364, 0.231807, 0.062400, 35.934082, -113.865067, 38.958298, 13.767904, 100.802501
1759259124.933778, 2.011578, 9.326613, 0.309600, -0.276557, 0.186833, 0.110582, 36.145798, -113.578629, 39.133774, 13.767904, 100.802501
1759259124.953788, 1.835604, 9.356690, -0.161459, -0.236928, 0.196960, 0.094767, 36.416077, -113.293808, 39.067215, 13.767904, 100.802501
1759259124.973639, 1.795801, 9.720608, -0.615459, -0.180654, 0.354223, 0.035979, 36.717178, -113.064835, 39.239365, 13.767904, 100.802501
1759259124.993783, 2.110189, 9.708338, -0.114922, -0.154419, 0.554653, -0.010009, 36.996262, -112.931046, 38.746124, 13.767904, 100.802501
1759259125.013013, 2.306364, 9.298032, 0.645836, -0.121099, 0.505382, -0.036835, 37.119492, -112.710800, 38.906464, 13.767904, 100.802501
1759259125.033779, 2.266262, 8.998308, 0.776170, -0.091472, 0.268496, -0.024078, 37.436569, -112.669296, 39.511093, 13.767904, 100.802499
1759259125.053806, 2.207005, 9.323171, 0.577302, -0.098571, 0.077197, 0.003875, 37.452759, -112.382339, 39.106293, 13.767904, 100.802499
1759259125.073806, 2.181267, 9.690082, 0.572663, -0.077112, -0.025190, 0.011734, 37.451462, -112.364609, 39.257431, 13.767904, 100.802499
1759259125.093607, 2.174534, 9.752481, 0.417489, 0.007198, 0.001405, -0.013093, 37.443375, -112.235352, 39.078262, 13.767904, 100.802499
1759259125.112872, 2.177377, 9.788095, 0.398186, 0.100424, 0.132277, -0.025211, 37.554230, -113.115677, 39.610504, 13.767904, 100.802499
1759259125.133234, 2.192341, 9.879075, 0.421529, 0.161836, 0.278865, -0.037828, 37.905304, -113.210419, 39.032242, 13.767904, 100.802499
1759259125.153829, 2.223316, 10.001628, 0.537947, 0.166008, 0.380384, -0.034479, 38.134964, -113.504517, 39.040802, 13.767904, 100.802499
1759259125.173811, 2.392855, 10.142437, 0.596605, 0.167651, 0.434085, 0.025717, 38.540497, -113.522247, 39.247101, 13.767904, 100.802499
1759259125.193471, 2.722507, 10.215460, 0.515651, 0.169027, 0.479018, 0.074342, 39.080475, -113.747437, 38.682709, 13.767904, 100.802499
1759259125.213805, 3.008763, 10.266037, 0.077812, 0.080938, 0.605838, 0.075654, 39.466171, -113.728546, 38.927689, 13.767904, 100.802499
1759259125.233789, 3.282450, 10.050859, 0.329951, -0.035334, 0.793693, -0.020235, 39.964722, -113.728226, 38.196930, 13.767904, 100.802499
1759259125.253813, 3.519925, 9.971700, 0.632069, -0.004288, 0.793325, -0.029360, 40.789963, -113.544128, 37.968231, 13.767904, 100.802499
1759259125.273812, 3.794959, 9.923367, 0.824952, 0.097360, 0.713588, -0.028894, 41.278458, -113.533432, 38.580826, 13.767904, 100.802499
1759259125.293324, 4.078373, 10.360459, 1.005415, 0.216184, 0.537467, 0.030719, 41.715286, -113.748337, 37.910919, 13.767904, 100.802499
1759259125.313811, 4.183867, 10.344597, 1.141735, 0.288506, 0.270627, 0.138814, 41.827194, -114.099747, 37.942062, 13.767904, 100.802499
1759259125.333785, 3.809025, 9.649381, 1.274164, 0.334876, -0.075973, 0.103252, 41.806396, -114.292130, 37.776535, 13.767904, 100.802499
1759259125.353875, 2.709787, 9.814282, 0.999878, 0.474050, -0.383526, 0.260140, 41.579010, -114.591232, 37.463379, 13.767904, 100.802499
1759259125.373811, 1.241094, 9.164705, -3.238307, 1.380239, -0.142223, 0.405057, 41.631592, -116.129395, 37.343933, 13.767904, 100.802499
1759259125.393175, -0.008829, 9.392154, -1.240346, 2.657668, 0.332030, 0.393962, 42.194061, -118.375320, 35.569550, 13.767904, 100.802499
1759259125.413808, -0.597054, 9.711780, -0.945111, 2.154545, 0.407853, 0.457161, 42.570251, -119.825256, 34.771912, 13.767904, 100.802499
1759259125.433790, -0.185102, 10.433632, -0.411354, 1.914290, 0.225774, 0.568919, 42.865662, -121.510818, 34.951843, 13.767904, 100.802499
1759259125.453799, 0.513556, 11.567436, 0.194978, 1.515884, 0.188398, 1.032923, 43.382767, -122.869370, 34.263367, 13.767904, 100.802499
1759259125.473808, 0.837222, 11.285967, 0.124349, 1.181738, 0.351892, 0.804873, 44.001755, -123.834290, 34.297928, 13.767904, 100.802499
1759259125.493021, 1.181539, 10.811616, 0.484975, 1.124661, 0.280976, 0.594404, 44.003525, -124.738708, 33.362808, 13.767904, 100.802499
1759259125.513793, 1.670853, 10.478523, -0.030825, 1.428886, -0.253806, 0.357649, 43.733063, -125.836472, 33.034073, 13.767904, 100.802499
1759259125.533253, 1.760337, 10.275914, -0.568324, 1.637017, -0.458771, 0.434424, 43.549149, -127.437424, 33.136261, 13.767904, 100.802499
1759259125.553798, 2.175282, 9.232191, -2.412009, 1.946758, -0.176573, 0.751046, 43.430695, -129.131866, 32.577866, 13.767904, 100.802499
1759259125.572997, 2.336442, 8.552986, -3.211223, 1.808987, 0.144087, 0.848846, 43.871933, -130.029877, 33.195312, 13.767904, 100.802499
1759259125.593000, 2.646640, 7.913285, -3.072659, 1.147138, 0.798195, 1.015089, 44.579422, -131.203506, 32.820801, 13.767904, 100.802499
1759259125.613825, 2.488024, 7.831733, -0.202909, 0.754257, 0.195235, 1.238062, 44.946213, -131.568512, 32.364105, 13.767904, 100.802499
1759259125.633472, 2.324770, 7.513603, -0.793079, 0.846208, -0.685681, 1.053959, 44.720474, -132.858047, 32.874802, 13.767904, 100.802499
1759259125.653801, 1.927781, 7.347356, -2.346168, 0.811669, -0.931683, 0.700345, 43.972977, -133.746994, 32.844513, 13.767904, 100.802499
1759259125.673824, 1.276558, 6.833351, -2.669236, 0.493013, -0.586995, 0.464312, 43.351578, -134.377533, 33.424759, 13.767904, 100.802499
1759259125.692866, 0.979079, 6.353912, -2.330456, 0.308324, -0.402175, 0.352704, 42.735092, -134.407883, 32.799637, 13.767904, 100.802499
1759259125.713362, 0.466570, 5.481076, -1.547253, -0.006532, -0.105189, -0.158155, 42.518646, -134.464813, 33.242752, 13.767904, 100.802499
1759259125.733790, 0.934786, 5.385457, -1.981202, -0.107947, -0.068684, -0.478367, 42.651352, -134.200714, 32.519226, 13.767904, 100.802499
1759259125.753813, 1.670853, 5.532252, -3.033454, -0.439737, 0.016172, -0.705881, 42.773651, -134.014099, 32.336716, 13.767904, 100.802499
1759259125.773811, 2.501941, 6.232556, -3.387795, -0.933817, 0.269252, -0.781862, 42.712860, -133.307251, 33.207321, 13.767904, 100.802499
1759259125.793510, 3.585616, 7.630770, -4.188357, -1.287277, 0.524826, -0.602689, 43.253464, -132.268616, 32.583923, 13.767904, 100.802499
1759259125.813875, 4.770148, 9.635764, -5.912182, -1.364734, 0.864924, -0.301095, 44.162170, -131.218109, 32.825882, 13.767904, 100.802499
1759259125.833789, 5.836465, 11.118673, -6.273557, -1.040522, 1.339016, 0.019891, 45.401123, -129.839447, 32.791336, 13.767904, 100.802499
1759259125.853815, 6.832902, 11.224915, -4.952705, -0.651388, 1.746882, 0.242969, 46.881195, -129.355484, 33.007401, 13.767904, 100.802499
1759259125.873815, 7.233482, 10.207380, -3.679589, -0.535805, 1.818091, 0.280190, 48.506775, -128.882751, 33.590836, 13.767904, 100.802499
1759259125.893820, 7.132177, 8.197896, -3.448847, -0.485909, 1.644043, 0.238022, 50.100128, -128.379913, 33.399200, 13.767904, 100.802499
1759259125.913803, 6.757485, 5.957372, -3.988291, -0.440293, 1.364736, 0.110644, 51.297455, -127.711212, 33.624863, 13.767904, 100.802499
1759259125.933791, 6.231059, 4.693982, -3.052158, -0.479233, 0.990096, -0.235682, 52.002121, -127.268829, 34.306671, 13.767904, 100.802499
1759259125.953812, 4.360889, 9.777171, -1.376816, -0.764249, 0.136413, -0.472804, 52.452148, -126.650360, 33.673218, 13.767904, 100.802499
1759259125.973850, 3.390489, 14.443470, 0.319476, -1.297940, -0.597296, -0.493028, 51.808899, -125.474838, 34.226685, 13.767904, 100.802499
1759259125.993208, 3.062483, 16.619800, 2.533814, -1.138237, -1.584357, -0.827371, 50.094238, -124.323639, 33.273407, 13.767904, 100.802499
1759259126.013817, 1.425298, 15.993716, 0.805948, -0.446763, -2.158326, -1.164353, 48.075531, -123.652573, 33.529984, 13.767904, 100.802499
1759259126.033794, 0.437989, 11.525836, 0.642993, -0.430649, -2.182008, -0.992261, 45.797485, -122.912003, 34.024811, 13.767899, 100.802499
1759259126.053827, 0.413748, 6.911761, 0.288950, -0.476883, -1.761489, -0.604590, 44.028198, -122.231171, 33.771774, 13.767899, 100.802499
1759259126.073452, 0.570119, 4.393959, 0.550068, -0.103446, -1.168661, -0.533501, 42.549179, -121.935944, 34.179565, 13.767899, 100.802499
1759259126.093812, 0.909946, 3.666720, 1.214459, 0.160599, -0.987217, -0.569382, 41.361053, -122.304352, 33.664932, 13.767899, 100.802499
1759259126.113820, 1.253664, 5.621436, 2.331952, 0.168287, -1.431803, -0.391245, 40.171310, -122.460220, 33.998093, 13.767899, 100.802499
1759259126.133792, 1.603666, 9.032425, 2.817526, -0.092093, -2.366253, 0.088979, 38.259903, -122.169876, 34.323700, 13.767899, 100.802499
1759259126.153822, 2.002750, 11.691635, 1.812261, -0.231117, -2.733691, 0.520269, 37.233093, -123.140213, 34.774460, 13.767899, 100.802499
1759259126.173867, 2.290503, 12.883798, 0.493505, -0.204018, -2.141539, 0.638879, 35.350586, -122.898209, 35.375229, 13.767899, 100.802499
1759259126.192913, 1.946037, 11.734132, -0.781108, -0.219753, -0.680425, 0.370353, 34.446274, -122.549973, 34.950119, 13.767899, 100.802499
1759259126.213821, 1.526304, 9.410260, -0.409857, -0.366849, 0.806393, 0.275659, 35.113174, -122.239380, 35.600327, 13.767899, 100.802499
1759259126.233379, 1.317858, 7.589320, 0.061202, -0.576416, 1.339283, 0.301264, 36.037628, -121.455292, 35.053528, 13.767899, 100.802499
1759259126.253838, 1.327286, 6.955305, 0.361824, -0.744623, 1.439369, 0.265888, 37.195328, -120.839767, 35.429031, 13.767899, 100.802499
1759259126.273813, 1.557279, 7.545476, 0.467767, -0.885881, 1.287340, 0.186456, 38.730484, -120.167877, 36.076416, 13.767899, 100.802499
1759259126.293814, 2.082058, 8.757241, 0.258424, -1.140706, 1.006034, 0.097376, 39.434814, -119.174179, 35.489929, 13.767899, 100.802499
1759259126.313686, 2.589479, 9.234286, -0.142305, -1.668354, 0.789250, -0.087762, 40.210327, -117.822311, 36.581116, 13.767899, 100.802499
1759259126.333238, 2.673725, 9.956886, 1.017536, -2.029529, 0.406745, -0.235036, 40.570908, -115.994156, 36.396698, 13.767899, 100.802499
1759259126.352881, 2.804957, 10.205584, 1.196951, -1.912801, -0.225762, -0.217196, 40.308487, -114.263580, 37.042862, 13.767899, 100.802499
1759259126.373895, 2.836979, 10.151864, -0.553210, -1.836556, -0.531786, -0.285073, 39.928207, -112.966049, 38.295822, 13.767899, 100.802499
1759259126.393819, 2.452860, 9.916484, -4.553921, -2.057171, 0.156111, -0.307979, 39.768143, -111.326904, 38.701569, 13.767899, 100.802499
1759259126.413825, 2.454655, 9.510218, -5.030517, 0.289876, 1.906513, -0.268340, 41.168396, -111.565842, 38.820862, 13.767899, 100.802499
1759259126.433803, 2.842366, 9.149442, 0.562188, 0.738338, 2.135341, -0.068928, 42.809570, -111.950424, 38.935623, 13.767899, 100.802499
1759259126.453823, 3.324648, 8.510938, 2.187402, 0.755916, 1.199803, 0.048169, 43.653961, -112.610016, 38.032791, 13.767899, 100.802499
1759259126.473808, 3.840000, 8.684368, 0.719009, 0.784423, 0.344907, -0.141927, 43.966080, -113.095963, 38.147919, 13.767899, 100.802499
1759259126.493818, 3.752313, 9.882516, 1.113304, 0.451032, -0.015745, -0.251122, 43.727249, -113.209518, 37.469650, 13.767899, 100.802499
1759259126.512829, 3.610456, 9.525331, 1.372775, 0.539218, -0.454462, -0.029222, 43.300674, -113.834320, 37.410248, 13.767899, 100.802499
1759259126.533798, 3.816806, 9.239972, 0.007183, 0.531946, -0.554931, 0.088103, 42.965561, -114.092224, 37.443359, 13.767899, 100.802499
1759259126.553829, 4.037372, 9.479393, -0.228796, 0.240943, -0.189164, 0.118007, 42.923203, -114.211792, 36.975006, 13.767899, 100.802499
1759259126.573544, 3.982455, 9.335292, 0.615609, 0.259337, 0.071643, 0.170265, 42.893372, -114.247147, 37.608505, 13.767899, 100.802499
1759259126.593823, 4.326472, 10.388890, 0.202310, 0.485147, 0.177002, 0.197233, 43.423508, -114.595505, 36.714355, 13.767899, 100.802499
1759259126.613829, 4.598663, 10.926687, -0.602291, 0.523728, 0.615677, 0.300591, 43.860321, -115.010651, 36.172455, 13.767899, 100.802499
1759259126.633822, 3.921553, 10.972327, -2.536657, 2.239762, 0.674299, 0.335604, 44.849228, -117.358765, 35.290451, 13.767899, 100.802499
1759259126.652907, 2.475754, 10.976816, -2.253243, 2.896559, 0.759230, 0.569429, 45.256958, -119.516907, 35.322113, 13.767899, 100.802499
1759259126.673820, 1.914015, 11.116877, 1.625513, 1.737636, -0.083343, 1.232650, 45.536606, -121.181259, 34.899719, 13.767899, 100.802499
1759259126.693824, 1.651550, 12.676400, 0.809539, 1.814528, -1.542600, 1.423050, 44.849655, -122.723633, 33.712769, 13.767899, 100.802499
1759259126.713495, 1.688810, 12.658892, 0.576853, 1.302961, -2.015608, 1.268043, 43.430557, -123.959991, 34.243362, 13.767899, 100.802499
1759259126.733587, 1.609801, 12.486659, -1.725022, 0.902761, -1.357219, 0.852424, 42.223953, -124.950989, 33.685883, 13.767899, 100.802499
1759259126.753827, 1.491887, 11.425879, -2.483086, 1.403529, 0.102494, 0.289014, 42.017609, -125.969757, 33.775314, 13.767899, 100.802499
1759259126.773824, 1.110760, 9.066393, -0.732775, 2.083694, 0.688134, 0.085370, 42.457764, -127.758286, 33.228149, 13.767899, 100.802499
1759259126.793824, 0.968305, 7.514501, 0.458340, 1.905781, 0.380197, 0.062027, 42.871796, -129.347961, 32.317047, 13.767899, 100.802499
1759259126.813825, 1.224933, 7.383269, -0.846350, 1.444788, -0.260823, 0.241444, 42.654343, -130.570084, 32.803802, 13.767899, 100.802499
1759259126.833802, 1.783531, 7.622390, -2.662951, 1.248316, -0.165461, 0.518488, 42.579483, -131.758835, 31.859116, 13.767899, 100.802499
1759259126.853865, 2.472163, 7.621791, -1.892916, 1.024657, 0.306748, 0.731073, 42.778671, -132.719437, 31.535660, 13.767899, 100.802499
1759259126.873593, 3.174262, 7.724143, -1.108066, 0.770374, 0.334311, 1.019408, 43.159622, -133.297562, 32.575058, 13.767899, 100.802499
1759259126.893489, 3.729268, 7.501932, -0.876577, 0.602891, 0.083218, 1.204500, 43.178162, -133.843353, 31.699554, 13.767899, 100.802499
1759259126.913830, 3.574693, 6.222380, -0.929549, 0.456009, -0.361805, 0.937879, 42.980072, -134.132370, 32.005630, 13.767899, 100.802499
1759259126.933803, 2.394501, 5.607968, -1.419462, 0.257522, -0.475453, 0.209604, 42.479996, -134.229050, 32.397186, 13.767899, 100.802499
1759259126.953828, 0.996138, 5.967847, -1.578677, -0.001304, -0.227239, -0.226131, 42.371597, -134.323578, 31.609604, 13.767899, 100.802499
1759259126.973430, 0.129885, 5.901857, -1.978359, -0.282244, -0.021624, -0.550308, 42.307770, -133.856705, 31.863937, 13.767899, 100.802499
1759259126.993831, 0.584185, 5.640290, -3.080290, -0.633238, 0.154687, -0.747848, 42.535522, -133.241852, 31.125946, 13.767899, 100.802499
1759259127.013822, 1.716343, 5.793220, -3.751415, -1.082344, 0.549731, -1.160372, 43.165588, -132.064301, 31.714218, 13.767899, 100.802499
1759259127.033148, 2.965368, 7.685687, -4.185513, -1.460916, 1.084718, -1.315648, 44.153015, -130.624374, 32.031708, 13.767892, 100.802503
1759259127.053015, 4.638018, 10.126575, -4.859780, -1.542856, 1.404586, -0.976379, 45.633270, -129.260757, 31.367126, 13.767892, 100.802503
1759259127.073828, 6.064513, 11.353304, -4.367922, -1.310987, 1.271957, -0.313049, 46.874756, -127.905045, 32.680069, 13.767892, 100.802503
1759259127.093836, 6.387730, 10.971279, -4.035876, -1.098882, 1.567481, 0.152706, 48.539215, -126.835907, 32.582687, 13.767892, 100.802503
1759259127.113834, 7.118710, 9.328707, -4.729147, -0.557941, 2.373504, 0.191063, 50.758118, -126.310120, 32.626740, 13.767892, 100.802503
1759259127.133830, 7.867646, 8.109311, -5.896619, -0.079961, 3.150334, 0.201857, 53.948502, -126.401657, 33.362549, 13.767892, 100.802503
1759259127.153724, 8.265083, 5.675305, -6.057181, 0.121176, 3.606404, 0.251406, 56.771606, -126.367828, 34.268906, 13.767892, 100.802503
1759259127.172927, 8.109610, 5.672762, 0.048782, -0.016013, 1.911391, -0.215479, 57.199829, -127.439362, 35.109222, 13.767892, 100.802503
1759259127.193826, 4.863072, 14.578892, 0.977582, -0.788110, -0.858806, -0.765599, 56.821808, -126.898163, 34.119843, 13.767892, 100.802503
1759259127.213832, 3.977368, 17.749115, 2.488024, -0.893690, -2.130707, -0.708929, 54.877563, -125.801956, 34.287552, 13.767892, 100.802503
1759259127.233813, 2.468422, 16.743700, 0.360776, -0.230376, -2.646583, -0.753334, 52.801590, -125.378830, 33.524902, 13.767892, 100.802503
1759259127.253586, 1.031003, 11.931354, -0.311695, -0.276269, -1.774053, -0.590901, 50.451035, -124.870499, 33.390350, 13.767892, 100.802503
1759259127.273719, 0.633266, 6.699126, 0.806996, 0.023997, -0.864542, -0.469943, 49.417404, -124.657059, 34.034134, 13.767892, 100.802503
1759259127.293775, 0.722750, 4.388422, 1.444601, 0.457299, -0.600094, -0.465977, 48.732117, -124.829498, 32.931976, 13.767892, 100.802503
1759259127.313838, 0.965163, 3.913772, 2.501791, 0.592871, -1.008002, -0.472196, 47.673141, -125.403625, 33.769882, 13.767892, 100.802503
1759259127.332860, 1.287033, 5.396680, 3.472790, 0.424396, -2.041272, -0.285188, 45.647110, -125.642273, 32.821381, 13.767892, 100.802503
1759259127.353434, 1.713650, 8.681375, 3.184737, 0.089358, -3.014387, 0.051310, 42.852234, -125.765549, 32.337112, 13.767892, 100.802503
1759259127.373572, 2.025495, 10.434679, 1.984494, -0.393203, -3.564840, 0.423203, 39.869247, -125.587448, 33.582596, 13.767892, 100.802503
1759259127.393832, 2.107646, 11.667992, -0.349404, -0.684639, -2.587672, 0.350942, 37.753403, -124.871445, 33.439240, 13.767892, 100.802503
1759259127.413834, 2.054973, 11.386374, -1.112705, -0.681177, -0.833709, 0.219277, 37.266876, -123.971664, 33.370972, 13.767892, 100.802503
1759259127.433815, 1.625364, 9.610176, -0.572065, -0.695840, 0.695765, 0.235392, 38.322861, -123.300552, 33.759995, 13.767892, 100.802503
1759259127.453295, 1.420659, 8.075642, 0.050727, -0.845812, 1.309903, 0.345008, 39.316620, -122.333496, 33.646729, 13.767892, 100.802503
1759259127.473432, 1.523460, 7.266103, 0.179565, -0.966126, 1.463711, 0.412502, 40.674179, -121.350464, 34.115036, 13.767892, 100.802503
1759259127.493836, 1.995417, 7.595305, 0.175974, -1.035039, 1.488404, 0.337849, 42.219635, -120.600784, 34.028687, 13.767892, 100.802503
1759259127.513574, 2.712331, 8.714595, -0.147543, -1.151810, 1.474434, 0.122706, 43.935669, -119.332779, 34.537994, 13.767892, 100.802503
1759259127.533816, 3.368342, 9.367015, -1.775001, -1.603165, 1.750270, -0.189776, 45.277267, -117.594971, 35.429504, 13.767892, 100.802503
1759259127.553144, 3.587412, 10.107571, 0.148889, -2.447964, 2.077511, -0.500665, 46.656815, -115.388092, 35.712494, 13.767892, 100.802503
1759259127.573255, 3.775955, 10.229526, 1.828572, -2.418599, 1.292889, -0.453443, 47.507172, -113.264816, 37.435043, 13.767892, 100.802503
1759259127.593837, 3.999364, 9.148394, -0.386514, -2.329111, 0.455379, -0.527229, 47.545334, -111.429733, 38.180191, 13.767892, 100.802503
1759259127.613853, 3.913622, 9.066093, -12.612654, -0.233074, 0.206135, -0.654229, 47.598083, -111.321136, 37.625412, 13.767892, 100.802503
1759259127.633809, 3.710414, 9.257480, 1.697339, 0.576145, 0.547546, -0.317526, 47.614090, -111.990036, 38.258408, 13.767892, 100.802503
1759259127.653038, 3.879804, 8.433875, 1.726519, 1.045787, -0.228721, -0.040122, 47.543884, -113.515274, 37.609680, 13.767892, 100.802503
1759259127.673097, 4.408473, 8.639926, -0.612018, 1.042804, -0.222930, -0.176806, 47.192215, -114.212372, 37.516098, 13.767892, 100.802503
1759259127.693834, 4.572327, 9.931148, 0.862810, 0.846790, 0.104594, -0.292972, 47.288559, -114.898819, 36.632477, 13.767892, 100.802503
1759259127.713846, 4.399495, 10.067917, 1.075445, 0.841329, 0.000226, -0.103996, 47.082855, -115.587341, 37.191559, 13.767892, 100.802503
1759259127.733314, 4.247763, 9.490915, 0.502633, 0.700194, -0.059681, 0.090450, 47.062866, -116.206177, 36.287598, 13.767892, 100.802503
1759259127.752838, 4.194941, 9.502586, 0.847847, 0.443130, -0.012551, 0.242339, 47.144745, -116.555679, 35.857498, 13.767892, 100.802503
1759259127.772975, 4.320786, 10.329185, 1.196053, 0.412277, -0.187595, 0.363406, 47.132919, -116.912476, 36.046158, 13.767892, 100.802503
1759259127.793859, 4.629638, 11.622951, 0.786046, 0.402312, -0.298485, 0.447486, 47.022797, -117.117462, 35.163513, 13.767892, 100.802503
1759259127.813841, 4.440197, 10.983101, 0.904559, 0.428735, -0.280580, 0.404056, 46.732330, -117.588882, 35.521637, 13.767892, 100.802503
1759259127.833812, 3.857807, 10.670807, 1.462408, 0.485307, -0.466833, 0.273162, 46.348190, -118.002655, 34.687836, 13.767892, 100.802503
1759259127.853840, 2.495506, 10.232070, 0.412551, 1.613796, -1.462217, 0.485287, 45.481491, -118.461563, 34.723999, 13.767892, 100.802503
1759259127.873845, 0.542586, 10.669460, -5.436933, 3.113609, -1.806018, 0.627197, 44.811050, -121.592072, 34.247528, 13.767892, 100.802503
1759259127.893859, 0.146495, 10.771813, -3.747524, 1.876981, -0.293860, 1.298040, 44.771637, -122.888870, 33.391327, 13.767892, 100.802503
1759259127.913837, 1.327286, 10.799047, 0.131681, 1.176670, 0.247541, 1.018798, 45.263138, -123.918777, 33.423141, 13.767892, 100.802503
1759259127.933813, 1.333421, 10.989685, 0.409857, 0.969661, 0.626176, 0.313699, 45.733810, -124.523758, 33.126251, 13.767892, 100.802503
1759259127.953841, 1.501464, 11.235689, 0.625336, 1.122494, 0.816123, -0.115895, 46.320084, -125.740234, 32.761627, 13.767892, 100.802503
1759259127.973834, 1.762731, 9.788693, 0.850839, 1.773696, 0.389320, 0.067337, 46.503906, -127.298630, 33.067001, 13.767892, 100.802503
1759259127.993839, 2.349610, 8.485799, 1.581969, 1.800713, -0.516405, 0.250728, 45.670074, -128.791351, 31.666901, 13.767892, 100.802503
1759259128.013838, 3.212270, 8.460959, -0.295385, 1.712357, -1.098201, 0.620039, 44.967224, -130.310410, 31.862656, 13.767892, 100.802503
1759259128.033259, 4.180725, 7.647230, -2.935890, 1.818223, -0.877517, 1.035094, 44.531311, -131.861267, 32.402023, 13.767892, 100.802503
1759259128.053840, 5.055506, 6.272958, -4.015974, 0.953791, 0.310947, 1.182819, 45.242371, -132.517746, 31.359848, 13.767884, 100.802509
1759259128.073630, 5.536292, 6.565948, -1.400009, 0.296818, 0.843363, 1.329105, 45.710312, -132.556702, 32.008072, 13.767884, 100.802509
1759259128.093859, 4.874295, 6.819734, 0.480486, 0.222004, 0.060776, 1.098296, 45.262848, -132.607971, 31.479507, 13.767884, 100.802509
1759259128.113838, 2.758270, 7.173028, -0.509666, 0.198566, -1.063093, 0.691994, 44.415344, -132.693176, 31.249817, 13.767884, 100.802509
1759259128.133809, 1.093552, 6.582558, -1.705270, -0.119613, -1.222469, 0.375110, 43.247955, -132.384308, 32.066833, 13.767884, 100.802509
1759259128.153833, 0.172083, 5.908590, -1.654094, -0.520528, -0.890193, -0.147665, 42.495087, -131.851166, 31.447510, 13.767884, 100.802509
1759259128.173824, -0.370652, 5.645827, -1.612196, -0.751015, -0.488462, -0.669998, 42.334473, -130.983032, 32.097412, 13.767884, 100.802509
1759259128.193833, -0.360776, 5.798308, -1.911171, -0.886023, -0.094438, -0.916800, 42.264740, -131.327271, 31.953781, 13.767884, 100.802509
1759259128.213828, 1.213112, 6.376058, -2.271798, -1.092946, 0.367551, -1.047089, 42.413315, -130.497070, 32.851715, 13.767884, 100.802509
1759259128.233811, 2.748693, 8.801534, -2.435202, -1.098332, 0.746456, -1.056138, 43.251892, -129.638290, 32.025818, 13.767884, 100.802509
1759259128.253842, 4.765509, 11.122114, -4.961684, -0.846277, 0.754041, -0.743251, 44.012634, -128.964478, 31.873322, 13.767884, 100.802509
1759259128.273828, 6.638074, 11.593173, -7.904008, -0.979629, 1.188237, -0.314392, 45.246231, -127.926407, 32.550476, 13.767884, 100.802509
1759259128.293831, 7.025635, 11.502044, -4.536114, -0.928425, 2.066340, 0.080245, 46.912399, -127.106766, 32.634949, 13.767884, 100.802509
1759259128.312949, 7.718607, 9.829395, -2.931700, -0.350884, 2.319062, 0.204332, 49.322037, -126.511353, 33.344955, 13.767884, 100.802509
1759259128.333805, 8.020426, 7.443274, -3.555539, 0.001195, 2.277463, 0.137536, 51.157578, -126.478821, 33.058395, 13.767884, 100.802509
1759259128.353854, 7.806295, 5.696853, -3.324798, -0.016334, 1.892085, -0.094471, 52.690735, -126.418945, 32.902649, 13.767884, 100.802509
1759259128.373010, 6.903082, 9.607033, -1.652448, -0.382895, 0.848005, -0.467280, 53.250595, -125.919678, 33.834854, 13.767884, 100.802509
1759259128.393830, 5.135563, 14.806641, 0.060154, -1.005875, -0.722364, -0.501333, 51.909775, -125.142899, 33.082794, 13.767884, 100.802509
1759259128.413832, 3.317765, 15.565304, 1.366042, -0.703093, -2.221624, -0.506204, 50.109116, -124.085907, 32.719543, 13.767884, 100.802509
1759259128.433804, 1.996615, 12.898013, -0.462231, -0.573232, -2.177242, -0.524956, 48.096954, -123.455948, 33.040161, 13.767884, 100.802509
1759259128.453819, 1.231069, 8.633342, -0.194080, -0.478786, -1.312220, -0.391559, 46.600281, -122.717209, 33.214737, 13.767884, 100.802509
1759259128.473802, 0.803255, 4.533271, 0.728885, -0.021472, -1.141399, -0.496775, 45.339401, -122.346863, 33.678421, 13.767884, 100.802509
1759259128.493802, 0.762404, 3.614945, 0.948403, 0.459096, -0.987117, -0.632635, 44.513794, -122.689117, 33.422318, 13.767884, 100.802509
1759259128.513803, 0.953491, 5.082441, 1.669507, 0.672346, -1.114288, -0.634653, 43.262070, -123.523056, 33.317795, 13.767884, 100.802509
1759259128.533306, 1.295862, 6.826916, 2.131288, 0.651334, -1.320148, -0.539800, 41.722778, -124.055359, 33.234573, 13.767884, 100.802509
1759259128.553220, 2.032827, 10.733056, 2.371457, 0.441950, -1.851866, -0.199293, 40.029846, -124.452026, 33.040100, 13.767884, 100.802509
1759259128.573609, 2.786851, 13.319243, 1.355717, -0.134473, -2.090595, 0.449243, 38.309052, -124.242432, 33.656342, 13.767884, 100.802509
1759259128.593805, 2.706944, 11.533169, -0.747290, -0.477224, -1.107026, 0.315447, 37.472504, -123.590485, 33.156738, 13.767884, 100.802509
1759259128.613828, 2.512116, 9.334244, -0.535254, -0.619363, 0.055118, 0.069124, 37.742905, -122.883530, 33.233810, 13.767884, 100.802509
1759259128.633795, 2.123358, 8.099285, -0.341473, -0.859770, 0.539269, 0.069648, 38.072266, -121.842743, 33.793350, 13.767884, 100.802509
1759259128.653808, 1.891419, 6.959795, -0.301669, -1.102974, 0.772914, 0.150280, 38.784485, -120.875702, 33.707413, 13.767884, 100.802509
1759259128.673820, 2.161814, 6.527043, -0.496348, -1.334720, 0.933876, 0.081818, 39.767822, -119.484558, 35.192932, 13.767884, 100.802509
1759259128.693802, 2.845958, 7.409007, -1.053299, -1.729486, 1.277916, -0.144592, 40.658966, -118.131744, 34.632156, 13.767884, 100.802509
1759259128.713808, 3.376722, 9.162011, 0.354940, -1.999354, 1.477651, -0.267856, 41.344254, -118.016281, 35.537292, 13.767884, 100.802509
1759259128.733288, 3.900304, 9.662848, 0.611868, -1.973422, 1.124319, -0.226871, 42.365540, -116.447647, 35.693909, 13.767884, 100.802509
1759259128.753865, 4.229657, 9.492411, -0.218471, -2.096995, 0.920582, -0.355872, 43.119202, -114.748322, 36.399918, 13.767884, 100.802509
1759259128.773811, 3.692607, 9.932046, 0.190638, -2.196319, 0.737296, -0.410477, 43.657578, -112.807266, 37.925400, 13.767884, 100.802509
1759259128.793812, 2.141164, 10.220548, -7.475446, -0.815028, 0.575493, -0.396122, 44.097519, -111.857849, 38.098297, 13.767884, 100.802509
1759259128.813815, 2.920028, 9.729287, 0.502633, -0.376231, 0.508640, -0.285123, 44.179459, -111.239624, 38.996811, 13.767884, 100.802509
1759259128.833790, 3.640683, 8.480562, 1.923292, 0.169749, -0.533464, -0.102291, 43.835236, -111.338013, 38.003891, 13.767884, 100.802509
1759259128.853829, 4.050840, 8.434324, -0.446070, 0.489868, -0.660386, -0.147662, 43.305557, -111.774734, 37.913177, 13.767884, 100.802509
1759259128.873804, 4.579809, 9.571569, 0.538845, 0.531508, -0.245624, -0.247358, 43.147430, -111.953842, 38.238663, 13.767884, 100.802509
1759259128.893793, 4.891953, 10.143634, 0.433949, 0.734586, -0.176579, -0.203351, 42.705627, -112.741470, 37.452576, 13.767884, 100.802509
1759259128.913830, 4.511274, 10.215460, 0.804901, 0.709370, 0.020207, -0.074856, 42.431366, -113.212097, 37.224823, 13.767884, 100.802509
1759259128.933787, 3.984999, 9.479841, 1.397166, 0.776968, -0.216038, 0.162256, 42.604050, -113.802567, 36.462555, 13.767884, 100.802509
1759259128.953819, 3.507505, 9.323021, 0.679355, 0.729543, -0.488853, 0.371069, 42.145523, -114.396713, 36.676224, 13.767884, 100.802509
1759259128.973724, 3.424457, 8.911518, 0.570269, 0.553096, -0.459179, 0.444908, 42.017227, -114.744675, 36.853928, 13.767884, 100.802509
1759259128.993798, 3.589656, 9.767445, 0.713771, 0.597754, -0.373125, 0.401120, 41.805908, -115.269958, 36.276184, 13.767884, 100.802509
1759259129.013796, 4.067898, 11.326519, 0.425569, 0.609153, -0.248361, 0.533356, 42.105301, -115.753403, 35.759491, 13.767884, 100.802509
1759259129.033775, 4.048146, 10.419715, 0.650175, 0.576519, -0.073530, 0.485236, 41.981247, -116.073074, 36.190979, 13.767884, 100.802509
1759259129.053803, 3.201796, 9.697863, 0.251990, 0.630894, -0.292013, 0.295350, 41.674103, -116.486099, 35.187180, 13.767878, 100.802517
1759259129.073598, 0.839168, 10.092159, -6.146514, 3.385663, -1.000904, 0.366336, 41.461929, -119.654022, 34.377640, 13.767878, 100.802517
1759259129.093815, 0.618452, 9.711181, -2.097919, 2.233828, 0.200704, 1.279672, 41.722107, -121.177551, 33.664780, 13.767878, 100.802517
1759259129.113807, 2.181417, 11.239280, 1.265635, 1.464448, -0.184236, 1.342760, 41.830017, -122.417145, 32.295364, 13.767878, 100.802517
1759259129.133779, 2.814534, 11.855787, 2.223465, 0.784424, -0.542562, 0.883390, 41.754303, -122.976379, 33.156647, 13.767878, 100.802517
1759259129.153831, 2.832490, 12.605771, -0.624288, 0.547878, -0.414165, 0.355411, 41.198349, -123.437271, 32.670059, 13.767878, 100.802517
1759259129.173470, 2.867206, 12.068722, -1.345242, 1.911272, 0.295030, 0.280744, 41.687408, -125.321350, 32.738632, 13.767878, 100.802517
1759259129.193789, 2.901473, 9.474006, 0.060154, 2.310900, 0.243785, 0.330400, 42.015823, -127.330658, 31.677429, 13.767878, 100.802517
1759259129.213815, 3.662979, 7.034164, -4.060716, 1.474755, 0.070394, 0.315897, 42.129623, -128.531006, 31.955276, 13.767878, 100.802517
1759259129.233017, 4.044256, 6.521506, -3.778200, 0.978165, 0.865031, 0.654183, 42.435471, -129.940750, 32.100250, 13.767878, 100.802517
1759259129.253828, 4.172794, 6.258593, 0.331447, 0.705741, 0.512796, 0.890463, 43.120255, -130.419189, 31.885101, 13.767878, 100.802517
1759259129.273355, 4.745457, 6.459257, 0.402076, 0.534121, -0.798103, 1.081974, 42.766479, -130.921097, 32.477722, 13.767878, 100.802517
1759259129.293804, 4.796184, 6.593332, -1.140987, 0.542872, -1.490997, 1.137881, 41.474518, -131.190872, 31.672119, 13.767878, 100.802517
1759259129.313833, 3.589507, 6.669947, -1.694646, 0.275842, -1.416720, 0.787033, 40.146347, -131.650894, 32.883469, 13.767878, 100.802517
1759259129.333764, 1.826327, 6.343737, -1.718588, -0.091334, -1.057717, 0.392457, 39.328339, -131.599503, 32.262299, 13.767878, 100.802517
1759259129.353801, 0.570568, 5.929689, -1.507449, -0.255396, -0.683716, -0.115788, 38.499817, -131.151016, 32.245911, 13.767878, 100.802517
1759259129.373214, -0.218770, 5.993285, -1.608754, -0.323477, -0.331762, -0.609818, 38.142822, -130.812103, 32.624420, 13.767878, 100.802517
1759259129.393813, -0.530615, 6.352116, -2.171541, -0.447649, -0.004350, -0.845941, 38.113983, -130.574661, 32.415222, 13.767878, 100.802517
1759259129.412804, 0.399981, 6.181230, -2.272247, -0.664440, 0.383899, -0.961414, 38.315796, -130.202866, 32.970978, 13.767878, 100.802517
1759259129.433760, 1.858499, 7.406164, -2.274791, -0.964341, 0.462359, -1.242549, 38.788284, -129.519363, 32.272430, 13.767878, 100.802517
1759259129.453727, 3.664475, 9.281272, -4.514567, -1.230171, 0.666662, -1.082560, 39.544159, -128.485123, 32.753174, 13.767878, 100.802517
1759259129.473063, 5.413290, 10.587309, -7.404069, -1.290488, 1.335649, -0.638077, 40.524734, -127.391586, 32.965714, 13.767878, 100.802517
1759259129.492930, 6.754641, 12.005425, -5.214422, -0.704996, 1.706494, -0.032024, 42.017349, -126.626633, 32.601318, 13.767878, 100.802517
1759259129.513777, 7.518242, 10.575787, -2.593369, -0.131233, 1.665256, 0.365960, 43.682678, -126.358536, 32.514679, 13.767878, 100.802517
1759259129.533748, 8.303241, 8.795549, -4.904073, -0.054617, 1.862831, 0.133420, 45.552170, -126.074554, 32.710220, 13.767878, 100.802517
1759259129.553580, 8.614637, 7.502680, -4.765060, -0.250165, 2.420830, 0.054430, 47.637955, -125.750519, 32.951172, 13.767878, 100.802517
1759259129.572924, 8.518270, 5.135563, -3.725378, -0.311381, 1.978449, 0.038350, 49.252884, -125.178955, 33.291153, 13.767878, 100.802517
1759259129.593648, 7.961020, 4.237587, -1.181389, -0.428621, 0.527726, -0.381816, 49.525269, -124.729095, 32.915741, 13.767878, 100.802517
1759259129.613775, 6.202778, 9.983222, -0.851288, -1.275772, -0.665544, -0.844781, 48.683868, -123.525421, 32.997879, 13.767878, 100.802517
1759259129.633748, 4.679766, 15.595530, 3.348141, -2.041517, -1.266212, -0.664729, 47.277252, -121.708740, 34.024094, 13.767878, 100.802517
1759259129.653417, 3.204789, 15.567099, 2.467674, -1.281248, -2.323244, -0.455086, 45.150299, -120.786835, 33.582260, 13.767878, 100.802517
1759259129.672761, 1.344943, 13.152248, -0.504279, -0.915183, -2.411717, -0.472423, 42.710938, -119.633652, 34.447113, 13.767878, 100.802517
1759259129.693773, 0.317531, 8.791957, -0.209493, -1.078800, -1.510851, -0.490154, 41.074783, -118.639984, 34.543549, 13.767878, 100.802517
1759259129.713766, -0.090980, 5.330241, 0.454749, -0.630718, -0.895848, -0.678055, 40.509247, -118.151901, 34.572784, 13.767878, 100.802517
1759259129.733757, -0.051475, 4.288165, 0.943465, -0.150505, -0.571687, -0.812100, 39.756119, -118.955734, 35.138977, 13.767878, 100.802517
1759259129.753419, 0.440832, 5.902006, 1.944990, 0.127644, -0.830433, -0.593137, 38.910980, -119.263260, 34.948639, 13.767878, 100.802517
1759259129.773783, 0.929998, 8.726117, 2.506280, 0.251891, -1.638323, -0.090710, 37.959824, -119.428131, 35.627090, 13.767878, 100.802517
1759259129.793781, 1.423203, 11.053580, 2.162712, 0.291024, -2.361911, 0.334145, 35.959351, -120.019974, 35.105270, 13.767878, 100.802517
1759259129.813825, 1.874061, 11.676521, 1.011550, 0.253902, -2.296196, 0.359968, 34.063675, -120.138443, 36.199768, 13.767878, 100.802517
1759259129.833754, 2.435202, 10.663026, 0.074370, 0.033926, -1.601120, 0.070767, 32.613525, -120.085999, 35.925644, 13.767878, 100.802517
1759259129.853266, 2.457199, 9.204658, -0.393547, -0.269515, -0.706060, -0.253194, 31.863708, -119.750870, 36.054031, 13.767878, 100.802517
1759259129.873781, 2.262820, 8.144027, -0.235230, -0.529724, 0.087044, -0.260355, 31.831543, -119.290421, 36.600311, 13.767878, 100.802517
1759259129.893780, 2.223465, 7.470508, -0.038756, -0.814992, 0.487862, -0.109040, 32.182236, -118.695908, 36.339798, 13.767878, 100.802517
1759259129.913778, 2.587085, 7.458387, 0.051625, -1.116264, 0.647234, 0.010800, 32.689880, -117.840912, 36.852371, 13.767878, 100.802517
1759259129.932985, 3.032556, 8.069208, -0.015413, -1.360554, 0.719744, 0.060976, 33.434494, -116.533997, 37.187408, 13.767878, 100.802517
1759259129.953106, 3.438971, 8.803928, -0.329502, -1.505249, 0.888521, 0.016777, 34.041656, -115.368668, 37.282700, 13.767878, 100.802517
1759259129.973773, 3.973477, 9.293543, -0.555604, -1.591407, 1.234262, -0.116168, 35.339264, -113.885193, 38.440155, 13.767878, 100.802517
1759259129.993772, 4.277241, 9.706393, -0.831237, -1.736439, 1.680591, -0.316711, 36.474045, -112.736618, 37.834717, 13.767878, 100.802517
1759259130.013773, 3.933524, 10.322002, -0.276081, -1.854994, 2.003044, -0.273196, 37.988205, -111.053391, 38.984283, 13.767878, 100.802517
1759259130.032828, 3.623624, 9.622446, -0.076764, -1.854475, 2.002623, -0.056679, 39.609238, -109.664551, 40.271027, 13.767878, 100.802517
1759259130.052969, 2.840271, 8.820089, -6.729203, -1.278247, 1.957648, -0.052676, 41.285416, -109.179672, 39.673889, 13.767871, 100.802526
1759259130.073773, 3.632004, 9.156924, -1.502062, 0.761828, 2.452492, -0.326944, 42.382950, -109.484467, 39.805481, 13.767871, 100.802526
1759259130.093778, 4.332308, 9.781960, 4.035577, 1.010181, 0.976112, 0.021071, 42.975494, -110.434052, 38.349930, 13.767871, 100.802526
1759259130.113781, 5.017349, 8.855104, 0.322768, 1.106162, -0.228943, 0.098222, 42.764542, -111.170578, 38.065338, 13.767871, 100.802526
1759259130.133743, 4.861576, 9.855432, 2.193687, 0.597503, -0.525639, -0.102071, 42.043076, -111.482590, 38.256821, 13.767871, 100.802526
1759259130.152794, 3.952228, 9.726444, 1.395071, 0.657952, -1.232396, 0.238033, 41.248825, -112.172424, 37.524048, 13.767871, 100.802526
1759259130.173764, 3.576189, 9.009680, -0.038008, 0.502992, -1.170218, 0.513139, 40.562439, -112.278885, 38.465317, 13.767871, 100.802526
1759259130.193761, 3.686771, 9.054721, 0.710330, 0.562419, -0.876261, 0.484029, 40.201263, -112.841309, 37.176102, 13.767871, 100.802526
1759259130.213748, 4.038869, 10.842890, 0.604237, 0.829154, -0.674746, 0.511933, 40.005234, -113.746094, 36.523056, 13.767871, 100.802526
1759259130.233734, 4.337396, 11.158177, 0.788441, 0.998924, -0.454761, 0.633877, 39.835983, -114.225967, 37.137390, 13.767871, 100.802526
1759259130.253759, 4.134038, 11.413459, -0.442179, 1.246120, -0.528291, 0.600266, 39.476517, -115.990189, 36.527725, 13.767871, 100.802526
1759259130.273764, 2.757073, 12.250681, -3.209128, 3.097718, -0.768852, 0.883752, 39.463501, -118.407715, 35.798538, 13.767871, 100.802526
1759259130.293759, 2.079215, 11.856386, -2.098218, 1.760599, 0.364887, 1.583118, 39.623627, -120.322815, 34.691299, 13.767871, 100.802526
1759259130.313772, 2.178724, 11.758972, 0.262015, 1.610550, 0.582088, 1.359645, 40.557999, -121.389557, 34.454208, 13.767871, 100.802526
1759259130.333121, 2.210596, 11.805659, 1.285387, 1.251325, 0.440288, 0.786486, 41.052567, -122.553909, 33.183029, 13.767871, 100.802526
1759259130.353744, 1.946037, 12.337920, -0.528520, 1.507450, 0.439433, 0.337139, 41.544678, -123.979507, 33.084549, 13.767871, 100.802526
1759259130.373760, 1.433528, 10.180445, -0.462979, 2.226023, 0.366584, 0.178097, 41.729736, -125.675476, 33.216675, 13.767871, 100.802526
1759259130.393750, 1.500566, 7.432649, -0.546028, 2.136660, 0.010126, 0.080042, 41.903198, -127.443878, 32.715103, 13.767871, 100.802526
1759259130.413743, 2.504185, 6.902932, -2.143409, 1.206180, -0.307546, 0.117010, 41.655411, -128.606216, 33.001251, 13.767871, 100.802526
1759259130.433726, 3.258209, 8.015787, -1.884386, 1.032593, -0.154657, 0.734104, 41.452255, -129.579102, 32.245728, 13.767871, 100.802526
1759259130.453749, 3.917213, 8.035839, -0.120907, 0.939116, -0.248269, 1.165364, 41.393661, -130.240814, 31.935257, 13.767871, 100.802526
1759259130.472826, 4.832995, 7.781006, -0.590769, 0.692542, -0.658247, 1.378689, 40.790283, -130.660934, 32.671844, 13.767871, 100.802526
1759259130.493776, 5.013009, 6.553379, -1.342997, 0.559830, -0.661184, 1.232828, 40.150238, -131.020065, 31.869171, 13.767871, 100.802526
1759259130.513743, 3.831321, 5.666327, -0.702848, 0.343271, -0.586062, 0.844471, 39.685898, -130.963882, 31.828949, 13.767871, 100.802526
1759259130.533720, 1.993771, 5.405658, -1.013047, 0.050413, -0.668725, 0.482557, 38.897751, -131.049698, 32.423004, 13.767871, 100.802526
1759259130.553445, 0.619799, 5.255572, -1.463755, -0.251949, -0.574030, -0.024630, 38.753723, -130.726044, 32.070114, 13.767871, 100.802526
1759259130.573745, -0.236278, 5.483021, -1.742979, -0.547493, -0.285529, -0.582299, 38.506180, -130.083801, 32.558578, 13.767871, 100.802526
1759259130.593778, -0.585981, 5.804592, -2.265364, -0.817726, 0.080605, -0.930433, 38.532196, -129.237198, 31.949173, 13.767871, 100.802526
1759259130.613812, 0.354043, 5.699098, -2.354398, -1.059288, 0.434293, -1.101722, 39.102158, -128.343216, 31.835480, 13.767871, 100.802526
1759259130.633716, 2.019359, 7.064391, -2.238728, -1.138728, 0.822943, -1.412942, 39.901932, -127.486313, 32.576035, 13.767871, 100.802526
1759259130.653263, 3.838953, 9.388263, -3.615394, -1.071208, 1.006013, -1.388350, 40.673340, -126.695374, 31.996246, 13.767871, 100.802526
1759259130.673738, 6.374861, 10.833763, -7.128735, -1.191014, 1.301706, -1.058064, 41.985504, -125.440826, 32.885376, 13.767871, 100.802526
1759259130.693735, 7.335684, 12.006173, -2.991854, -1.165689, 1.637057, -0.404553, 43.059769, -124.556915, 32.481918, 13.767871, 100.802526
1759259130.713721, 8.022371, 11.104158, -1.646163, -0.637636, 1.181581, -0.090377, 44.431992, -124.265762, 32.991486, 13.767871, 100.802526
1759259130.733710, 8.905383, 9.403526, -6.049848, -0.268823, 1.652737, 0.024183, 46.326736, -123.890442, 33.698120, 13.767871, 100.802526
1759259130.753739, 8.826224, 6.866720, -6.720374, -0.121523, 3.083968, 0.083619, 47.608200, -124.616501, 33.572479, 13.767871, 100.802526
1759259130.773731, 8.994417, 4.811148, -2.508226, 0.175010, 3.040612, -0.004893, 50.189835, -124.699997, 34.344635, 13.767871, 100.802526
1759259130.793735, 8.446444, 8.593239, -0.500987, -0.255902, 0.731896, -0.496119, 51.107254, -124.559769, 33.494003, 13.767871, 100.802526
1759259130.813729, 5.915474, 16.114474, 3.330783, -1.245962, -1.121040, -0.689117, 49.812363, -123.518417, 34.427032, 13.767871, 100.802526
1759259130.833714, 3.555689, 16.589274, 1.901445, -1.032042, -2.688391, -0.405832, 47.300781, -122.696152, 33.739777, 13.767871, 100.802526
1759259130.853750, 1.893365, 12.586767, -0.576853, -0.897167, -2.615298, -0.333749, 44.933029, -121.506790, 33.738907, 13.767871, 100.802526
1759259130.873731, 0.846650, 7.399729, 0.603189, -0.737005, -1.781023, -0.396957, 43.109207, -120.779160, 35.077393, 13.767871, 100.802526
1759259130.893754, 0.280421, 4.638018, 0.890793, -0.057537, -1.297751, -0.595824, 41.669296, -120.609238, 34.513901, 13.767871, 100.802526
1759259130.913729, 0.199018, 4.199280, 1.291971, 0.313059, -1.149369, -0.724551, 40.544144, -120.857925, 35.025909, 13.767871, 100.802526
1759259130.933705, 0.675614, 6.178986, 2.348562, 0.372965, -1.469340, -0.530193, 38.993073, -121.318359, 34.248199, 13.767871, 100.802526
1759259130.952909, 1.279850, 9.256732, 2.870947, 0.276394, -2.256015, -0.148217, 36.895370, -121.741455, 34.871902, 13.767871, 100.802526
1759259130.973727, 1.571494, 11.497256, 1.962048, 0.125180, -2.664136, 0.206396, 34.771347, -121.798187, 35.567703, 13.767871, 100.802526
1759259130.993716, 1.646313, 11.775881, 0.816273, -0.242714, -1.672225, 0.357755, 33.163437, -121.488297, 35.797668, 13.767871, 100.802526
1759259131.013725, 1.623119, 10.442311, -0.447267, -0.331265, -0.923946, 0.274088, 32.954620, -121.116882, 35.388489, 13.767871, 100.802526
1759259131.033701, 1.706767, 9.371653, -0.220566, -0.346378, 0.632289, 0.127512, 33.422226, -120.749588, 35.577820, 13.767871, 100.802526
1759259131.053361, 1.881693, 7.940220, 0.496797, -0.391439, 1.271019, 0.156956, 34.831665, -119.999786, 35.157486, 13.767865, 100.802534
1759259131.073723, 2.065747, 7.201759, 0.704344, -0.533158, 1.248900, 0.167784, 35.964355, -119.327942, 35.739029, 13.767865, 100.802534
1759259131.093726, 2.410662, 7.092673, 0.743699, -0.704377, 0.994621, 0.105694, 36.757202, -118.801987, 35.512085, 13.767865, 100.802534
1759259131.113589, 3.002778, 7.851036, 0.413748, -1.144552, 0.533983, -0.084559, 37.486664, -117.771683, 35.425552, 13.767865, 100.802534
1759259131.133689, 3.821894, 8.644415, -1.821539, -1.508573, 0.599398, -0.203129, 37.894653, -116.123322, 36.542221, 13.767865, 100.802534
1759259131.153716, 4.143316, 9.817574, -0.386364, -2.566405, 1.301022, -0.480087, 38.641327, -113.943863, 36.843948, 13.767865, 100.802534
1759259131.172881, 4.257639, 10.218902, 2.031779, -2.564456, 0.825654, -0.458885, 38.806946, -111.959030, 38.843781, 13.767865, 100.802534
1759259131.192842, 4.600907, 9.523536, -0.491410, -2.288756, 0.166911, -0.534831, 38.953278, -110.109558, 39.217850, 13.767865, 100.802534
1759259131.213720, 4.299687, 9.751134, -2.220921, -2.695355, 0.613264, -0.734108, 39.420883, -109.303040, 40.106018, 13.767865, 100.802534
1759259131.233209, 3.762787, 9.190592, -9.737817, 0.215379, 1.309136, -0.592481, 39.983627, -109.418747, 40.228592, 13.767865, 100.802534
1759259131.253717, 4.020463, 9.570671, 3.194912, 0.465968, 1.428960, -0.173514, 40.626175, -110.521713, 39.198776, 13.767865, 100.802534
1759259131.273723, 4.819678, 8.724920, 1.857452, 0.943744, 0.103648, 0.134448, 40.762772, -111.190445, 39.087570, 13.767865, 100.802534
1759259131.293717, 5.466711, 9.005790, 0.509516, 0.636006, -0.013806, -0.086307, 40.577271, -111.704453, 38.635269, 13.767865, 100.802534
1759259131.313729, 5.412841, 9.807997, 1.981501, 0.589737, -0.683178, -0.080394, 40.178879, -112.088226, 39.092972, 13.767865, 100.802534
1759259131.333193, 4.849755, 9.606884, 1.196951, 0.520789, -0.851281, 0.069532, 39.614075, -112.586868, 38.189590, 13.767865, 100.802534
1759259131.353690, 4.326472, 9.085696, 0.768988, 0.385262, -0.992131, 0.364784, 38.855331, -112.843872, 38.173828, 13.767865, 100.802534
1759259131.373694, 3.864241, 9.230396, 0.645387, 0.392601, -0.918295, 0.557890, 38.434937, -113.054749, 38.488525, 13.767865, 100.802534
1759259131.393731, 4.027197, 10.104429, 0.508169, 0.554641, -0.778525, 0.578177, 38.081757, -113.576584, 37.908279, 13.767865, 100.802534
1759259131.413713, 4.199879, 10.656891, 0.513407, 0.675582, -0.512378, 0.595753, 37.954346, -113.944763, 38.117569, 13.767865, 100.802534
1759259131.432762, 4.010138, 9.795726, 1.296011, 0.877228, -0.452289, 0.485102, 37.682083, -114.520905, 37.485092, 13.767865, 100.802534
1759259131.453538, 2.945018, 11.288212, -1.726818, 1.960748, -0.977336, 0.409998, 36.896500, -116.932343, 36.225754, 13.767865, 100.802534
1759259131.473699, 1.145027, 12.444162, -3.972729, 2.356851, -0.619129, 1.210573, 36.963181, -119.018906, 36.560410, 13.767865, 100.802534
1759259131.493696, 1.669507, 12.309339, -0.406266, 1.574572, 0.189352, 1.285279, 37.080002, -119.769745, 35.141205, 13.767865, 100.802534
1759259131.513693, 2.101062, 11.335048, 1.384896, 1.287946, 0.197653, 0.864481, 37.497635, -120.895782, 34.226135, 13.767865, 100.802534
1759259131.532791, 1.946336, 11.438598, 0.345513, 1.138792, 0.215578, 0.612964, 37.812317, -121.799774, 34.386642, 13.767865, 100.802534
1759259131.553354, 1.695843, 10.680833, -0.274136, 2.098670, 0.508442, 0.197029, 38.055344, -123.301025, 33.331451, 13.767865, 100.802534
1759259131.573693, 1.696142, 8.541464, 0.419135, 2.177782, 0.010925, 0.108575, 38.495071, -125.072495, 33.550812, 13.767865, 100.802534
1759259131.593695, 2.374749, 7.342268, -1.395221, 1.573959, -0.677686, 0.150304, 37.671143, -126.425888, 32.651901, 13.767865, 100.802534
1759259131.613705, 3.178003, 7.331494, -3.244293, 1.153457, -0.529435, 0.475877, 37.357925, -127.415710, 32.419525, 13.767865, 100.802534
1759259131.632846, 3.405602, 7.269844, -2.234239, 1.082207, -0.303886, 0.649328, 37.077408, -128.146133, 33.108032, 13.767865, 100.802534
1759259131.653180, 4.556615, 7.152528, -0.688632, 0.668486, -0.486106, 1.051550, 36.821030, -128.551987, 32.060852, 13.767865, 100.802534
1759259131.672737, 4.891055, 7.039851, -1.065869, 0.588880, -0.525911, 1.224836, 36.605957, -128.899323, 33.189484, 13.767865, 100.802534
1759259131.693708, 3.882946, 6.055983, -1.157746, 0.425367, -0.340911, 0.890229, 36.457718, -128.977142, 32.796906, 13.767865, 100.802534
1759259131.713703, 1.994520, 6.288221, -1.361403, 0.092336, -0.246317, 0.433125, 36.181107, -129.178864, 32.458557, 13.767865, 100.802534
1759259131.733680, 0.809390, 5.939565, -1.424999, -0.243079, -0.209291, -0.020643, 36.094971, -128.805511, 33.364456, 13.767865, 100.802534
1759259131.752972, -0.000150, 5.682638, -1.813159, -0.465184, -0.161758, -0.504438, 35.663269, -129.568268, 33.086548, 13.767865, 100.802534
1759259131.773707, -0.287454, 5.787085, -2.368763, -0.662337, 0.080747, -0.801333, 35.804504, -127.958435, 33.350189, 13.767865, 100.802534
1759259131.793699, 0.988057, 5.158756, -2.498349, -0.864710, 0.428563, -1.046652, 35.833618, -128.431015, 33.332260, 13.767865, 100.802534
1759259131.813578, 2.339434, 6.583157, -2.407070, -1.050556, 0.803826, -1.387172, 36.409805, -127.979492, 33.901505, 13.767865, 100.802534
1759259131.833676, 4.143765, 9.200618, -3.879804, -1.219982, 0.986040, -1.336607, 37.055984, -127.021393, 33.248260, 13.767865, 100.802534
1759259131.852773, 6.683414, 11.438149, -7.127239, -1.209970, 1.247631, -0.826510, 37.964218, -126.328156, 33.670883, 13.767865, 100.802534
1759259131.873220, 7.717859, 11.922526, -4.252850, -0.997888, 1.527253, -0.010866, 39.256393, -125.059845, 33.557709, 13.767865, 100.802534
1759259131.893706, 8.171710, 9.897779, -2.642899, -0.425350, 1.524641, 0.110962, 40.615509, -124.585907, 33.609146, 13.767865, 100.802534
1759259131.913288, 8.359505, 9.413851, -5.995231, -0.103469, 2.069157, -0.037477, 42.444916, -124.472900, 33.729980, 13.767865, 100.802534
1759259131.933415, 8.527248, 7.363068, -6.312612, -0.106676, 3.059602, 0.034681, 45.011932, -124.057068, 34.088531, 13.767865, 100.802534
1759259131.953695, 8.101679, 4.533271, -3.629909, -0.166489, 2.470219, -0.063543, 47.195251, -123.841675, 33.799255, 13.767865, 100.802534
1759259131.973692, 7.091176, 5.335329, 0.369605, -0.203329, 0.272705, -0.508795, 47.793594, -123.581772, 34.422577, 13.767865, 100.802534
1759259131.993517, 5.098752, 13.061567, 1.306785, -1.433441, -1.254492, -0.721313, 46.607391, -122.680038, 33.696228, 13.767865, 100.802534
1759259132.013133, 4.728399, 16.060155, 4.137929, -1.638544, -1.941816, -0.442026, 44.932175, -120.981232, 33.989899, 13.767865, 100.802534
1759259132.033260, 2.883966, 14.639047, 1.717840, -0.946261, -2.437394, -0.446188, 42.650223, -119.965012, 34.899979, 13.767865, 100.802534
1759259132.053697, 1.044171, 11.160421, -0.490662, -0.769210, -2.060921, -0.529908, 40.540741, -119.402557, 34.769257, 13.767857, 100.802541
1759259132.073693, 0.250344, 7.164948, 0.125546, -0.565130, -1.166705, -0.576080, 39.153183, -118.367798, 35.753006, 13.767857, 100.802541
1759259132.093707, 0.163704, 4.900033, 0.631920, -0.078709, -0.730159, -0.607806, 38.375824, -118.565994, 35.459885, 13.767857, 100.802541
1759259132.112990, 0.607529, 5.320964, 1.483956, 0.247907, -0.769047, -0.482438, 37.632217, -118.494080, 35.514755, 13.767857, 100.802541
1759259132.133114, 1.106869, 7.431153, 2.240524, 0.381233, -1.305459, -0.160822, 36.524918, -118.750732, 35.927322, 13.767857, 100.802541
1759259132.153694, 1.543961, 10.071060, 2.447173, 0.321265, -1.986033, 0.136794, 34.772858, -119.224396, 35.393097, 13.767857, 100.802541
1759259132.173695, 1.871817, 11.486931, 1.348983, 0.156114, -2.171049, 0.294521, 33.354187, -119.324615, 36.380096, 13.767857, 100.802541
1759259132.193694, 2.215684, 10.827478, 0.510264, -0.125956, -1.699074, 0.260163, 31.790710, -119.141769, 35.798019, 13.767857, 100.802541
1759259132.212841, 2.307561, 9.566931, -0.009427, -0.349994, -0.989953, 0.115531, 31.208008, -118.934189, 36.109756, 13.767857, 100.802541
1759259132.232960, 2.175282, 8.242488, -0.129736, -0.491572, -0.358720, 0.022724, 30.968597, -118.271500, 37.416962, 13.767857, 100.802541
1759259132.253716, 2.018162, 7.433847, -0.395043, -0.705406, 0.100992, 0.037460, 31.106262, -117.676727, 37.012299, 13.767857, 100.802541
1759259132.273667, 2.109142, 6.894403, -0.522385, -0.965866, 0.509186, 0.087068, 31.517242, -116.772903, 37.607452, 13.767857, 100.802541
1759259132.293695, 2.620154, 7.293636, -0.492906, -1.271920, 0.819337, 0.056193, 31.949463, -117.052933, 37.686981, 13.767857, 100.802541
1759259132.312692, 3.243694, 8.341997, -0.519542, -1.563004, 1.109632, -0.068768, 32.806808, -115.909927, 38.504745, 13.767857, 100.802541
1759259132.332820, 3.790919, 9.429414, -0.229993, -1.723413, 1.414087, -0.205727, 33.778458, -114.714386, 37.982681, 13.767857, 100.802541
1759259132.353686, 4.319140, 9.761759, -0.441281, -1.783320, 1.658269, -0.345268, 34.899918, -113.390625, 38.671494, 13.767857, 100.802541
1759259132.373694, 4.703858, 9.710732, -0.743699, -1.991254, 1.995142, -0.589593, 36.269943, -111.875000, 39.795654, 13.767857, 100.802541
1759259132.393716, 4.462942, 10.099042, 0.507720, -2.141396, 2.038935, -0.598591, 37.422623, -110.241013, 39.969315, 13.767857, 100.802541
1759259132.413686, 4.199280, 8.764274, -3.164536, -1.858010, 1.519272, -0.473419, 38.558716, -108.840561, 40.957718, 13.767857, 100.802541
1759259132.432659, 4.423736, 8.689156, -3.555240, 0.338294, 1.745015, -0.555834, 39.601181, -109.144852, 40.197510, 13.767857, 100.802541
1759259132.453246, 4.806061, 10.434529, 4.135684, 0.622901, 0.362537, -0.080444, 39.731003, -109.701187, 39.864929, 13.767857, 100.802541
1759259132.473008, 5.393239, 9.305663, 0.298527, 0.682148, -0.749759, 0.129681, 39.325638, -110.054077, 40.388123, 13.767857, 100.802541
1759259132.493682, 5.231780, 9.371653, 1.526603, 0.485946, -0.729370, -0.082512, 38.862274, -110.429596, 39.438721, 13.767857, 100.802541
1759259132.513678, 4.539257, 9.410559, 0.978630, 0.654847, -0.913073, 0.058030, 38.026993, -110.865219, 39.156601, 13.767857, 100.802541
1759259132.533291, 3.950582, 9.109638, 0.398485, 0.527138, -0.762678, 0.389512, 37.535263, -111.191467, 39.375031, 13.767857, 100.802541
1759259132.553676, 3.808427, 9.062203, 1.136498, 0.601262, -0.681536, 0.558330, 37.067825, -111.620834, 38.708359, 13.767857, 100.802541
1759259132.573677, 3.968689, 10.447099, 0.596755, 0.839362, -0.610370, 0.717936, 37.022415, -112.074600, 39.237350, 13.767857, 100.802541
1759259132.593680, 3.649960, 10.951827, -1.379359, 1.333804, -0.406961, 0.846346, 37.088379, -113.012268, 38.000092, 13.767857, 100.802541
1759259132.613678, 2.868254, 11.871050, -1.561618, 3.370970, -0.499070, 0.804199, 37.608429, -115.847061, 36.629333, 13.767857, 100.802541
1759259132.633141, 1.838897, 12.431742, -1.851466, 2.629697, 0.114141, 1.118208, 37.727020, -117.650177, 35.956238, 13.767857, 100.802541
1759259132.653681, 2.179621, 13.164667, -0.256479, 1.931395, -0.263108, 1.260480, 38.086227, -118.966904, 35.111572, 13.767857, 100.802541
1759259132.673688, 2.319233, 12.942456, 0.685191, 1.796915, -0.297777, 1.137121, 37.998169, -120.246094, 34.995026, 13.767857, 100.802541
1759259132.693713, 2.196830, 12.577639, -0.881365, 1.422957, -0.030578, 0.775062, 38.357605, -121.459991, 33.803818, 13.767857, 100.802541
1759259132.713683, 2.299331, 12.173169, -1.614739, 2.108148, 0.502915, 0.461022, 38.908371, -123.282074, 33.401825, 13.767857, 100.802541
1759259132.733654, 1.562067, 9.376592, -0.735469, 2.564115, 0.370532, 0.192435, 39.153976, -125.493530, 33.584122, 13.767857, 100.802541
1759259132.753695, 1.636736, 6.869413, -1.102081, 1.795021, -0.133269, -0.035069, 38.855804, -126.876938, 33.139114, 13.767857, 100.802541
1759259132.773659, 2.313248, 6.622960, -1.413477, 1.226871, -0.733644, 0.037046, 37.943100, -127.901932, 33.735916, 13.767857, 100.802541
1759259132.793669, 2.584092, 7.003638, -1.224933, 1.308663, -0.865445, 0.515863, 37.375275, -128.976212, 32.471390, 13.767857, 100.802541
1759259132.813682, 3.699939, 7.408109, -1.033248, 1.099795, -0.561044, 0.981735, 37.075912, -130.383286, 33.805328, 13.767857, 100.802541
1759259132.833654, 4.716128, 7.000945, -1.479018, 0.790291, -0.423084, 1.400447, 36.621826, -130.861664, 33.158813, 13.767857, 100.802541
1759259132.853686, 4.601356, 5.560683, -0.990601, 0.581116, -0.398068, 1.313823, 36.362823, -131.112610, 32.894485, 13.767857, 100.802541
1759259132.873681, 3.355923, 4.854693, -0.924311, 0.297507, -0.556901, 0.728570, 35.825714, -131.103394, 33.739868, 13.767857, 100.802541
1759259132.893670, 1.600673, 5.181501, -1.717840, -0.098036, -0.508465, 0.288061, 35.580078, -130.948181, 33.423508, 13.767857, 100.802541
1759259132.913673, 0.497994, 5.196315, -1.977012, -0.517490, -0.180530, -0.111389, 35.462692, -130.643326, 33.982651, 13.767857, 100.802541
1759259132.933650, -0.126743, 5.278466, -2.020257, -0.821280, 0.061427, -0.490239, 35.227554, -130.170441, 33.346649, 13.767857, 100.802541
1759259132.953675, 0.744297, 4.409970, -2.732832, -1.074271, 0.236433, -0.834064, 35.561752, -129.059631, 33.362106, 13.767857, 100.802541
1759259132.973680, 2.075773, 4.807108, -2.953397, -1.426640, 0.633223, -1.404637, 36.087875, -128.068787, 34.026031, 13.767857, 100.802541
1759259132.993681, 3.564966, 7.351845, -3.340660, -1.676498, 1.170205, -1.598276, 37.021713, -126.903152, 33.298386, 13.767857, 100.802541
1759259133.013682, 5.397129, 10.315567, -5.739650, -1.682684, 1.689494, -1.281860, 38.426025, -125.570190, 33.434891, 13.767857, 100.802541
1759259133.033641, 7.514202, 12.888736, -7.430854, -1.207525, 2.142512, -0.620857, 40.251282, -124.365433, 33.118271, 13.767857, 100.802541
1759259133.053664, 7.788637, 12.925846, -3.709815, -0.582497, 2.120180, 0.112210, 42.187759, -123.776688, 33.639023, 13.767851, 100.802548
1759259133.073672, 8.385242, 10.184335, -4.428974, -0.211297, 2.115479, 0.183436, 44.354767, -123.468536, 34.420425, 13.767851, 100.802548
1759259133.093656, 8.580519, 8.158541, -6.046556, -0.279225, 2.522648, 0.029622, 46.292542, -122.996857, 33.570374, 13.767851, 100.802548
1759259133.113674, 8.117391, 5.806238, -3.924396, -0.147243, 2.348102, 0.063028, 48.294891, -122.727982, 33.909775, 13.767851, 100.802548
1759259133.133643, 7.579294, 9.692626, -2.104054, -0.226783, 1.312017, -0.323764, 49.488876, -122.350632, 34.417831, 13.767851, 100.802548
1759259133.153677, 5.165939, 15.650896, 3.353379, -1.017592, 0.036293, -0.501768, 49.015381, -121.106781, 33.654602, 13.767851, 100.802548
1759259133.173646, 3.272724, 15.971719, 2.821567, -0.909824, -1.645099, -0.696149, 47.014404, -120.463303, 34.666046, 13.767851, 100.802548
1759259133.193674, 1.682076, 12.796709, 1.473781, -0.591190, -2.170237, -1.017401, 44.817337, -119.814072, 34.201355, 13.767851, 100.802548
1759259133.213672, 0.353294, 8.343045, 0.956334, -0.382387, -1.966335, -1.071799, 42.716629, -119.317352, 34.223206, 13.767851, 100.802548
1759259133.233640, -0.212785, 5.438429, 0.626832, -0.101068, -1.682178, -0.955440, 41.208862, -119.250412, 35.139816, 13.767851, 100.802548
1759259133.253664, -0.366163, 4.149451, 0.563535, 0.226453, -1.156778, -0.839923, 40.074112, -119.642090, 34.940475, 13.767851, 100.802548
1759259133.273669, -0.282366, 5.118654, 1.227328, 0.457732, -0.572429, -0.539075, 39.716522, -119.920120, 35.086319, 13.767851, 100.802548
1759259133.293651, 0.209193, 8.279149, 2.145354, 0.465447, -0.353886, -0.032005, 39.547714, -120.559647, 34.114334, 13.767851, 100.802548
1759259133.313672, 0.823007, 11.291504, 2.455254, 0.296106, -0.280595, 0.284864, 39.487122, -121.608490, 34.940765, 13.767851, 100.802548
1759259133.333638, 1.555184, 12.051962, 3.355025, -0.121130, -0.345397, 0.361037, 39.126236, -121.510651, 34.428604, 13.767851, 100.802548
1759259133.353668, 1.755099, 10.655843, 1.384597, -0.448523, -0.188450, 0.037790, 39.082367, -121.005859, 34.621185, 13.767851, 100.802548
1759259133.373667, 1.745972, 8.974665, 0.943615, -0.509281, 0.296070, -0.226750, 39.113144, -120.551270, 35.687027, 13.767851, 100.802548
1759259133.393663, 1.865382, 7.796269, 0.753276, -0.617791, 0.315152, -0.155042, 39.525574, -119.846619, 35.234467, 13.767851, 100.802548
1759259133.413667, 2.214936, 7.407510, 0.465971, -0.755846, 0.179595, -0.060585, 39.660263, -119.332413, 35.795395, 13.767851, 100.802548
1759259133.433517, 2.827851, 7.699154, -0.361375, -0.965367, 0.133124, -0.085085, 40.097733, -118.427124, 35.593933, 13.767851, 100.802548
1759259133.453668, 3.996222, 7.501932, -4.654029, -1.930217, 1.126866, -0.318461, 40.894775, -116.700653, 36.206482, 13.767851, 100.802548
1759259133.473666, 4.351761, 9.542839, 1.294365, -2.750292, 2.047794, -0.565255, 42.204742, -114.052872, 37.630936, 13.767851, 100.802548
1759259133.493645, 4.807108, 10.088867, 2.555511, -2.137712, 1.103985, -0.492399, 43.123367, -112.603943, 37.454361, 13.767851, 100.802548
1759259133.513655, 5.668422, 9.567080, -3.134459, -1.932946, 0.963526, -0.614723, 43.726624, -111.135757, 38.627518, 13.767851, 100.802548
1759259133.533393, 5.008071, 10.440216, -9.538499, -1.076571, 3.056807, -0.850891, 45.962280, -110.314209, 39.219604, 13.767851, 100.802548
1759259133.553667, 4.241478, 9.975591, 1.429638, -0.137151, 3.278919, -0.558612, 47.436218, -110.118546, 39.550186, 13.767851, 100.802548
1759259133.573661, 4.311059, 7.646781, 4.568735, -0.111736, 0.608735, -0.034855, 47.524445, -109.699097, 39.859863, 13.767851, 100.802548
1759259133.593657, 4.273201, 6.647651, 1.690306, 0.323319, -1.479959, 0.023828, 46.540024, -109.924545, 38.970062, 13.767851, 100.802548
1759259133.613666, 5.044583, 8.614188, -0.080804, 0.288941, -1.607517, -0.135884, 45.427887, -110.216858, 39.025879, 13.767851, 100.802548
1759259133.633250, 5.112818, 10.673351, 0.154127, 0.315256, -1.317281, -0.039577, 44.383194, -110.416962, 39.547546, 13.767851, 100.802548
1759259133.653664, 4.487332, 10.450092, 0.472855, 0.403837, -0.920867, 0.260264, 43.735886, -110.541107, 38.390228, 13.767851, 100.802548
1759259133.673664, 3.656096, 9.068787, 0.616208, 0.674997, -0.695615, 0.375070, 43.346695, -111.183609, 38.852142, 13.767851, 100.802548
1759259133.693663, 3.359663, 9.042002, 0.045340, 0.771947, -0.370506, 0.545709, 43.493546, -111.792725, 37.701202, 13.767851, 100.802548
1759259133.713655, 3.919458, 8.976909, 0.893636, 0.907734, -0.130435, 0.663302, 43.921692, -112.492416, 37.601807, 13.767851, 100.802548
1759259133.733106, 4.292804, 10.274567, 0.752677, 1.143680, -0.089516, 0.697204, 44.109558, -113.483444, 37.487488, 13.767851, 100.802548
1759259133.753643, 4.110096, 10.336966, 0.190040, 1.277971, -0.064112, 0.759169, 44.274231, -115.136673, 36.208862, 13.767851, 100.802548
1759259133.773655, 2.877980, 11.403283, -2.622848, 3.162166, -0.248379, 0.695211, 44.839066, -118.035492, 35.667892, 13.767851, 100.802548
1759259133.793628, 1.949179, 12.044031, -2.052280, 2.527169, 0.271447, 1.277878, 45.263657, -119.459412, 34.537033, 13.767851, 100.802548
1759259133.813644, 3.040486, 13.351415, 0.448614, 1.479404, -0.357143, 1.794047, 44.833832, -120.695694, 34.213699, 13.767851, 100.802548
1759259133.832967, 3.277662, 12.542175, 2.048838, 1.223604, -1.384996, 1.627710, 44.206955, -122.077454, 34.091537, 13.767851, 100.802548
1759259133.853647, 3.311630, 13.647398, -1.793257, 1.140811, -1.321703, 0.963438, 43.381592, -123.174240, 33.734680, 13.767851, 100.802548
1759259133.872713, 2.804209, 13.332710, -3.519327, 2.116323, -0.149336, 0.534343, 43.454727, -124.963791, 33.518051, 13.767851, 100.802548
1759259133.892658, 2.304419, 9.416694, -2.913594, 2.019440, 0.619982, 0.340555, 43.957428, -126.645584, 32.613342, 13.767851, 100.802548
1759259133.913623, 2.718915, 7.384167, 0.010026, 1.332804, 0.178916, 0.186828, 43.752991, -127.726013, 33.302185, 13.767851, 100.802548
1759259133.932831, 2.892645, 6.749254, 0.389058, 1.250154, -1.093119, 0.370784, 42.834061, -128.812775, 32.507736, 13.767851, 100.802548
1759259133.953634, 2.386421, 6.397307, 0.112378, 1.369541, -1.477134, 0.634816, 41.486877, -130.015274, 32.620636, 13.767851, 100.802548
1759259133.973153, 3.388544, 6.585102, -0.338331, 1.199209, -1.410494, 0.906379, 40.265411, -131.272934, 32.866302, 13.767851, 100.802548
1759259133.993353, 3.220052, 6.470031, -1.404349, 0.938109, -1.175102, 0.948789, 39.319168, -131.958023, 32.124268, 13.767851, 100.802548
1759259134.013482, 2.580201, 6.446837, -0.943315, 0.672641, -0.857198, 0.685348, 38.563583, -132.403458, 32.149002, 13.767851, 100.802548
1759259134.032679, 1.606509, 6.372168, -0.802806, 0.343593, -0.719451, 0.446590, 38.092285, -132.419907, 32.730530, 13.767851, 100.802548
1759259134.053640, 0.679654, 5.956175, -0.975787, 0.033164, -0.438994, 0.112378, 37.766998, -132.372101, 32.096313, 13.767844, 100.802554
1759259134.073637, -0.011372, 5.654955, -1.202189, -0.284105, -0.122228, -0.350762, 37.834564, -131.982681, 32.454849, 13.767844, 100.802554
1759259134.093646, -0.364068, 5.687276, -2.585439, -0.941479, 0.419950, -0.718351, 38.039093, -131.176804, 32.022064, 13.767844, 100.802554
1759259134.113327, 0.634613, 4.803367, -3.185635, -1.203133, 0.666770, -0.917219, 38.609512, -129.956070, 31.980164, 13.767844, 100.802554
1759259134.132991, 1.815403, 5.648520, -2.722955, -1.679666, 1.144068, -1.367150, 39.802673, -128.432419, 32.255508, 13.767844, 100.802554
1759259134.152929, 3.393332, 8.139089, -2.802862, -1.986499, 1.541051, -1.428164, 41.484665, -126.703491, 32.227203, 13.767844, 100.802554
1759259134.173632, 5.734712, 11.079019, -5.971438, -1.715086, 1.544571, -1.029166, 42.737885, -125.533966, 33.151764, 13.767844, 100.802554
1759259134.193642, 8.120085, 13.245172, -8.189516, -0.941623, 1.833484, -0.300756, 44.666092, -124.704758, 32.312988, 13.767844, 100.802554
1759259134.213206, 8.592341, 11.859528, -3.712808, -0.268180, 2.343475, 0.311155, 47.053207, -124.597641, 32.852417, 13.767844, 100.802554
1759259134.233620, 9.525481, 9.630227, -4.335301, 0.094390, 2.487911, 0.342893, 49.259155, -124.401718, 33.578415, 13.767844, 100.802554
1759259134.253279, 9.540295, 6.521506, -3.996371, -0.221172, 2.579517, 0.361557, 51.218842, -124.072540, 33.591736, 13.767844, 100.802554
1759259134.272937, 8.320749, 2.588431, -2.559551, -0.185180, 1.952507, 0.152453, 52.675461, -123.853043, 34.465866, 13.767844, 100.802554
1759259134.293633, 7.526622, 5.093215, -1.509245, -0.501773, 0.781586, -0.840493, 52.972382, -122.900803, 34.115631, 13.767844, 100.802554
1759259134.313038, 5.330091, 15.092149, 1.574487, -1.883250, -0.179592, -1.011031, 52.250549, -122.852905, 35.226822, 13.767844, 100.802554
1759259134.333618, 4.340538, 17.251270, 4.235792, -1.339993, -1.983286, -0.739745, 50.185272, -121.643799, 34.391830, 13.767844, 100.802554
1759259134.353655, 2.064400, 14.808586, 0.358532, -0.439075, -3.177322, -0.697328, 47.374405, -120.982513, 34.318695, 13.767844, 100.802554
1759259134.373633, 0.831835, 10.335619, 0.099210, -0.359830, -2.329900, -0.623181, 45.039200, -120.493576, 35.237961, 13.767844, 100.802554
1759259134.393632, 0.196175, 7.049876, 0.807893, 0.323983, -1.233177, -0.678838, 43.532623, -121.083984, 34.390060, 13.767844, 100.802554
1759259134.412866, 0.224756, 6.230910, 1.522563, 0.633975, -0.849410, -0.523187, 42.751190, -121.360703, 35.198364, 13.767844, 100.802554
1759259134.433606, 0.549020, 6.806566, 2.110788, 0.618605, -1.068128, -0.113972, 41.797913, -121.855988, 33.857376, 13.767844, 100.802554
1759259134.453613, 1.078887, 8.643068, 1.606060, 0.292522, -1.596750, 0.529543, 40.623932, -122.338226, 34.052658, 13.767844, 100.802554
1759259134.473611, 1.517924, 9.435998, 0.841712, 0.215191, -0.960351, 0.590286, 39.628540, -122.446121, 34.727249, 13.767844, 100.802554
1759259134.493617, 1.849371, 9.740061, 0.812233, -0.038691, -0.043198, 0.418409, 39.574905, -122.368301, 34.145721, 13.767844, 100.802554
1759259134.512725, 1.804630, 9.617807, 0.351499, -0.191912, 0.450428, 0.294788, 40.279846, -122.207947, 34.518173, 13.767844, 100.802554
1759259134.533597, 1.768118, 8.554333, 0.660201, -0.683799, 1.470069, 0.087032, 41.582092, -121.670715, 33.999741, 13.767844, 100.802554
1759259134.553611, 1.951723, 7.600393, 0.887650, -0.997360, 1.312455, 0.059828, 42.636688, -120.736847, 34.138168, 13.767844, 100.802554
1759259134.573618, 2.407968, 7.350798, 0.858920, -1.192285, 0.911500, -0.061343, 43.564178, -119.464691, 35.245132, 13.767844, 100.802554
1759259134.593612, 3.263447, 7.693917, -0.756119, -1.547354, 0.519763, -0.293686, 44.118393, -118.212280, 34.912949, 13.767844, 100.802554
1759259134.613681, 3.995025, 8.659977, -0.834978, -2.795177, 0.832099, -0.734256, 44.516144, -115.695068, 35.697556, 13.767844, 100.802554
1759259134.633109, 4.318541, 10.010307, 2.461539, -2.976597, 0.182411, -0.771472, 44.271301, -113.220947, 37.222626, 13.767844, 100.802554
1759259134.653624, 4.984877, 9.587132, 0.049081, -2.528465, -0.682847, -0.824646, 43.615417, -111.066116, 38.118332, 13.767844, 100.802554
1759259134.673624, 5.760898, 10.062081, -7.826496, -2.568833, -0.088684, -1.122438, 43.057938, -109.389008, 39.632324, 13.767844, 100.802554
1759259134.693622, 5.354033, 10.127772, -4.956895, 0.062873, 1.378110, -0.896315, 43.479187, -109.353363, 39.389801, 13.767844, 100.802554
1759259134.713621, 4.213196, 8.957906, 3.414281, 0.543082, 0.786029, -0.189466, 44.110611, -109.460999, 38.910782, 13.767844, 100.802554
1759259134.733598, 4.602553, 7.338976, 1.005565, 0.926574, -0.267700, 0.032989, 44.011383, -110.293915, 39.355179, 13.767844, 100.802554
1759259134.753625, 5.248240, 8.286182, 0.516399, 0.616984, -0.179331, -0.189927, 43.611450, -110.780396, 38.607803, 13.767844, 100.802554
1759259134.773623, 5.487361, 9.479841, 1.480664, 0.613554, -0.347644, -0.152613, 43.376877, -111.294937, 38.411926, 13.767844, 100.802554
1759259134.793618, 5.412242, 9.402329, 1.057938, 0.626757, -0.514281, 0.030417, 42.927185, -111.834442, 38.005508, 13.767844, 100.802554
1759259134.813657, 5.306748, 9.386468, 0.611868, 0.548861, -0.493164, 0.160533, 42.764587, -112.234802, 37.770752, 13.767844, 100.802554
1759259134.833596, 5.065383, 10.341156, 1.001076, 0.476120, -0.382289, 0.365240, 42.275467, -112.639099, 37.818436, 13.767844, 100.802554
1759259134.853619, 5.026477, 11.025897, 1.062128, 0.565060, -0.438391, 0.766943, 42.332275, -113.842911, 37.302902, 13.767844, 100.802554
1759259134.873623, 4.767454, 10.174310, 1.553089, 0.740804, -0.598779, 0.915911, 42.341141, -114.141586, 37.227417, 13.767844, 100.802554
1759259134.893616, 4.114585, 10.456975, 0.724246, 1.052611, -1.057242, 0.836140, 41.582886, -114.968765, 36.089355, 13.767844, 100.802554
1759259134.913479, 2.006191, 13.158233, -4.386626, 3.283682, -1.906650, 0.879421, 40.963089, -117.510925, 36.034134, 13.767844, 100.802554
1759259134.933104, 1.371279, 13.620314, -4.253898, 2.066537, -0.453172, 1.596405, 40.569473, -119.452179, 34.348694, 13.767844, 100.802554
1759259134.953622, 2.209549, 12.979566, 0.354791, 1.630929, -0.017685, 1.278028, 40.666412, -120.592438, 34.440125, 13.767844, 100.802554
1759259134.973621, 1.732355, 11.881675, 0.574159, 1.445038, 0.064722, 0.703335, 41.034866, -121.753677, 34.389145, 13.767844, 100.802554
1759259134.993632, 1.356615, 11.444733, -1.081132, 1.658532, 0.386322, 0.097031, 41.267319, -123.166580, 33.115234, 13.767844, 100.802554
1759259135.013613, 1.132906, 10.156652, -0.450858, 2.467591, 0.322389, -0.031727, 41.492340, -125.256439, 33.351776, 13.767844, 100.802554
1759259135.033295, 1.441459, 7.177966, -0.473304, 2.374558, -0.132334, -0.049283, 41.380035, -127.337830, 32.503571, 13.767844, 100.802554
1759259135.053611, 2.396596, 6.194847, -2.129044, 1.326593, -0.455079, -0.060233, 40.977982, -128.536896, 32.367691, 13.767837, 100.802561
1759259135.073617, 3.464260, 7.571812, -1.841141, 1.089633, -0.661738, 0.585699, 40.356430, -129.466995, 33.048782, 13.767837, 100.802561
1759259135.093615, 4.176834, 7.626580, -0.389207, 0.999094, -1.052517, 1.341216, 39.544846, -130.053558, 32.095413, 13.767837, 100.802561
1759259135.113611, 5.036502, 6.870162, -1.162535, 0.739895, -1.371719, 1.689704, 38.310120, -130.608597, 32.252655, 13.767837, 100.802561
1759259135.133582, 5.166388, 5.263353, -2.123208, 0.534480, -1.100503, 1.363436, 37.609467, -130.867874, 32.891785, 13.767837, 100.802561
1759259135.153244, 3.908085, 5.211578, -1.492336, 0.217841, -0.605919, 0.627733, 36.973419, -130.901321, 32.872528, 13.767837, 100.802561
1759259135.173594, 2.100014, 5.669769, -1.121683, -0.178461, -0.411184, 0.319684, 36.537735, -130.606827, 33.126801, 13.767837, 100.802561
1759259135.193616, 0.736516, 5.364059, -0.903811, -0.469586, -0.338344, -0.127823, 36.388565, -130.125763, 32.406479, 13.767837, 100.802561
1759259135.212979, -0.156072, 5.533000, -1.127819, -0.729338, -0.277007, -0.648116, 36.093430, -129.719513, 32.622269, 13.767837, 100.802561
1759259135.233588, -0.518794, 5.864298, -2.038214, -1.000955, -0.122228, -0.982500, 36.021637, -128.845840, 32.736755, 13.767837, 100.802561
1759259135.253628, -0.202310, 6.276400, -2.628983, -1.308146, 0.233351, -1.109715, 36.084564, -127.706467, 32.364090, 13.767837, 100.802561
1759259135.273611, 1.315015, 6.918195, -2.874538, -1.644222, 0.805663, -1.175177, 36.980286, -126.341797, 33.475220, 13.767837, 100.802561
1759259135.293611, 3.156605, 8.828020, -4.306121, -1.850260, 1.504365, -1.004193, 38.313644, -124.938614, 33.012436, 13.767837, 100.802561
1759259135.312954, 5.670068, 11.751340, -6.652888, -1.465289, 1.909019, -0.531338, 40.107910, -123.789856, 33.183762, 13.767837, 100.802561
1759259135.333585, 7.248595, 12.976573, -3.833715, -0.808869, 1.608503, 0.257736, 41.521164, -123.088379, 33.794205, 13.767837, 100.802561
1759259135.353607, 8.156147, 11.094581, -1.992275, -0.421161, 1.424192, 0.402151, 41.901199, -123.831055, 33.463974, 13.767837, 100.802561
1759259135.373609, 9.636512, 9.899725, -7.189937, -0.101955, 2.111921, 0.228349, 43.807495, -123.530319, 34.258041, 13.767837, 100.802561
1759259135.393673, 10.196755, 7.800758, -7.080552, 0.057736, 3.709897, 0.492283, 46.653534, -123.428452, 33.701965, 13.767837, 100.802561
1759259135.412700, 9.657761, 3.717148, -2.123507, 0.075869, 3.009516, 0.309856, 49.591522, -123.238037, 34.942032, 13.767837, 100.802561
1759259135.433584, 7.424270, 7.858368, 0.055665, -0.469055, 0.115820, -0.662315, 50.305130, -123.126740, 33.918716, 13.767837, 100.802561
1759259135.453606, 5.029769, 14.980221, 3.587711, -1.389287, -1.287233, -0.712855, 48.820038, -121.863403, 34.268158, 13.767837, 100.802561
1759259135.473605, 4.156184, 15.169512, 3.303549, -1.097543, -2.209291, -0.565930, 46.901627, -120.758972, 34.885895, 13.767837, 100.802561
1759259135.493608, 2.213439, 12.569409, 0.296133, -0.687331, -2.337678, -0.736590, 44.716125, -119.963562, 34.700256, 13.767837, 100.802561
1759259135.512668, 0.420332, 8.461558, 0.130035, -0.547183, -1.338350, -0.985545, 42.925461, -119.454895, 35.272980, 13.767837, 100.802561
1759259135.533591, -0.116268, 5.738452, 0.692373, -0.100228, -0.702016, -1.047215, 41.820312, -119.103455, 34.819901, 13.767837, 100.802561
1759259135.553607, -0.123750, 5.163694, 1.225382, 0.229021, -0.546078, -0.820640, 41.106308, -119.237579, 34.730515, 13.767837, 100.802561
1759259135.573605, 0.161459, 6.646304, 2.099416, 0.329381, -0.870737, -0.326604, 40.395554, -119.483170, 35.245422, 13.767837, 100.802561
1759259135.593599, 0.798915, 9.228750, 2.724452, 0.186873, -1.609699, 0.165538, 39.037415, -119.640656, 35.060547, 13.767837, 100.802561
1759259135.613609, 1.534085, 11.033678, 2.021903, -0.015186, -2.086494, 0.403116, 37.411026, -119.642563, 34.776657, 13.767837, 100.802561
1759259135.633579, 1.934665, 10.552145, 0.806247, -0.159385, -1.825512, 0.286507, 35.793533, -119.209457, 35.688171, 13.767837, 100.802561
1759259135.653610, 2.076222, 9.411906, 0.080804, -0.369067, -1.061795, -0.074147, 35.047409, -118.940933, 35.374435, 13.767837, 100.802561
1759259135.673611, 2.158672, 8.741530, -0.027084, -0.592823, -0.263094, -0.195504, 34.742676, -118.156662, 36.277374, 13.767837, 100.802561
1759259135.693618, 2.434005, 8.160337, 0.111779, -0.782448, 0.139244, -0.085195, 35.015656, -117.508331, 36.242767, 13.767837, 100.802561
1759259135.713562, 2.664597, 7.375039, 0.001047, -0.978590, 0.272872, 0.050454, 35.341278, -116.550507, 36.443130, 13.767837, 100.802561
1759259135.733584, 3.041684, 7.054814, -0.646434, -1.235550, 0.434625, 0.054381, 35.723633, -115.413223, 37.399872, 13.767837, 100.802561
1759259135.753628, 3.678840, 7.430255, -2.007837, -1.751752, 1.106887, -0.152351, 36.759903, -113.890198, 37.208954, 13.767837, 100.802561
1759259135.773609, 4.248660, 9.062951, 0.407164, -2.091988, 1.657322, -0.369785, 37.797668, -112.309174, 38.650238, 13.767837, 100.802561
1759259135.793611, 4.782119, 9.909301, 0.587178, -1.915537, 1.374897, -0.423597, 38.811478, -110.727631, 38.723816, 13.767837, 100.802561
1759259135.813423, 5.019294, 9.761908, -1.236904, -2.083986, 1.552120, -0.491431, 39.872635, -109.226532, 40.113235, 13.767837, 100.802561
1759259135.833579, 4.458452, 9.677064, 0.758812, -2.215661, 1.699923, -0.442341, 40.592239, -107.381348, 41.593796, 13.767837, 100.802561
1759259135.853598, 3.158700, 8.339004, -8.980052, -0.392045, 1.190667, -0.338568, 41.770233, -107.676208, 40.881470, 13.767837, 100.802561
1759259135.873609, 4.139126, 9.413702, 2.513164, 0.406489, 1.090904, -0.160982, 41.936447, -108.689697, 40.962509, 13.767837, 100.802561
1759259135.893607, 4.882825, 9.395596, 2.236783, 0.920147, -0.345983, 0.316082, 42.025040, -109.346024, 40.021469, 13.767837, 100.802561
1759259135.913263, 5.496488, 9.271546, -0.333393, 0.714440, -0.301812, 0.189175, 41.800903, -109.772400, 40.618790, 13.767837, 100.802561
1759259135.933578, 5.080945, 10.010905, 1.392378, 0.763784, -0.188271, -0.016557, 41.698410, -110.397964, 39.544159, 13.767837, 100.802561
1759259135.953599, 4.643105, 8.827122, 0.919074, 0.896012, -0.231453, 0.116592, 41.500336, -110.932678, 39.029053, 13.767837, 100.802561
1759259135.973596, 4.535665, 8.539369, 0.670376, 0.896570, -0.176254, 0.177939, 41.483688, -111.437866, 39.351486, 13.767837, 100.802561
1759259135.993591, 4.591929, 9.301025, 1.304092, 0.830868, -0.135854, 0.285002, 41.402725, -112.143097, 38.177948, 13.767837, 100.802561
1759259136.013135, 5.223549, 10.587758, 1.623418, 0.818259, -0.401415, 0.487370, 41.574997, -112.812607, 38.227905, 13.767837, 100.802561
1759259136.033566, 5.544672, 11.480646, 1.284639, 0.775652, -0.634608, 0.659224, 41.220367, -113.397202, 37.448898, 13.767837, 100.802561
1759259136.053596, 4.948516, 11.027394, 1.674744, 0.756601, -0.918906, 0.710968, 40.802811, -113.762070, 37.349289, 13.767832, 100.802570
1759259136.072900, 3.588759, 11.362731, 0.155623, 0.671730, -1.293270, 0.855127, 39.847443, -114.353485, 37.443649, 13.767832, 100.802570
1759259136.093590, 0.350451, 12.406753, -7.806594, 3.201887, -1.802213, 0.819386, 39.278458, -116.877426, 35.608871, 13.767832, 100.802570
1759259136.112996, 0.510863, 11.963227, -2.750190, 2.054450, -0.521248, 1.210414, 39.130157, -117.979736, 35.362320, 13.767832, 100.802570
1759259136.133567, 1.929128, 11.764658, 0.606930, 1.411091, -0.236982, 0.718679, 38.934616, -119.002670, 35.577087, 13.767832, 100.802570
1759259136.153592, 1.955763, 11.825261, -0.608576, 1.153026, 0.622285, 0.237067, 39.960678, -119.846771, 34.356506, 13.767832, 100.802570
1759259136.173503, 1.651700, 11.591378, -0.689530, 1.672627, 1.397303, 0.052772, 41.026886, -121.233612, 34.226501, 13.767832, 100.802570
1759259136.193598, 1.271321, 9.175479, 0.652570, 2.218574, 1.230606, 0.148762, 41.935959, -123.143768, 33.102158, 13.767832, 100.802570
1759259136.212872, 1.671302, 7.031022, 2.354248, 1.896929, 0.151817, 0.165953, 41.589737, -124.524460, 32.494690, 13.767832, 100.802570
1759259136.233569, 2.705149, 6.532729, -0.046986, 1.483437, -1.436047, 0.289769, 40.411209, -125.955978, 32.712921, 13.767832, 100.802570
1759259136.253602, 4.015076, 6.711546, -5.875221, 1.167247, -1.244956, 0.518765, 40.083908, -126.944931, 32.062637, 13.767832, 100.802570
1759259136.273320, 4.491522, 7.249044, -3.584270, 0.623052, 0.363262, 0.890670, 40.454956, -127.073914, 32.693893, 13.767832, 100.802570
1759259136.293496, 4.858583, 7.051223, -0.051775, 0.308940, 0.578447, 1.183542, 41.003372, -127.220001, 31.985550, 13.767832, 100.802570
1759259136.312733, 4.603900, 6.210858, 0.547524, 0.256851, -0.406575, 1.047498, 40.401230, -127.278412, 31.731644, 13.767832, 100.802570
1759259136.333572, 2.742408, 5.716156, -1.014393, 0.144748, -1.110610, 0.566123, 39.570206, -127.413788, 32.822891, 13.767832, 100.802570
1759259136.353579, 1.010203, 5.314828, -1.955315, -0.205911, -0.896159, 0.134635, 38.984650, -127.045578, 32.192780, 13.767832, 100.802570
1759259136.373216, 0.079906, 5.188983, -1.548151, -0.528025, -0.330099, -0.383347, 38.853043, -127.556396, 33.380356, 13.767832, 100.802570
1759259136.393342, -0.264859, 5.509357, -1.287033, -0.633075, 0.016872, -0.814541, 38.484360, -127.091141, 32.810211, 13.767832, 100.802570
1759259136.412608, 0.103400, 6.069600, -2.050933, -0.729129, 0.201205, -0.919275, 38.605560, -126.441940, 33.383118, 13.767832, 100.802570
1759259136.433563, 1.672649, 6.593182, -3.248782, -1.064823, 0.638145, -1.086383, 39.304871, -125.595215, 33.152191, 13.767832, 100.802570
1759259136.453595, 3.450494, 8.950573, -4.732738, -1.357368, 1.256238, -1.089642, 40.137695, -124.483139, 33.227844, 13.767832, 100.802570
1759259136.473051, 5.884648, 11.428123, -5.997774, -1.248403, 1.507177, -0.583678, 41.555130, -123.265213, 33.756104, 13.767832, 100.802570
1759259136.493186, 7.118560, 11.644349, -4.343830, -1.189161, 1.430881, 0.166952, 42.859970, -122.085770, 33.668289, 13.767832, 100.802570
1759259136.513595, 7.799710, 10.613945, -2.189198, -0.580865, 1.585355, 0.333464, 44.314011, -121.831451, 34.176727, 13.767832, 100.802570
1759259136.533566, 9.346215, 9.954342, -6.217592, 0.030175, 2.059527, 0.079276, 46.619720, -121.742340, 33.603729, 13.767832, 100.802570
1759259136.553592, 10.011803, 8.355315, -8.061876, 0.208438, 3.514525, 0.218095, 49.649612, -121.497711, 34.351395, 13.767832, 100.802570
1759259136.572900, 9.359832, 4.368819, -3.206135, 0.199827, 3.363343, 0.261412, 52.176819, -121.556778, 35.296692, 13.767832, 100.802570
1759259136.593042, 7.723994, 5.887791, 0.944064, -0.004326, 0.338343, -0.592698, 52.520370, -121.357422, 34.366394, 13.767832, 100.802570
1759259136.613592, 4.879533, 14.512902, 3.463662, -1.273181, -1.530684, -0.777587, 50.638931, -120.107605, 34.739182, 13.767832, 100.802570
1759259136.633555, 4.406229, 15.460108, 3.799149, -1.305289, -2.711803, -0.601081, 48.163681, -118.780487, 34.709808, 13.767832, 100.802570
1759259136.653593, 2.684648, 14.136264, 1.168670, -0.795543, -2.912129, -0.833365, 45.441147, -118.053497, 34.500732, 13.767832, 100.802570
1759259136.672753, 0.942418, 10.336217, 0.589722, -0.704454, -2.441730, -1.127440, 42.761810, -117.206131, 35.484970, 13.767832, 100.802570
1759259136.692891, 0.207996, 6.861932, 0.605434, -0.465364, -1.993765, -1.170452, 40.597733, -116.766388, 35.117889, 13.767832, 100.802570
1759259136.713581, -0.105943, 5.473295, 0.495001, -0.062802, -1.464299, -0.975378, 39.195206, -116.709793, 34.975830, 13.767832, 100.802570
1759259136.733432, -0.101754, 5.544073, 0.928052, 0.280830, -1.030256, -0.587826, 38.228043, -117.160202, 35.330399, 13.767832, 100.802570
