SamplingTime, AccelerationX, AccelerationY, AccelerationZ, GyroX, GyroY, GyroZ, MagneticFieldX, MagneticFieldY, MagneticFieldZ, Latitude, Longitude
1759223377.864789, 2.541445, -2.148197, -8.516026, -0.215493, 0.102874, -0.099034, -65.723572, -204.757416, -883.932007, 13.726850, 100.771878
1759223377.885264, 2.902371, -1.126322, -9.601796, -0.173379, 0.294917, 0.548533, -65.920609, -205.044418, -883.868103, 13.726850, 100.771878
1759223377.905434, 2.215235, -0.686088, -9.966463, -0.426296, 0.574352, 1.366619, -66.382828, -206.243973, -883.503418, 13.726850, 100.771878
1759223377.924592, 1.393276, -0.736516, -8.683769, -0.926797, 0.248408, 2.250418, -67.111633, -207.940842, -883.610535, 13.726850, 100.771878
1759223377.945369, 1.637484, -0.168642, -9.956587, -1.192212, 0.892689, 3.115094, -67.997406, -210.317825, -883.346130, 13.726850, 100.771878
1759223377.964690, 0.588525, 0.120009, -11.883321, -0.296692, 1.672252, 3.587391, -69.126358, -213.011902, -882.132019, 13.726850, 100.771878
1759223377.985304, -2.295441, -2.422483, -13.422194, 1.739250, 1.966721, 2.572830, -70.098389, -214.808167, -879.793884, 13.726850, 100.771878
1759223378.005274, -2.742857, -5.425261, -10.084377, 2.902631, 0.591062, 0.736225, -70.405502, -215.234894, -878.524719, 13.726850, 100.771878
1759223378.025256, -1.014842, -6.318149, -6.534525, 3.064034, -0.840415, -0.640551, -70.225662, -214.451126, -877.628662, 13.726850, 100.771878
1759223378.044838, 1.045668, -5.046977, -3.975422, 2.572786, -2.056781, -1.281353, -69.505554, -213.405029, -878.118164, 13.726850, 100.771878
1759223378.064601, 1.247678, -3.761889, -2.437746, 1.536142, -3.007623, -1.658056, -69.136780, -212.769547, -878.311890, 13.726850, 100.771878
1759223378.085199, 2.059013, -3.810970, -1.969231, 0.751028, -4.196525, -1.580509, -68.719193, -211.494904, -880.273926, 13.726850, 100.771878
1759223378.105161, 2.499995, -4.725705, -7.751228, -0.432097, -2.397259, -0.898667, -68.597717, -210.416199, -884.453430, 13.726850, 100.771878
1759223378.124385, 4.352210, -2.731934, -6.758083, -1.544268, -0.534935, 0.552753, -68.461105, -210.436722, -884.313049, 13.726850, 100.771878
1759223378.145117, 2.410961, -1.323096, -6.362890, -2.066709, -0.031752, 1.541942, -69.322586, -211.766006, -885.956238, 13.726850, 100.771878
1759223378.164516, 1.393126, -1.166126, -6.198438, -2.133381, -0.853018, 1.850881, -69.664795, -212.073059, -886.450562, 13.726850, 100.771878
1759223378.184242, 1.096694, 0.032471, -6.973412, -2.010398, -1.166145, 2.260917, -70.550446, -213.253220, -888.220642, 13.726850, 100.771878
1759223378.205067, -0.096217, 2.425476, -7.945457, -1.527537, -1.543954, 2.719400, -71.949341, -214.859482, -889.821045, 13.726850, 100.771878
1759223378.224299, -2.547431, 1.822586, -9.809942, -0.577722, -2.259927, 2.575826, -73.525253, -216.548676, -891.547607, 13.726850, 100.771878
1759223378.245010, -4.721515, 1.031302, -9.597756, 0.294011, -2.178050, 2.119539, -75.111664, -217.828384, -892.948059, 13.726850, 100.771878
1759223378.264430, -3.650409, 0.869095, -6.641515, 0.205376, -1.957330, 2.006761, -76.803513, -219.003372, -893.937927, 13.726850, 100.771878
1759223378.284952, -1.321599, 1.048660, -3.751564, -0.233892, -2.789651, 2.410589, -79.065994, -220.154739, -895.376221, 13.726850, 100.771878
1759223378.304947, -0.621146, 2.063503, -3.042132, -0.382200, -3.552492, 3.025611, -81.876938, -221.232956, -897.292664, 13.726850, 100.771878
1759223378.324183, 1.652149, 5.306449, -2.290353, -0.342326, -5.041972, 4.312823, -85.739014, -222.644135, -899.295227, 13.726850, 100.771878
1759223378.344902, -0.473753, 8.144326, -2.909554, -0.080036, -6.288878, 6.349290, -92.014206, -224.830032, -901.455200, 13.726850, 100.771878
1759223378.364326, -6.602310, 8.231714, -3.147477, 0.299957, -7.221042, 7.080730, -99.260895, -225.764420, -902.199341, 13.726850, 100.771878
1759223378.384843, -9.847052, 9.097966, -4.219631, 1.129001, -7.529268, 7.311821, -107.597122, -226.469971, -901.396057, 13.726850, 100.771878
1759223378.404830, -11.599458, 10.600029, -5.529259, 1.970853, -6.466666, 7.698004, -115.542633, -225.966110, -899.137878, 13.726850, 100.771878
1759223378.424095, -15.784523, 9.445425, -5.107131, 2.387849, -4.759692, 7.604194, -122.237350, -224.430588, -895.997681, 13.726850, 100.771878
1759223378.444799, -19.860950, 5.046528, -3.145831, 2.225320, -2.972418, 6.305205, -127.563202, -222.316177, -893.077759, 13.726850, 100.771878
1759223378.464238, -19.929634, 3.173664, -0.464774, 1.217594, -1.926431, 4.795148, -130.897797, -219.890915, -891.045532, 13.726850, 100.771878
1759223378.484458, -17.916858, 4.022109, -0.641347, 0.293039, -1.741771, 3.653527, -133.452194, -217.669708, -889.471497, 13.726850, 100.771878
1759223378.504712, -15.383045, 4.281431, -4.052635, 0.253232, -1.367177, 3.022950, -135.263306, -215.818069, -888.338501, 13.726850, 100.771878
1759223378.524078, -16.721853, 3.881300, -6.042965, 0.916083, -1.079310, 2.029385, -136.459991, -214.415390, -887.433228, 13.726850, 100.771878
1759223378.544685, -19.427749, 1.086818, -2.513313, 0.959844, -1.443879, 0.600419, -136.801956, -214.636795, -886.268799, 13.726850, 100.771878
1759223378.564137, -20.715680, 1.933617, 12.124088, -1.371371, -0.996489, -0.605634, -136.880905, -214.750351, -885.858704, 13.726850, 100.771878
1759223378.584609, -7.306505, 4.440795, 3.015497, -1.382003, 1.554422, 0.726390, -137.128677, -214.191422, -887.455200, 13.726850, 100.771878
1759223378.604655, -6.762273, 6.404340, -0.091279, -1.162044, 1.209570, 1.093001, -137.399475, -212.908508, -888.668213, 13.726850, 100.771878
1759223378.624567, -5.761646, 7.407810, -4.628141, -0.354825, -0.370309, 1.117257, -138.276917, -211.568695, -888.733826, 13.726850, 100.771878
1759223378.644579, -4.801422, 7.186645, -3.260005, 0.239206, -2.272214, 1.245202, -139.037125, -210.841736, -887.050415, 13.726850, 100.771878
1759223378.664035, -7.005883, 6.880786, -0.792331, -0.167355, -2.083271, 1.242031, -139.926880, -209.852127, -885.759766, 13.726850, 100.771878
1759223378.684489, -4.124461, 7.417985, 0.287903, -1.084246, -0.506773, 1.648018, -140.525681, -208.373840, -885.388550, 13.726850, 100.771878
1759223378.704542, -1.295712, 6.291962, 0.054767, -1.383438, 0.091085, 2.381506, -141.116547, -206.995697, -885.656738, 13.726850, 100.771878
1759223378.724452, -9.506776, 7.237971, -5.821352, -0.058509, -1.347529, 1.323518, -142.000656, -205.604950, -885.037354, 13.726850, 100.771878
1759223378.744449, -5.639392, 4.460847, 0.233135, -0.166795, -1.507943, 0.950759, -142.426559, -204.677200, -883.989258, 13.726850, 100.771878
1759223378.763935, -4.223821, 7.138312, 0.344915, -0.835639, -0.332617, 0.975738, -142.403549, -204.061844, -883.569214, 13.726850, 100.771878
1759223378.784373, -4.202422, 8.056040, 0.465373, -0.800067, -0.102526, 1.225003, -142.518616, -203.266373, -884.227966, 13.726850, 100.771878
1759223378.804372, -7.414992, 7.083545, 0.137068, -0.248095, -0.225040, 0.949603, -142.836258, -202.576111, -884.039185, 13.726850, 100.771878
1759223378.824337, -4.581305, 10.378266, 0.964265, -0.228182, 0.616107, 0.903840, -142.419327, -201.723404, -884.666321, 13.726850, 100.771878
1759223378.844334, -4.457405, 11.045949, 0.043395, 0.026059, 0.683687, 0.947143, -142.790558, -201.066132, -884.901306, 13.726850, 100.771878
1759223378.863846, -5.310788, 9.889100, -0.540940, 0.663808, -0.512011, 0.702331, -143.487808, -200.335205, -884.615723, 13.726850, 100.771878
1759223378.884266, -7.232734, 3.997419, 1.299303, 0.579403, -2.083246, -0.391340, -143.514420, -200.595215, -882.524536, 13.726850, 100.771878
1759223378.904274, -3.801094, 7.822904, -4.354604, -0.265566, -0.578191, -0.595970, -142.747284, -201.284805, -882.496826, 13.726850, 100.771878
1759223378.924221, -2.811840, 13.483844, 1.410334, -1.739434, 1.437233, 0.125167, -142.682358, -201.051941, -883.781372, 13.726850, 100.771878
1759223378.944113, -2.266561, 11.406875, 3.441066, -1.163675, -0.762483, 0.550991, -143.086349, -200.254852, -883.288818, 13.726850, 100.771878
1759223378.963752, -4.737377, 11.836484, -0.240917, -1.014120, -1.521175, 1.337047, -143.047241, -199.463181, -882.528931, 13.726850, 100.771878
1759223378.984141, -7.991097, 10.646267, 0.982820, -1.202361, -1.989303, 0.620829, -143.212204, -198.914978, -880.780090, 13.726850, 100.771878
1759223379.004139, -8.863035, 10.536732, 1.372027, -1.709661, -1.569412, 0.222000, -144.038315, -198.296906, -879.578064, 13.726850, 100.771878
1759223379.023221, -5.658396, 4.691139, 5.570409, -3.545995, -2.352148, 0.401208, -143.891846, -197.624283, -878.643616, 13.726850, 100.771878
1759223379.044101, -2.751087, 11.640608, -5.155614, -0.128288, 1.026164, 0.112743, -143.945969, -197.683075, -879.141296, 13.726850, 100.771878
1759223379.063667, -4.825962, 9.598354, 6.361095, 0.214633, 0.055454, 0.159251, -143.794907, -197.676483, -879.224243, 13.726850, 100.771878
1759223379.083604, -4.038270, 6.435165, -1.198896, 0.746812, -0.179024, 0.105496, -143.751221, -197.414703, -878.929443, 13.726850, 100.771878
1759223379.104033, -2.746897, 7.171681, 1.691803, 1.014572, -0.056198, 0.509908, -143.988647, -197.121124, -878.797485, 13.726850, 100.771878
1759223379.123982, -2.176479, 8.100632, 2.429666, 0.782301, -0.374118, 1.124328, -144.084534, -196.130936, -878.579163, 13.726850, 100.771878
1759223379.142991, -2.284817, 8.023269, 2.864513, 0.317585, -0.629549, 1.614452, -144.031662, -194.929138, -877.752563, 13.726850, 100.771878
1759223379.163564, -2.876484, 7.642142, 2.429666, -0.281353, -1.175792, 1.021127, -143.980988, -193.953598, -876.801208, 13.726850, 100.771878
1759223379.183916, -2.283619, 8.795998, 1.291522, 0.293741, -0.895759, 1.074387, -144.403946, -192.773499, -876.076782, 13.726850, 100.771878
1759223379.203958, -1.736993, 8.072949, 1.443105, 0.732582, -0.142466, 1.621002, -144.161819, -191.626648, -876.101074, 13.726850, 100.771878
1759223379.223887, -0.827346, 7.153725, 1.961450, 0.618682, 0.240353, 2.382198, -144.185181, -189.502060, -876.243408, 13.726850, 100.771878
1759223379.243918, -0.290746, 6.587047, 1.919102, 0.430067, 0.291710, 3.023957, -144.305634, -187.150085, -876.539612, 13.726850, 100.771878
1759223379.263480, -2.772186, 0.395043, 2.521843, -0.060812, -0.017996, 1.298545, -143.930161, -186.162247, -876.459717, 13.726850, 100.771878
1759223379.283808, -0.521038, 5.019893, 1.471985, -0.062872, -0.550358, 0.752558, -143.888885, -185.469727, -876.386292, 13.726850, 100.771878
1759223379.303813, 1.328483, 8.671499, -0.858621, 0.807472, -0.159194, 2.108828, -143.546005, -183.551834, -875.905090, 13.726850, 100.771878
1759223379.323230, 0.804152, 6.994361, -0.016310, 1.253689, 0.354415, 3.116186, -142.884277, -180.894333, -876.463135, 13.726850, 100.771878
1759223379.343763, 0.452953, 5.229984, 0.679055, 1.663823, 0.046080, 3.252416, -141.802551, -178.436127, -876.963562, 13.726850, 100.771878
1759223379.363373, 0.753126, 23.047333, 0.550517, 0.974705, 0.113492, 3.083113, -141.256989, -176.363770, -876.941223, 13.726850, 100.771878
1759223379.383701, -1.016638, 29.697977, 0.302418, 0.161672, 0.034092, 0.632048, -141.574005, -176.195816, -876.766296, 13.726850, 100.771878
1759223379.403705, -1.223886, 9.316437, 1.033397, 0.550028, -0.938048, -0.765328, -141.836578, -176.767303, -876.041748, 13.726850, 100.771878
1759223379.423657, 0.984167, 7.579444, 1.395371, 0.802692, -1.148700, -0.692780, -141.965561, -177.041672, -875.663940, 13.726850, 100.771878
1759223379.443688, 1.374721, 7.741352, 0.899472, 0.744331, -0.164836, 0.142852, -142.080917, -176.986053, -875.882202, 13.726850, 100.771878
1759223379.463304, 2.626589, 11.857134, 2.284667, 0.245628, 0.154051, -0.010881, -141.897491, -177.222610, -875.736267, 13.726850, 100.771878
1759223379.483593, 2.141015, 10.477475, 2.860921, -0.127943, -0.508023, 0.146510, -142.005157, -176.953049, -875.127014, 13.726850, 100.771878
1759223379.503590, 1.283142, 9.015815, 1.372027, -0.333686, -0.513125, 0.374661, -141.768967, -176.596329, -874.696350, 13.726850, 100.771878
1759223379.523549, 0.714819, 8.628553, 0.549170, -0.210398, -0.459339, 0.497354, -141.462006, -176.221054, -874.368896, 13.726850, 100.771878
1759223379.543540, 0.636558, 9.390508, -0.033369, 0.051173, -0.560964, 0.539477, -141.044006, -175.729553, -873.869873, 13.726850, 100.771878
1759223379.563205, 0.222212, 10.288932, 0.066439, 0.158542, -0.359971, 0.456028, -141.227203, -175.828903, -873.968262, 13.726850, 100.771878
1759223379.583486, -0.184204, 9.653720, 0.492158, 0.137577, 0.091653, 0.134261, -141.196838, -175.599609, -873.948364, 13.726850, 100.771878
1759223379.602913, 1.063474, 9.101857, 0.928202, 0.205005, 0.056427, 0.028563, -141.151093, -175.598953, -873.896362, 13.726850, 100.771878
1759223379.623457, 2.091335, 9.421632, 0.947356, 0.170280, -0.264842, 0.214527, -141.116348, -175.452011, -873.720337, 13.726850, 100.771878
1759223379.643454, 1.297508, 9.963171, 0.303016, 0.144063, -0.025303, 0.160445, -141.137863, -175.412567, -873.803833, 13.726850, 100.771878
1759223379.663135, 0.796371, 10.005818, -0.157119, 0.214318, 0.263791, 0.072341, -141.279388, -175.342804, -873.923950, 13.726850, 100.771878
1759223379.682402, 0.534805, 8.983344, 0.066289, 0.084676, 0.000113, -0.010352, -141.317719, -175.320984, -874.405701, 13.726850, 100.771878
1759223379.702386, 1.678784, 10.227431, -0.502932, 0.180481, -0.031759, 0.085049, -141.023987, -175.365387, -874.258911, 13.726850, 100.771878
1759223379.723331, 0.438737, 9.365069, -0.962918, 0.258018, 0.249845, -0.036380, -141.119019, -175.443405, -874.687927, 13.726850, 100.771878
1759223379.742975, 1.092055, 9.972897, -0.916381, 0.316771, 0.325639, 0.013847, -141.156265, -175.231812, -874.890808, 13.726850, 100.771878
1759223379.763049, 1.901744, 10.992528, -0.735469, 0.403610, 0.123967, 0.183871, -141.149994, -175.246887, -875.448853, 13.726850, 100.771878
1759223379.783266, 2.145803, 10.932224, -1.158943, 0.179343, 0.006343, 0.140405, -141.268570, -175.072357, -875.102295, 13.726850, 100.771878
1759223379.803254, 0.322469, 9.946262, -0.391452, -0.004117, -0.203954, 0.236410, -141.000229, -175.102798, -875.002380, 13.726850, 100.771878
1759223379.823232, -0.789338, 8.075493, -1.058087, 0.088814, -0.255128, -0.135466, -140.836624, -174.837952, -875.052124, 13.726850, 100.771878
1759223379.843212, 0.506224, 9.408015, -1.923591, 0.293263, -0.021948, 0.001973, -140.920258, -174.751572, -874.844238, 13.726850, 100.771878
1759223379.862926, 0.141108, 9.830891, -0.964414, 0.321376, -0.095920, 0.022461, -140.867325, -174.767166, -875.247681, 13.726850, 100.771878
1759223379.883148, -0.128838, 10.250026, -0.452654, 0.267926, -0.157198, -0.002367, -140.792465, -174.680725, -875.065430, 13.726850, 100.771878
1759223379.903221, 0.021847, 10.187777, -0.521337, 0.173560, -0.132857, -0.049564, -140.831543, -174.703247, -874.895874, 13.726850, 100.771878
1759223379.923114, 0.621146, 10.126725, -0.569221, 0.148911, -0.170773, -0.064510, -140.730469, -174.710037, -874.787231, 13.726850, 100.771878
1759223379.943174, 0.871938, 9.549423, -0.246902, 0.103788, -0.155595, -0.084800, -140.848953, -174.638840, -874.792847, 13.726850, 100.771878
1759223379.962834, 1.079186, 9.651476, -0.538246, 0.059274, -0.180128, -0.047536, -140.666382, -174.711380, -874.786011, 13.726850, 100.771878
1759223379.983049, 1.053598, 10.005219, -0.825401, 0.081574, -0.310707, -0.053986, -140.876114, -174.753555, -874.498352, 13.726850, 100.771878
1759223380.003064, 1.303643, 9.498397, -0.821810, 0.065054, -0.294198, -0.091830, -140.883636, -174.864212, -874.472168, 13.726850, 100.771878
1759223380.023008, 2.181567, 9.001749, -0.874033, 0.057190, -0.249225, -0.044770, -140.683975, -174.831375, -874.225220, 13.726850, 100.771878
1759223380.043009, 2.695273, 9.342025, -1.264288, 0.092988, -0.201065, 0.165814, -140.826889, -174.752930, -874.204773, 13.726850, 100.771878
1759223380.062804, 3.155109, 8.925135, 0.467618, -0.241462, -0.698733, 0.519030, -140.327698, -174.642517, -873.791260, 13.726850, 100.771878
1759223380.082937, 0.045939, 9.520842, -1.919102, 0.186449, 0.149970, 0.238079, -140.427216, -174.173126, -873.757568, 13.726850, 100.771878
1759223380.102957, 0.576554, 9.491064, -1.248875, 0.291801, 0.023470, 0.175646, -140.445526, -174.092056, -873.805908, 13.726850, 100.771878
1759223380.121970, 0.949750, 9.552116, -1.148918, 0.373074, -0.247183, 0.195049, -140.092484, -173.965576, -873.977295, 13.726850, 100.771878
1759223380.142903, 0.636109, 9.522488, -0.035314, 0.220897, -0.318664, 0.334875, -140.000793, -173.690308, -873.696899, 13.726850, 100.771878
1759223380.162670, -0.238822, 9.422231, -0.097264, 0.153229, -0.332698, 0.251991, -139.775620, -173.653732, -873.511475, 13.726850, 100.771878
1759223380.182839, 0.341174, 9.835081, -0.888997, 0.255121, -0.291229, 0.208396, -139.679962, -173.135574, -873.642395, 13.726850, 100.771878
1759223380.202854, 1.287183, 10.048015, -0.669928, 0.326713, -0.274797, 0.209839, -139.727158, -172.850800, -873.428589, 13.726850, 100.771878
1759223380.222824, 1.867328, 9.904064, 0.000599, 0.260073, -0.207317, 0.281259, -139.596970, -172.517502, -873.279968, 13.726850, 100.771878
1759223380.242801, 1.675941, 9.523087, -0.018705, 0.144459, -0.125073, 0.340071, -139.334503, -172.252670, -873.438232, 13.726850, 100.771878
1759223380.262602, 1.262193, 9.537751, -0.680253, 0.153498, -0.046300, 0.383381, -139.151657, -172.025909, -873.272888, 13.726850, 100.771878
1759223380.282733, 0.943615, 9.671527, -0.609324, 0.251066, 0.011400, 0.386699, -139.137527, -171.907227, -873.388306, 13.726850, 100.771878
1759223380.302743, 1.082628, 9.578004, 0.080954, 0.276412, 0.156074, 0.408349, -138.817566, -171.375137, -873.585205, 13.726850, 100.771878
1759223380.322701, 1.258752, 9.143606, -0.271293, 0.018086, 0.231592, 0.467006, -138.803543, -170.986908, -873.841370, 13.726850, 100.771878
1759223380.342713, 1.410634, 9.621997, -1.544709, -0.205046, -0.021392, 0.517942, -138.433151, -170.728867, -873.844055, 13.726850, 100.771878
1759223380.362521, 1.181539, 9.367763, -2.273294, -0.222936, -0.369751, 0.423977, -138.217560, -170.430511, -873.621338, 13.726850, 100.771878
1759223380.382636, 0.904410, 8.850915, -2.035520, -0.126891, -0.446784, 0.223093, -138.066940, -170.176010, -873.050537, 13.726850, 100.771878
1759223380.402656, 1.347786, 10.268432, -1.401356, 0.016046, -0.534035, 0.192169, -137.806076, -170.195099, -872.998169, 13.726850, 100.771878
1759223380.422594, 1.264737, 11.513716, -1.774852, 0.058083, -0.506059, 0.384355, -137.518600, -169.736176, -872.354614, 13.726850, 100.771878
1759223380.442618, 1.440561, 10.993725, -2.291700, 0.151405, -0.625011, 0.457628, -137.458755, -169.455215, -872.039185, 13.726850, 100.771878
1759223380.462446, 2.242619, 10.478074, -1.473033, 0.274227, -0.693923, 0.420322, -137.227570, -169.075912, -871.736206, 13.726850, 100.771878
1759223380.482531, 2.430564, 10.569203, 0.603937, 0.126152, -0.653836, 0.319821, -136.810043, -168.752533, -871.555786, 13.726850, 100.771878
1759223380.502537, 2.551620, 10.743531, 1.923591, -0.301498, -0.320262, 0.206650, -136.528290, -168.632629, -870.977722, 13.726850, 100.771878
1759223380.522205, 2.562694, 10.686220, 3.032556, -0.799753, -0.105501, 0.150462, -136.301895, -168.430283, -870.416199, 13.726850, 100.771878
1759223380.542531, 1.342997, 10.384102, 3.170372, -1.360661, -0.106476, 0.162151, -136.337982, -168.525452, -870.166992, 13.726850, 100.771878
1759223380.562347, -0.827047, 10.364349, 2.688539, -1.827836, -0.334180, -0.092570, -136.289932, -168.973190, -869.394409, 13.726850, 100.771878
1759223380.582433, -1.991377, 10.674847, 2.295890, -2.091409, -0.262124, -0.548841, -136.249054, -169.632507, -868.178589, 13.726850, 100.771878
1759223380.601865, -0.917877, 11.121366, 2.120514, -2.080859, 0.036170, -0.891797, -136.747986, -170.509644, -867.271545, 13.726850, 100.771878
1759223380.622121, 0.456694, 11.017069, 1.644817, -1.977323, 0.260828, -1.025649, -137.110504, -171.548752, -866.540588, 13.726850, 100.771878
1759223380.642390, 0.828394, 10.948235, 0.839317, -1.911180, -0.026142, -1.079647, -137.798981, -172.806763, -865.665161, 13.726850, 100.771878
1759223380.662297, 0.496498, 11.129297, -0.097115, -1.709788, -0.257266, -1.035322, -138.079529, -174.212509, -865.143860, 13.726850, 100.771878
1759223380.682324, -0.761955, 11.691036, -0.144101, -1.497987, -0.321994, -1.140700, -138.090515, -175.404617, -864.152527, 13.726850, 100.771878
1759223380.702334, -0.998981, 12.378621, 2.031330, -1.563505, -0.455287, -1.369839, -138.643280, -176.619995, -863.673584, 13.726850, 100.771878
1759223380.722294, 0.881814, 12.030115, 2.009334, -1.628578, -0.645140, -1.518912, -138.725876, -178.036407, -862.510803, 13.726850, 100.771878
1759223380.742331, 2.107496, 10.555287, 1.278653, -1.597048, -0.567253, -1.511627, -139.259567, -179.851364, -861.437622, 13.726850, 100.771878
1759223380.762190, 2.126350, 8.986636, 0.936133, -1.417753, -0.800158, -1.431435, -139.240952, -181.305481, -860.872070, 13.726850, 100.771878
1759223380.781816, 1.549198, 8.412327, 1.713949, -1.417961, -1.250068, -1.434904, -139.033737, -182.825516, -859.709412, 13.726850, 100.771878
1759223380.802252, 1.411232, 8.354267, 1.624765, -1.448731, -1.512100, -1.289814, -138.719955, -184.288574, -858.319458, 13.726850, 100.771878
1759223380.821944, 1.353921, 7.776816, 0.895132, -1.287300, -1.462646, -1.036381, -138.258484, -185.317139, -857.024719, 13.726850, 100.771878
1759223380.842211, 1.624017, 6.468834, 0.842310, -1.003740, -1.504855, -0.769494, -137.801834, -186.360367, -855.748413, 13.726850, 100.771878
1759223380.862116, 1.896208, 5.645378, 0.921618, -0.651585, -1.552012, -0.496070, -137.218628, -186.905960, -854.610718, 13.726850, 100.771878
1759223380.881339, 1.823783, 5.069273, 1.223138, -0.318335, -1.596528, -0.270924, -136.177490, -187.216614, -853.854431, 13.726850, 100.771878
1759223380.902150, 1.124527, 4.759224, 1.526902, 0.066927, -1.359628, 0.003170, -135.856598, -187.277008, -852.740967, 13.726850, 100.771878
1759223380.921326, 0.575357, 4.597615, 2.471564, 0.464084, -1.145989, 0.300646, -135.307877, -187.357178, -852.496643, 13.726850, 100.771878
1759223380.942079, 0.243610, 5.412242, 4.214992, 0.688715, -1.105136, 0.436121, -134.250793, -186.483002, -851.421936, 13.726850, 100.771878
1759223380.962020, -0.760159, 7.363666, 5.444265, 0.746744, -1.186971, 0.383866, -133.436890, -185.846832, -851.047119, 13.726850, 100.771878
1759223380.982030, -2.598307, 10.192266, 6.635829, 0.594833, -1.181350, 0.273709, -132.603943, -185.302261, -850.387695, 13.726850, 100.771878
1759223381.002028, -2.530821, 11.329063, 4.749946, 0.537923, -0.696569, 0.097948, -132.386154, -185.435776, -850.326660, 13.726850, 100.771878
1759223381.021993, -1.954417, 10.389937, 5.440973, 0.298134, -0.066415, -0.381413, -132.157211, -185.173965, -849.843750, 13.726850, 100.771878
1759223381.041995, 1.600673, 12.958916, 4.101118, 0.422310, 0.542583, -0.579462, -132.616333, -184.990570, -849.845032, 13.726850, 100.771878
1759223381.061946, 6.983288, 18.759767, 2.996792, 0.286185, -0.057389, 0.048762, -132.763336, -184.890259, -850.164185, 13.726850, 100.771878
1759223381.081923, 3.219004, 9.682152, -0.640599, 0.365209, 0.355252, -0.160639, -133.197693, -184.699646, -850.124329, 13.726850, 100.771878
1759223381.101924, 5.655553, 3.633051, -0.582539, 0.899734, 0.668020, 0.364825, -133.807205, -184.145294, -850.455505, 13.726850, 100.771878
1759223381.121886, 7.136068, 5.941511, -2.275838, 1.034845, 0.212106, 1.365723, -133.752060, -183.065918, -850.924561, 13.726850, 100.771878
1759223381.141902, 4.488380, 10.201993, -3.680487, 1.134447, -0.646728, 1.930853, -132.993576, -181.676987, -851.289062, 13.726850, 100.771878
1759223381.161871, 0.354342, 14.148086, -3.411288, 1.123766, -0.467820, 1.709604, -131.840073, -180.258972, -851.079163, 13.727074, 100.771871
1759223381.181832, -3.303549, 15.317055, -2.293496, 1.262845, -0.143300, 0.823966, -131.342926, -179.049744, -851.390320, 13.727074, 100.771871
1759223381.201070, -4.353257, 11.714230, 0.428113, 1.508337, -0.125741, -0.138147, -131.410858, -178.048767, -851.433655, 13.727074, 100.771871
1759223381.221800, -0.129586, 8.378209, 2.548777, 1.136217, 0.164895, -0.400206, -131.846878, -177.274017, -851.979431, 13.727074, 100.771871
1759223381.241796, 3.484910, 8.029853, 1.137994, 0.962244, 0.291525, -0.246355, -132.173019, -176.724884, -852.186218, 13.727074, 100.771871
1759223381.261787, 4.459051, 8.169315, 0.355240, 0.838144, -0.109028, 0.074150, -132.101059, -176.347687, -852.784546, 13.727074, 100.771871
1759223381.281731, 3.166032, 8.983643, -1.197250, 0.909275, -0.292315, 0.528543, -131.807648, -175.784500, -853.060425, 13.727074, 100.771871
1759223381.301233, -0.607080, 9.671527, -0.285957, 0.952094, -0.123880, 0.510418, -131.304367, -175.106720, -853.190125, 13.727074, 100.771871
1759223381.321631, -2.677166, 9.643395, 0.706888, 1.005180, -0.345426, 0.203581, -130.905701, -174.632172, -853.351257, 13.727074, 100.771871
1759223381.341710, -1.337910, 8.741230, 0.808492, 0.932945, -0.507739, 0.049164, -130.843735, -173.973831, -853.394226, 13.727074, 100.771871
1759223381.361761, 1.035941, 8.413524, 0.479888, 0.800647, -0.535559, 0.027428, -130.622009, -173.343903, -853.425781, 13.727074, 100.771871
1759223381.381644, 2.234389, 8.424148, -0.239271, 0.773083, -0.313346, 0.114492, -130.362869, -172.855972, -853.358032, 13.727074, 100.771871
1759223381.401636, 1.787571, 8.269124, -0.395043, 0.849369, -0.186185, 0.247803, -130.097961, -172.338440, -853.535950, 13.727074, 100.771871
1759223381.421630, 1.238850, 8.298153, -0.861613, 0.962831, -0.016733, 0.453630, -129.845367, -171.337799, -854.077759, 13.727074, 100.771871
1759223381.441609, 0.774075, 8.944139, 0.366014, 0.951439, 0.027074, 0.593157, -129.705521, -170.726334, -854.390503, 13.727074, 100.771871
1759223381.461672, 0.881365, 9.353996, 0.700603, 0.813956, -0.070372, 0.700285, -129.338959, -169.924164, -854.438171, 13.727074, 100.771871
1759223381.481544, 0.275184, 9.690681, 0.399233, 0.763518, -0.176924, 0.738356, -129.054352, -169.135956, -854.863281, 13.727074, 100.771871
1759223381.501536, 0.055665, 11.056723, 0.713173, 0.783947, -0.111076, 0.754802, -128.483597, -168.422745, -855.471008, 13.727074, 100.771871
1759223381.521244, -0.663343, 11.110442, 2.222717, 0.632359, -0.044123, 0.722785, -127.822006, -167.681335, -855.420227, 13.727074, 100.771871
1759223381.541509, -1.599925, 10.124331, 3.205986, 0.199650, -0.111059, 0.689239, -127.735992, -167.094528, -855.592529, 13.727074, 100.771871
1759223381.561499, -1.843685, 9.996690, 2.331803, -0.082672, -0.236738, 0.574688, -127.169250, -166.942184, -855.934326, 13.727074, 100.771871
1759223381.581448, -1.552789, 11.062109, 2.061557, -0.229537, -0.447069, 0.476160, -126.834869, -166.552231, -855.515930, 13.727074, 100.771871
1759223381.601448, -2.823811, 12.639290, 2.204461, -0.880406, -1.191398, 0.378057, -125.884888, -166.858643, -854.854980, 13.727074, 100.771871
1759223381.621440, -5.014655, 15.694441, 1.808071, -1.825612, -1.526215, -0.249946, -124.830811, -167.566833, -853.431580, 13.727074, 100.771871
1759223381.641419, -4.039766, 16.543036, -0.204704, -2.504009, -0.947370, -1.223635, -125.151596, -168.750854, -851.646240, 13.727074, 100.771871
1759223381.661391, 2.356643, 14.168137, -0.860117, -2.558618, -0.214755, -1.480455, -125.950485, -170.598099, -850.520508, 13.727074, 100.771871
1759223381.681355, 6.289867, 13.853449, 1.006463, -2.668677, -0.015778, -1.558611, -126.458832, -172.746063, -849.330566, 13.727074, 100.771871
1759223381.701356, 7.605032, 16.716316, -1.187674, -2.259781, 0.161098, -1.467171, -127.225403, -174.867767, -848.490601, 13.727074, 100.771871
1759223381.721299, 5.949890, 14.875175, -0.351948, -1.975291, 0.585201, -1.519220, -128.400452, -176.579514, -848.110535, 13.727074, 100.771871
1759223381.741370, 2.977190, 9.978434, -0.078560, -1.831016, 0.278995, -1.403684, -129.133545, -178.352554, -847.814941, 13.727074, 100.771871
1759223381.761307, 1.421857, 9.200767, -0.722001, -1.806823, 0.008502, -1.118758, -129.242172, -180.367447, -847.362244, 13.727074, 100.771871
1759223381.781259, 1.149217, 10.863840, 0.655562, -1.985993, -0.107136, -1.053997, -129.540436, -182.015701, -847.034424, 13.727074, 100.771871
1759223381.801267, 1.508048, 11.180922, 0.965761, -2.021325, -0.191529, -1.150416, -130.162994, -183.839432, -846.609619, 13.727074, 100.771871
1759223381.821242, 1.873612, 9.369708, 0.918326, -2.100753, -0.720221, -1.215834, -130.048309, -185.826645, -846.103760, 13.727074, 100.771871
1759223381.841224, 2.078915, 6.739378, -0.557101, -1.984969, -1.105341, -1.152477, -129.798935, -187.838074, -844.929321, 13.727074, 100.771871
1759223381.861284, 2.202366, 4.837335, -0.708534, -1.809032, -1.849764, -0.949638, -128.689484, -189.626251, -844.092651, 13.727074, 100.771871
1759223381.881165, 1.310676, 4.241777, -1.466449, -1.418785, -2.342705, -0.990541, -127.042480, -191.270370, -842.933228, 13.727074, 100.771871
1759223381.901167, 1.173458, 4.405481, -1.521366, -0.920888, -2.139208, -1.044639, -125.873596, -192.623627, -842.105713, 13.727074, 100.771871
1759223381.921128, 1.072004, 4.706103, -0.678756, -0.352957, -1.512939, -1.022703, -124.579239, -193.332764, -841.369507, 13.727074, 100.771871
1759223381.941168, 2.304419, 5.167286, -0.397288, 0.187114, -1.061777, -0.792358, -123.994507, -193.306625, -840.527588, 13.727074, 100.771871
1759223381.961114, 3.368492, 4.621408, 0.342670, 0.640203, -0.997883, -0.420851, -123.222763, -193.205872, -840.326172, 13.727074, 100.771871
1759223381.981070, 3.289483, 4.133739, 1.321300, 1.016980, -0.725560, -0.076612, -122.557434, -192.620544, -839.938538, 13.727074, 100.771871
1759223382.000994, 2.084003, 5.543924, 2.816180, 1.532285, -0.758046, 0.112595, -121.842163, -191.451920, -839.590942, 13.727074, 100.771871
1759223382.021056, 0.902614, 8.562114, 5.752818, 1.873416, -0.927611, 0.287118, -121.116653, -189.953918, -839.583252, 13.727074, 100.771871
1759223382.041033, -1.082778, 12.533795, 8.505401, 1.544513, -0.842135, 0.539628, -120.382217, -188.558884, -839.477722, 13.727074, 100.771871
1759223382.061017, -2.565088, 14.761450, 9.962423, 0.542703, -0.932408, 0.343337, -119.646942, -188.094467, -838.667236, 13.727074, 100.771871
1759223382.080974, -1.369932, 13.569288, 6.832752, -0.135824, -0.654793, -0.183610, -119.343292, -188.009521, -838.328369, 13.727074, 100.771871
1759223382.100995, 1.577480, 10.619182, 4.829554, -0.124724, -0.562096, -0.389759, -119.110291, -188.403183, -838.217773, 13.727074, 100.771871
1759223382.120986, 3.659986, 7.545027, 4.548834, 0.150490, -0.459830, -0.369751, -119.165451, -187.956085, -837.976868, 13.727074, 100.771871
1759223382.140942, 5.632210, 9.182063, 2.094178, 0.802279, 0.329761, -0.125907, -119.202759, -187.539612, -837.939453, 13.727074, 100.771871
1759223382.160932, 7.629573, 16.614413, -0.836624, 0.963683, -0.222176, 0.470027, -118.762482, -187.162109, -838.361084, 13.727074, 100.771871
1759223382.180876, 0.642993, 17.604116, -0.480786, 0.188808, 1.659963, 0.092029, -120.412292, -186.801132, -838.719116, 13.727074, 100.771871
1759223382.200939, 0.296582, 6.792200, 0.835127, -0.027588, 0.682425, 0.280029, -121.174042, -186.646301, -839.049500, 13.726998, 100.771891
1759223382.220849, 1.820192, 3.234866, -1.595137, 0.206317, 0.159707, 0.601246, -120.971756, -186.428558, -839.123596, 13.726998, 100.771891
1759223382.240870, 2.935441, 4.076727, -4.855441, 0.515311, -0.191899, 1.164181, -120.653427, -185.812347, -839.148315, 13.726998, 100.771891
1759223382.260852, 2.922123, 9.865607, -5.627122, 1.136997, -0.373603, 1.211847, -120.037781, -184.594589, -838.941650, 13.726998, 100.771891
1759223382.280794, 0.969203, 14.766987, -4.302081, 2.015870, -0.110927, 0.367437, -119.889038, -182.783279, -839.439392, 13.726998, 100.771891
1759223382.300787, -1.015142, 12.307992, -1.013346, 2.253555, 0.821151, -0.111577, -120.908218, -181.158401, -840.036499, 13.726998, 100.771891
1759223382.320785, -0.782904, 8.985738, 2.805406, 1.740647, 1.054794, -0.076828, -121.632248, -179.784561, -840.583862, 13.726998, 100.771891
1759223382.340752, 1.665766, 8.541314, 2.180519, 0.976666, 1.009405, -0.056091, -122.861771, -178.955475, -841.055603, 13.726998, 100.771891
1759223382.360733, 3.209128, 8.580220, -0.575357, 0.750177, 0.827129, 0.193415, -123.325607, -178.358337, -841.579102, 13.726998, 100.771891
1759223382.380705, 1.801637, 8.011897, -1.587356, 0.976053, 0.274473, 0.425531, -123.107635, -177.558456, -841.979004, 13.726998, 100.771891
1759223382.400705, -0.751031, 8.984840, -1.440262, 1.231265, -0.231123, 0.346149, -122.913361, -176.606400, -842.222717, 13.726998, 100.771891
1759223382.420663, -1.311723, 10.470742, -0.840514, 1.374142, -0.192350, 0.368118, -122.624619, -176.274948, -842.422241, 13.726998, 100.771891
1759223382.440678, -1.514632, 9.935039, 0.556203, 1.153384, -0.032421, 0.308946, -122.733109, -175.140625, -842.874634, 13.726998, 100.771891
1759223382.460662, -0.723647, 8.857349, 0.242263, 0.922373, 0.163849, 0.154540, -122.730148, -174.377609, -843.274170, 13.726998, 100.771891
1759223382.480621, 1.275212, 8.927978, -0.284760, 0.879897, 0.245118, 0.174519, -122.943573, -173.612915, -843.670044, 13.726998, 100.771891
1759223382.500618, 2.489970, 8.844181, 0.046088, 0.801434, 0.234139, 0.334587, -123.271088, -172.712387, -843.734009, 13.726998, 100.771891
1759223382.520003, 2.265813, 8.760683, 0.086491, 0.704949, 0.140318, 0.546503, -122.950760, -172.143417, -844.222717, 13.726998, 100.771891
1759223382.540583, 1.361104, 9.456947, -0.519691, 0.789203, 0.167053, 0.677400, -122.834183, -171.396484, -844.721619, 13.726998, 100.771891
1759223382.560568, 0.707038, 10.546758, -0.291644, 0.948417, 0.279615, 0.713184, -122.713257, -170.487579, -844.806152, 13.726998, 100.771891
1759223382.580115, -0.097564, 10.455329, 0.674866, 0.926182, 0.453946, 0.732496, -122.652573, -169.740158, -845.622070, 13.726998, 100.771891
1759223382.600531, -0.605883, 10.885836, 1.484255, 0.814369, 0.435505, 0.751036, -122.880173, -168.999191, -846.190247, 13.726998, 100.771891
1759223382.620075, -1.423353, 11.523891, 1.871518, 0.628923, 0.312777, 0.680903, -122.565994, -168.359726, -846.415527, 13.726998, 100.771891
1759223382.640502, -2.056619, 11.446528, 2.622399, 0.262478, 0.066094, 0.525489, -122.648224, -167.956284, -846.865479, 13.726998, 100.771891
1759223382.660480, -1.500117, 11.038467, 3.190124, -0.276405, -0.245975, 0.432996, -122.035065, -168.009277, -846.652100, 13.726998, 100.771891
1759223382.680004, -1.691354, 11.380389, 3.202993, -0.801046, -0.500056, 0.362646, -121.746536, -168.596436, -845.941833, 13.726998, 100.771891
1759223382.700444, -3.299360, 13.833099, 2.401384, -1.303818, -0.858971, 0.135791, -120.920349, -169.597733, -845.611206, 13.726998, 100.771891
1759223382.720427, -4.707150, 14.983812, 2.302773, -2.089890, -0.824986, -0.624991, -120.303024, -170.978104, -844.327881, 13.726998, 100.771891
1759223382.740417, -2.456750, 14.496891, 1.382502, -2.941437, -0.471671, -1.324289, -120.643463, -173.387711, -842.422180, 13.726998, 100.771891
1759223382.760397, 2.956839, 11.687894, -0.019154, -3.163013, 0.263157, -1.567289, -121.396439, -176.177780, -841.733948, 13.726998, 100.771891
1759223382.780354, 7.823503, 12.460473, 0.495300, -2.934468, 1.012233, -1.577679, -122.567291, -178.972397, -841.188782, 13.726998, 100.771891
1759223382.800359, 11.599907, 16.264410, 0.489016, -2.405910, 1.570507, -1.125129, -123.866577, -181.630478, -841.317627, 13.726998, 100.771891
1759223382.820339, 8.128614, 13.732093, 0.915483, -2.143936, 1.325338, -1.159916, -125.043625, -183.818329, -841.148804, 13.726998, 100.771891
1759223382.840319, 4.169652, 9.484181, 0.286706, -2.033868, 0.873093, -0.833422, -125.997040, -185.934952, -841.652100, 13.726998, 100.771891
1759223382.860299, 0.695815, 8.467693, 0.480486, -1.936727, 0.384982, -0.519117, -126.242401, -187.745605, -841.715088, 13.726998, 100.771891
1759223382.880269, -1.650802, 9.951050, 0.768389, -1.867558, 0.259091, -0.526207, -126.160065, -189.391281, -841.850647, 13.726998, 100.771891
1759223382.900274, -2.114978, 9.870695, -0.202011, -1.642781, 0.206034, -0.809664, -126.356201, -191.050583, -841.882324, 13.726998, 100.771891
1759223382.920275, 0.042497, 8.588301, 1.665317, -1.725460, -0.850379, -0.978942, -125.860825, -192.676788, -841.751892, 13.726998, 100.771891
1759223382.940238, 1.878401, 6.193351, -0.042796, -1.502115, -1.532407, -0.995325, -124.998367, -194.248260, -841.164429, 13.726998, 100.771891
1759223382.960208, 2.214637, 3.403956, -0.078859, -1.067465, -1.350165, -0.951688, -123.738953, -195.710236, -840.629395, 13.726998, 100.771891
1759223382.980176, 2.550423, 3.051410, 0.481534, -0.674514, -1.333648, -1.020450, -122.474182, -196.471436, -840.698975, 13.726998, 100.771891
1759223383.000180, 3.189077, 4.258836, -0.555604, -0.113756, -0.918473, -1.029959, -121.398453, -197.187378, -840.405884, 13.726998, 100.771891
1759223383.020164, 2.744803, 5.434090, 0.011522, 0.443489, -0.647582, -0.831443, -120.784332, -197.222656, -839.885986, 13.726998, 100.771891
1759223383.040148, 1.815254, 5.661389, 0.694917, 0.786683, -0.660623, -0.479263, -120.180496, -196.560623, -839.559021, 13.726998, 100.771891
1759223383.060128, 1.119439, 5.024232, 1.381903, 0.995957, -0.659855, -0.117158, -119.496292, -195.988586, -839.446350, 13.726998, 100.771891
1759223383.080090, 1.038335, 5.116858, 1.905336, 1.324015, -0.598793, 0.171820, -118.765793, -194.875198, -839.000977, 13.726998, 100.771891
1759223383.100091, 1.788020, 7.256975, 5.247491, 1.518647, -0.777394, 0.418172, -118.056015, -193.537369, -838.682495, 13.726998, 100.771891
1759223383.120078, 1.266832, 10.747871, 10.613496, 1.088772, -0.709981, 0.711268, -117.025391, -192.737732, -838.846558, 13.726998, 100.771891
1759223383.140068, -2.870049, 13.596222, 11.098771, 0.543207, 0.259916, 0.403093, -117.149506, -192.167740, -839.128235, 13.726998, 100.771891
1759223383.160043, -1.706767, 14.470854, 10.267683, 0.194087, 0.132246, -0.005036, -117.381866, -191.802979, -838.812744, 13.726998, 100.771891
1759223383.180004, -0.239121, 10.790517, 7.331195, -0.246436, -0.448276, -0.198947, -117.220673, -191.830872, -838.959167, 13.726998, 100.771891
1759223383.200006, 1.194108, 6.972663, 1.502661, 0.021396, -0.461523, -0.218997, -116.725998, -191.727509, -838.558838, 13.726998, 100.771891
1759223383.219994, 1.657386, 5.611859, 1.676091, 0.747900, 0.027894, -0.248790, -116.464447, -191.095612, -838.732117, 13.726850, 100.771820
1759223383.239966, 7.268048, 15.932514, 0.731728, 1.800836, -0.208109, 0.233846, -116.199753, -189.555054, -838.704407, 13.726850, 100.771820
1759223383.259953, 5.275773, 24.892964, 0.445621, 0.786569, 1.501171, 0.187545, -116.951920, -189.123138, -839.068970, 13.726850, 100.771820
1759223383.279912, 1.295562, 10.069863, -1.529895, 0.162447, 1.032022, -0.171058, -118.137711, -188.619461, -839.430359, 13.726850, 100.771820
1759223383.299972, 1.477821, 1.120037, 0.743699, 0.073380, 0.436087, 0.241608, -119.015366, -188.308243, -839.623657, 13.726850, 100.771820
1759223383.319771, 5.112369, 0.586430, -4.343980, 0.086583, 1.064282, 0.879373, -119.624741, -187.856995, -839.827576, 13.726850, 100.771820
1759223383.339930, 6.321740, 5.833772, -5.639991, 0.464524, 1.347608, 1.589798, -120.314957, -187.056000, -839.994690, 13.726850, 100.771820
1759223383.359903, 6.412271, 14.918570, -5.450250, 1.334600, 1.184861, 1.582409, -120.751312, -185.691956, -840.805481, 13.726850, 100.771820
1759223383.379829, 1.783381, 16.904111, -4.551228, 2.636583, 0.865136, 0.693459, -121.026230, -183.362518, -841.431396, 13.726850, 100.771820
1759223383.399827, -1.464204, 11.479449, -0.239271, 2.585258, 0.599870, 0.215681, -121.659302, -181.610886, -842.229858, 13.726850, 100.771820
1759223383.419110, -2.147300, 9.227104, 0.943315, 2.063964, 0.899419, 0.223094, -122.314896, -179.895279, -843.188843, 13.726850, 100.771820
1759223383.438811, -2.118719, 8.089110, 0.122553, 1.538390, 1.826483, 0.077016, -123.529053, -178.682663, -843.967773, 13.726850, 100.771820
1759223383.459808, 0.023942, 8.870368, 1.066766, 1.052215, 1.564380, 0.033414, -124.663681, -177.785233, -844.827759, 13.726850, 100.771820
1759223383.479744, 1.218798, 9.156175, 0.822109, 0.866645, 0.623333, 0.202117, -124.746017, -177.156830, -845.678833, 13.726850, 100.771820
1759223383.499788, 1.338059, 9.020155, -0.859818, 0.967947, 0.715192, 0.304004, -125.369522, -176.219727, -846.056580, 13.726850, 100.771820
1759223383.519515, 0.555604, 9.084050, -0.103400, 0.874920, 0.303064, 0.551117, -124.963623, -175.615128, -846.603027, 13.726850, 100.771820
1759223383.539048, -1.775450, 9.101558, -1.095647, 0.994964, 0.170090, 0.487777, -124.999649, -174.566193, -847.281311, 13.726850, 100.771820
1759223383.559720, -2.156577, 9.047987, -0.976984, 1.072977, 0.352879, 0.257181, -125.239227, -173.686813, -847.214478, 13.726850, 100.771820
1759223383.579661, -0.293439, 9.279776, 0.056713, 1.035189, 0.585754, 0.200933, -125.520721, -172.835617, -848.060913, 13.726850, 100.771820
1759223383.599686, 1.545756, 9.824457, 1.144578, 0.903267, 0.428803, 0.325096, -125.606003, -172.077087, -848.979004, 13.726850, 100.771820
1759223383.619653, 1.992125, 9.432706, 0.421379, 0.708293, 0.495208, 0.523796, -125.647476, -171.485748, -849.007202, 13.726850, 100.771820
1759223383.638868, 1.317559, 8.967333, -0.279523, 0.714678, 0.485329, 0.747520, -125.645859, -170.536224, -849.538452, 13.726850, 100.771820
1759223383.659621, 0.133477, 10.083928, 0.010175, 0.847425, 0.518081, 0.839218, -125.404083, -169.605911, -850.075378, 13.726850, 100.771820
1759223383.679143, -1.297059, 11.441890, 0.624587, 0.700034, 0.601855, 0.796851, -125.347351, -169.039642, -850.470825, 13.726850, 100.771820
1759223383.699603, -2.526481, 11.089194, 1.053149, 0.386621, 0.645563, 0.706520, -125.606018, -168.634628, -851.234985, 13.726850, 100.771820
1759223383.719454, -2.769193, 10.814759, 1.651101, 0.100067, 0.361120, 0.522571, -125.259033, -168.093872, -851.522949, 13.726850, 100.771820
1759223383.739566, -1.975815, 11.116428, 1.695693, -0.129232, -0.066658, 0.412609, -125.051331, -168.197693, -851.249878, 13.726850, 100.771820
1759223383.759520, -1.728763, 11.157578, 2.339434, -0.384359, -0.169867, 0.349469, -124.922913, -168.164200, -850.814514, 13.726850, 100.771820
1759223383.779502, -1.805078, 11.303176, 3.737648, -1.012379, 0.061148, 0.212203, -124.621948, -168.963379, -850.317810, 13.726850, 100.771820
1759223383.799476, -1.872266, 12.709919, 4.383035, -1.720925, -0.093273, -0.188408, -124.719299, -169.799911, -849.409912, 13.726850, 100.771820
1759223383.819486, -0.867300, 12.389545, 3.614496, -2.710598, -0.206483, -0.715642, -124.922272, -171.996796, -847.684570, 13.726850, 100.771820
1759223383.839472, -0.705990, 12.216713, 0.538995, -3.399642, -0.080248, -1.285174, -125.150772, -173.653488, -847.045654, 13.726850, 100.771820
1759223383.859456, 1.570447, 13.833548, -2.275689, -2.719246, 0.638227, -1.924028, -125.906921, -176.110626, -846.379639, 13.726850, 100.771820
1759223383.879418, 7.845500, 17.737293, -1.648707, -2.038574, 1.858000, -1.733693, -127.761017, -178.147018, -846.145630, 13.726850, 100.771820
1759223383.899420, 7.609371, 17.398813, 2.072780, -2.023345, 1.950963, -1.641638, -129.616943, -180.355804, -847.043457, 13.726850, 100.771820
1759223383.919434, 6.553229, 12.630312, 2.502090, -2.053858, 1.319974, -1.611559, -131.130859, -182.322113, -847.249023, 13.726850, 100.771820
1759223383.939383, 5.322759, 8.385242, -0.516250, -1.453680, 1.300045, -1.063069, -132.085327, -184.173340, -847.491211, 13.726850, 100.771820
1759223383.959365, 1.840543, 7.397036, 0.605284, -1.050922, 0.773663, -0.598495, -132.537323, -185.468094, -847.866272, 13.726850, 100.771820
1759223383.979331, -2.279430, 8.469488, 2.282123, -1.430635, 0.093400, -0.654469, -132.966980, -186.558319, -848.156250, 13.726850, 100.771820
1759223383.999349, -2.006491, 9.230845, 0.746991, -1.641430, -0.182344, -0.892265, -133.082306, -188.047638, -847.651245, 13.726850, 100.771820
1759223384.019326, -0.592565, 8.335263, -0.438139, -1.465942, -1.050578, -1.321426, -132.885437, -189.772446, -846.950195, 13.726850, 100.771820
1759223384.039299, 2.672677, 6.144120, -0.351499, -1.485817, -1.724349, -1.204148, -132.221664, -191.072937, -846.006470, 13.726850, 100.771820
1759223384.059286, 3.516783, 3.834164, -1.006612, -1.261744, -2.016980, -0.927018, -130.659592, -192.630905, -845.181580, 13.726850, 100.771820
1759223384.079251, 2.323872, 2.868553, -1.244985, -0.552949, -1.841586, -0.924291, -129.583954, -193.426208, -844.021362, 13.726850, 100.771820
1759223384.099250, 2.189797, 3.727772, -0.787692, 0.296299, -1.236462, -0.839353, -128.621475, -193.826324, -843.574341, 13.726850, 100.771820
1759223384.119231, 1.660229, 4.869058, 0.008230, 0.956844, -0.944152, -0.653745, -127.686935, -193.507812, -842.690063, 13.726850, 100.771820
1759223384.139208, 1.724424, 5.726182, 0.301071, 1.359173, -0.690337, -0.267132, -126.959854, -192.856049, -842.255920, 13.726850, 100.771820
1759223384.159184, 2.366519, 5.738901, 2.443732, 1.428496, -0.535704, 0.176263, -126.451126, -191.592804, -841.699585, 13.726850, 100.771820
1759223384.179164, 2.365771, 6.702119, 4.315698, 1.554613, -0.524970, 0.407122, -126.266373, -190.536224, -841.736328, 13.726850, 100.771820
1759223384.199147, 1.058087, 9.376891, 7.037905, 1.377517, -0.127979, 0.613578, -125.834030, -189.312134, -842.034180, 13.726850, 100.771820
1759223384.219144, -1.420360, 13.266122, 8.231714, 0.984191, 0.790542, 0.664392, -126.054886, -188.332779, -842.239868, 13.726824, 100.771806
1759223384.239151, -2.096722, 13.439402, 10.158448, 0.530272, 0.617535, 0.502465, -126.816177, -187.553345, -842.095154, 13.726824, 100.771806
1759223384.259130, -1.237204, 10.405500, 6.562656, -0.003129, -0.361043, 0.344256, -126.825577, -187.142578, -842.367554, 13.726824, 100.771806
1759223384.279074, -1.513285, 7.482030, 0.859668, 0.180792, -0.347021, 0.121368, -126.737183, -186.833054, -842.077271, 13.726824, 100.771806
1759223384.298473, -1.461959, 7.218817, -0.129437, 1.405038, 0.145821, -0.442835, -127.017502, -185.969864, -842.226929, 13.726824, 100.771806
1759223384.318410, 10.041731, 22.042218, -3.729268, 1.811367, 1.024229, 0.330704, -127.514908, -184.410614, -842.530396, 13.726824, 100.771806
1759223384.339066, 6.730101, 27.511472, 0.501286, 0.676093, 3.358398, 0.239090, -129.383911, -184.327896, -844.568726, 13.726824, 100.771806
1759223384.359064, 1.711106, 8.339004, 6.287323, -0.092315, 1.020989, -1.112936, -131.274414, -184.503998, -844.850464, 13.726824, 100.771806
1759223384.379010, 6.852504, 0.294786, -2.756175, -0.661083, 1.267923, -0.715585, -132.336777, -185.153580, -845.562561, 13.726824, 100.771806
1759223384.399019, 6.992565, -0.037260, -8.359505, -0.516377, 4.233007, 0.027665, -135.150772, -185.304581, -847.978577, 13.726824, 100.771806
1759223384.419001, 10.323798, 8.060828, -5.445612, 0.224851, 5.270612, 1.324596, -137.499130, -184.525848, -851.223083, 13.726824, 100.771806
1759223384.438987, 12.000188, 16.583587, -2.335843, 1.165040, 3.271516, 2.116099, -138.742294, -182.890579, -853.657593, 13.726824, 100.771806
1759223384.458970, 4.446481, 14.907946, -2.235436, 0.370758, 1.993004, 1.934331, -139.247284, -181.380203, -854.977661, 13.726824, 100.771806
1759223384.478932, -0.247501, 12.881254, -2.062605, 1.289606, -1.903190, 1.576677, -138.459259, -179.952545, -854.627258, 13.726824, 100.771806
1759223384.498937, -5.786187, 10.695497, -5.156213, 2.724517, -1.173476, 1.040731, -137.189117, -178.189011, -854.177246, 13.726824, 100.771806
1759223384.518223, -8.169166, 9.049334, -3.878607, 2.723137, 1.040600, 0.997488, -137.279327, -176.473801, -855.840454, 13.726824, 100.771806
1759223384.538910, -9.834782, 9.454852, 2.097321, 1.162996, 3.826152, 0.426854, -139.053696, -175.519135, -858.481812, 13.726824, 100.771806
1759223384.558881, -2.205658, 10.851270, 3.008015, 0.408931, 1.007331, -0.407181, -140.353836, -175.053085, -859.510010, 13.726824, 100.771806
1759223384.578856, -0.139762, 9.525481, 0.623091, 0.073206, 1.492782, -0.072074, -140.446518, -175.273712, -860.365723, 13.726824, 100.771806
1759223384.598844, 0.792630, 8.406641, 0.370802, 0.107041, 1.786517, 0.063199, -141.444214, -175.037720, -861.749817, 13.726824, 100.771806
1759223384.618832, 0.956633, 7.917924, 0.146944, 0.324649, 1.584464, 0.191191, -142.000519, -174.708954, -863.031921, 13.726824, 100.771806
1759223384.638811, 0.354192, 8.588151, -0.916231, 0.548988, 1.262538, 0.750786, -142.146469, -174.315887, -864.246887, 13.726824, 100.771806
1759223384.658800, -2.444929, 8.977209, -0.614262, 0.723256, 1.224109, 0.883099, -142.101562, -173.592682, -865.285400, 13.726824, 100.771806
1759223384.678778, -2.017265, 9.130288, 0.498144, 0.634935, 1.453650, 0.864441, -142.185501, -172.428955, -866.797180, 13.726824, 100.771806
1759223384.698772, -0.493056, 9.550470, 0.583138, 0.584647, 1.504365, 0.985600, -142.235794, -171.576920, -868.334106, 13.726824, 100.771806
1759223384.718754, -1.043872, 9.686192, 0.768539, 0.401698, 1.488583, 0.896523, -141.896088, -170.866913, -869.746582, 13.726824, 100.771806
1759223384.738738, -0.329801, 9.841516, 0.494253, 0.049530, 1.243190, 0.824976, -142.202087, -170.237213, -870.603638, 13.726824, 100.771806
1759223384.758722, -0.717063, 10.024822, 0.060753, -0.057367, 0.936253, 0.838363, -142.076569, -169.434036, -871.804260, 13.726824, 100.771806
1759223384.778700, -3.369091, 10.375871, 0.607529, -0.108520, 0.756732, 0.796342, -141.667160, -169.280014, -872.258728, 13.726824, 100.771806
1759223384.798753, -4.450073, 11.644349, 0.663792, -0.356631, 0.656468, 0.720362, -141.545670, -168.413818, -872.817444, 13.726824, 100.771806
1759223384.817788, -4.167108, 12.159103, 0.624587, -0.455860, 0.452804, 0.764501, -141.164978, -167.827850, -872.331421, 13.726824, 100.771806
1759223384.838658, -3.117699, 12.807632, 2.116774, -0.702288, -0.110504, 0.451493, -141.162308, -167.528320, -872.470459, 13.726824, 100.771806
1759223384.858651, 0.826448, 14.183700, 5.032911, -1.280675, -0.228584, 0.031888, -141.271225, -167.658890, -871.701538, 13.726824, 100.771806
1759223384.878618, 0.281468, 14.370148, 6.265326, -2.107086, -0.106624, -0.494240, -141.144058, -168.342422, -870.792175, 13.726824, 100.771806
1759223384.898720, -0.287603, 12.789526, 4.066252, -2.499802, 0.828686, -0.906579, -141.600342, -169.539658, -870.059265, 13.726824, 100.771806
1759223384.917871, -0.726042, 12.027721, 0.759411, -2.761662, 0.730417, -1.280913, -142.305130, -170.988342, -869.767578, 13.726824, 100.771806
1759223384.938597, -0.108936, 11.919832, 0.328006, -2.284585, 0.589613, -1.914905, -143.563980, -172.681961, -869.688232, 13.726824, 100.771806
1759223384.958579, 3.449745, 11.454310, 0.624288, -1.340369, 0.673465, -2.088507, -144.679443, -174.780991, -869.673035, 13.726824, 100.771806
1759223384.978534, 5.152172, 9.918130, 5.036802, -0.955518, 0.544035, -2.167848, -145.356644, -177.035080, -870.116272, 13.726824, 100.771806
1759223384.998536, 5.311686, 8.865280, 3.731214, -0.652577, 0.860634, -1.518172, -146.127609, -178.430069, -870.768433, 13.726824, 100.771806
1759223385.018534, 3.491793, 8.154501, 1.585410, -0.363457, 0.635219, -1.011293, -146.025055, -179.786850, -871.223755, 13.726824, 100.771806
1759223385.038508, 0.827496, 8.885331, 1.321450, -0.249501, 0.169970, -1.187071, -146.368393, -180.921753, -871.788879, 13.726824, 100.771806
1759223385.058504, -1.048660, 8.356961, 2.277933, -0.377914, -0.224275, -1.550803, -147.125687, -182.294983, -871.693909, 13.726824, 100.771806
1759223385.078454, -1.093402, 6.950816, 1.511190, -0.468654, -0.715540, -1.593965, -147.036346, -183.746490, -871.319641, 13.726824, 100.771806
1759223385.098465, -0.402376, 5.519084, 0.527473, -0.426063, -1.057538, -1.746866, -147.079300, -185.556671, -870.062073, 13.726824, 100.771806
1759223385.118423, 0.732775, 5.620688, 0.028581, -0.036801, -1.324862, -2.030756, -146.862076, -187.239594, -869.053833, 13.726824, 100.771806
1759223385.137992, 0.785149, 6.908020, 1.192612, 0.447767, -1.962988, -2.138598, -146.796417, -189.049957, -867.801636, 13.726824, 100.771806
1759223385.158477, 1.409287, 8.471134, 1.547851, 0.551263, -2.083310, -1.578805, -146.468735, -190.457016, -865.952209, 13.726824, 100.771806
1759223385.178379, 2.779369, 7.708432, 1.212962, 0.561902, -1.501832, -0.858556, -145.895370, -191.159119, -865.024963, 13.726824, 100.771806
1759223385.198379, 4.012383, 6.077531, 0.886603, 0.955778, -0.886745, -0.438379, -145.804596, -191.456314, -864.470703, 13.726824, 100.771806
1759223385.218346, 2.636016, 4.779126, 2.408717, 1.267756, -0.393381, -0.331954, -145.375229, -191.664780, -863.755432, 13.726807, 100.771810
1759223385.238367, -0.087688, 5.040543, 3.299360, 1.557985, -0.235546, -0.270748, -145.333099, -191.236420, -863.515625, 13.726807, 100.771810
1759223385.258438, 0.670526, 7.697658, 5.387702, 1.238853, -0.834267, 0.053865, -145.015472, -191.528503, -863.820068, 13.726807, 100.771810
1759223385.277338, -0.117914, 9.197475, 3.771167, 0.666920, -1.530142, 0.234072, -144.609375, -191.317200, -862.559692, 13.726807, 100.771810
1759223385.298330, -3.172766, 9.934889, 2.080112, 0.556147, -0.859129, 0.242299, -144.033630, -191.162613, -861.646484, 13.726807, 100.771810
1759223385.318308, -4.430021, 11.593024, 5.393987, 0.510053, -0.003480, 0.152797, -143.608795, -190.682144, -861.592041, 13.726807, 100.771810
1759223385.338320, -3.049165, 11.379940, 7.997681, 0.132675, -0.472213, 0.183869, -143.725983, -190.672928, -861.327637, 13.726807, 100.771810
1759223385.358256, -1.646612, 9.653870, 4.522497, -0.046299, -1.067572, 0.448113, -143.561874, -190.303940, -861.060913, 13.726807, 100.771810
1759223385.378232, -0.831985, 7.521385, -0.223858, 0.282457, -0.774170, 0.773570, -143.186234, -189.850662, -860.096802, 13.726807, 100.771810
1759223385.398259, 0.125396, 6.337452, -4.348469, 1.146657, -0.286822, 0.820668, -143.294510, -188.979630, -859.888977, 13.726807, 100.771810
1759223385.418197, 9.497349, 17.345991, -0.044143, 1.051337, 0.528937, 1.488101, -142.718872, -187.536850, -859.908447, 13.726807, 100.771810
1759223385.438247, -1.216105, 31.516672, 16.386066, -1.015767, 1.420825, -0.210579, -143.037552, -187.578918, -861.246399, 13.726807, 100.771810
1759223385.458058, 1.438616, 14.037653, -9.612570, 0.330006, 0.778831, -0.303908, -143.861542, -187.575897, -861.688843, 13.726807, 100.771810
1759223385.477234, 3.942352, 1.023222, -2.477849, -0.496621, 0.933745, 0.558986, -144.293304, -187.371063, -862.558777, 13.726807, 100.771810
1759223385.498192, 4.753538, -1.271022, -1.338209, -0.355449, 0.825664, 0.826423, -144.433395, -186.822449, -863.162781, 13.726807, 100.771810
1759223385.518151, 8.197298, 8.272116, -3.168876, 0.029031, 1.732833, 1.394878, -144.492859, -186.228516, -864.104675, 13.726807, 100.771810
1759223385.538155, 10.543466, 16.261867, -2.692729, 1.393438, 1.717951, 1.912285, -144.593460, -184.553268, -865.726624, 13.726807, 100.771810
1759223385.558204, 3.540575, 14.717906, 0.511461, 1.348222, 0.881350, 1.912477, -144.434067, -182.909592, -867.414551, 13.726807, 100.771810
1759223385.578084, -1.929727, 11.146355, 3.152266, 0.659377, -1.573948, 2.099018, -144.125412, -180.943970, -867.252014, 13.726807, 100.771810
1759223385.598112, -9.008333, 10.920852, 0.980874, 0.631621, -1.740861, 1.740685, -142.836441, -179.845108, -865.913452, 13.726807, 100.771810
1759223385.618074, -12.934226, 9.862465, -0.082450, 0.487399, -0.959191, 0.828550, -141.921921, -178.690842, -864.980713, 13.726807, 100.771810
1759223385.638065, -8.279149, 9.132383, 0.990900, 0.606211, -1.362037, -0.074070, -141.977661, -178.065216, -864.176514, 13.726807, 100.771810
1759223385.658074, -1.649306, 8.774599, 1.326388, 0.671655, -1.725711, -0.342511, -141.831573, -177.903564, -863.087219, 13.726807, 100.771810
1759223385.677125, 2.214637, 8.325537, 1.959355, 0.454295, -1.639225, -0.104096, -141.694092, -177.926285, -862.112305, 13.726807, 100.771810
1759223385.698107, 3.158999, 7.661146, 1.609053, 0.271575, -1.580212, 0.139784, -141.022476, -177.835861, -860.833069, 13.726807, 100.771810
1759223385.718011, 3.021782, 7.858668, 0.395343, 0.254135, -0.933260, 0.229016, -140.322281, -177.732620, -860.176025, 13.726807, 100.771810
1759223385.738072, 2.367865, 8.771008, 1.171962, 0.401287, -0.834479, 0.363324, -139.968796, -177.272568, -859.840698, 13.726807, 100.771810
1759223385.757688, 1.110311, 8.687660, 1.755997, 0.251728, -0.998111, 0.611601, -139.363754, -176.988937, -859.126770, 13.726807, 100.771810
1759223385.777937, -1.074548, 8.856900, -0.147992, 0.321883, -1.082740, 0.673021, -138.682953, -176.503922, -858.894104, 13.726807, 100.771810
1759223385.797950, -0.741903, 9.012972, -0.669778, 0.485731, -1.181365, 0.826204, -138.119446, -175.689148, -857.986755, 13.726807, 100.771810
1759223385.817931, -0.463727, 9.162310, -0.174777, 0.428355, -1.483938, 1.003211, -136.984772, -174.876007, -857.311890, 13.726807, 100.771810
1759223385.837958, -1.090409, 9.147796, -1.492635, 0.470953, -1.278358, 1.010165, -135.959015, -174.305313, -856.589478, 13.726807, 100.771810
1759223385.857645, -0.730381, 9.626187, -1.732504, 0.684127, -1.030187, 0.882825, -135.301651, -173.345367, -856.492676, 13.726807, 100.771810
1759223385.877008, 0.667982, 10.573692, -0.103400, 0.671348, -1.091421, 0.861696, -134.665756, -172.519806, -856.128540, 13.726807, 100.771810
1759223385.897971, 0.387711, 10.048913, 0.927753, 0.275489, -1.262249, 0.887258, -133.815262, -171.715622, -855.566467, 13.726807, 100.771810
1759223385.917853, -0.064943, 9.938780, 0.354791, 0.134686, -1.127361, 0.903482, -132.830612, -171.249557, -854.993225, 13.726807, 100.771810
1759223385.937847, -0.388908, 10.600029, 1.903690, -0.065887, -0.899669, 0.915914, -132.003708, -170.967224, -854.425720, 13.726807, 100.771810
1759223385.956940, -1.805078, 11.660361, 1.874660, -0.542851, -0.991811, 0.747226, -131.260162, -170.613342, -853.953186, 13.726807, 100.771810
1759223385.977789, -2.398990, 13.926772, 0.367211, -0.991439, -1.071165, 0.252047, -130.455399, -171.123962, -852.886108, 13.726807, 100.771810
1759223385.997796, -1.487099, 15.235652, 1.236007, -1.814073, -0.878711, -0.398776, -130.198029, -172.146118, -851.629028, 13.726807, 100.771810
1759223386.017132, 0.202160, 14.658799, 1.156250, -2.328484, -1.207015, -1.062696, -130.056015, -173.709488, -850.401611, 13.726807, 100.771810
1759223386.037248, 2.265513, 12.048969, -0.753276, -2.489200, -0.842991, -1.679518, -130.135330, -175.905579, -849.336609, 13.726807, 100.771810
1759223386.057124, 5.165191, 13.407829, -1.498770, -2.195996, -0.649090, -2.012563, -130.738693, -178.436584, -848.379700, 13.726807, 100.771810
1759223386.076924, 6.390274, 14.555848, -0.086939, -1.725947, -0.955085, -1.939517, -130.518692, -180.708099, -847.674500, 13.726807, 100.771810
1759223386.097723, 5.652560, 12.239907, 1.425747, -1.703852, -0.791218, -1.489101, -130.361465, -182.723450, -847.133789, 13.726789, 100.771800
1759223386.117712, 3.179500, 9.253141, 0.075417, -1.683577, -0.541682, -1.142598, -130.177139, -184.560455, -846.703979, 13.726789, 100.771800
1759223386.137694, 3.262998, 9.999084, -1.713650, -1.513290, 0.256135, -0.862218, -130.373276, -186.004456, -846.530640, 13.726789, 100.771800
1759223386.156841, 3.398869, 10.830171, 0.338480, -1.395800, 0.699897, -0.847241, -130.965073, -187.384384, -846.596802, 13.726789, 100.771800
1759223386.177215, 2.766350, 9.894487, 2.504634, -1.666707, 0.070356, -0.969840, -131.306274, -188.963531, -847.003052, 13.726789, 100.771800
1759223386.197739, 1.424849, 7.988254, 1.311574, -2.001117, -0.880014, -1.040501, -131.047302, -190.727432, -846.414124, 13.726789, 100.771800
1759223386.217642, 2.275240, 6.969820, -0.685640, -1.913459, -1.014986, -0.864980, -130.299118, -192.642761, -845.945251, 13.726789, 100.771800
1759223386.237706, 2.495506, 5.767931, -0.271143, -1.571466, -1.321800, -0.659050, -129.399506, -194.301331, -845.448059, 13.726789, 100.771800
1759223386.257636, 2.221221, 5.626673, -0.760758, -1.120805, -1.231664, -0.763327, -128.543701, -195.316147, -845.285583, 13.726789, 100.771800
1759223386.277588, 3.233070, 6.436811, -0.033668, -0.727776, -1.080423, -0.784669, -127.909348, -196.195389, -844.651550, 13.726789, 100.771800
1759223386.297581, 3.095852, 6.238541, 0.251840, -0.479745, -0.860661, -0.673129, -127.261368, -196.949081, -844.054077, 13.726789, 100.771800
1759223386.317570, 3.055301, 5.091270, -0.433051, -0.121636, -0.501104, -0.537961, -126.846786, -197.120148, -843.974609, 13.726789, 100.771800
1759223386.337560, 3.542970, 4.653430, 0.380678, 0.324896, -0.382662, -0.219836, -126.675079, -197.139420, -843.768066, 13.726789, 100.771800
1759223386.357553, 2.193388, 4.406079, 1.068712, 0.806966, -0.289851, 0.033421, -126.272568, -196.612869, -843.494507, 13.726789, 100.771800
1759223386.377507, 1.336264, 5.902306, 2.454655, 1.245535, -0.424529, 0.233801, -125.787643, -195.770935, -843.313965, 13.726789, 100.771800
1759223386.397515, -0.452953, 8.834903, 4.954950, 1.702870, -0.851608, 0.432152, -125.382126, -194.588074, -842.786194, 13.726789, 100.771800
1759223386.417504, -2.338536, 11.308712, 6.857742, 1.414203, -0.837057, 0.583283, -124.523438, -193.499344, -842.706482, 13.726789, 100.771800
1759223386.437063, -2.869451, 13.433267, 7.909245, 0.300980, -0.498498, 0.108295, -124.421127, -193.182526, -842.684814, 13.726789, 100.771800
1759223386.457476, -1.128716, 12.354230, 6.988824, -0.109073, -0.348398, -0.365857, -124.473633, -193.247833, -842.627319, 13.726789, 100.771800
1759223386.476722, 1.584213, 9.384073, 6.470629, -0.176776, -0.307467, -0.236139, -124.373581, -193.394012, -842.360901, 13.726789, 100.771800
1759223386.497450, 3.983054, 6.528240, 6.086061, -0.053940, -0.562878, 0.085834, -124.176788, -193.395813, -841.925049, 13.726789, 100.771800
1759223386.517432, 2.902072, 4.302530, 3.495834, 0.498538, -0.202859, 0.203985, -123.912643, -192.637070, -842.175903, 13.726789, 100.771800
1759223386.537456, 3.478027, 10.115801, -3.781193, 1.598475, -0.003608, 0.433681, -123.610672, -191.260468, -841.738586, 13.726789, 100.771800
1759223386.557407, 4.908263, 20.987422, -2.246509, 1.347224, 0.261828, 0.671958, -123.984680, -190.797760, -842.386169, 13.726789, 100.771800
1759223386.577368, -7.659799, 26.795456, 6.065261, 0.011379, 2.331833, -0.574419, -126.262299, -190.192139, -843.415039, 13.726789, 100.771800
1759223386.597366, 2.296788, 4.774936, 2.205658, -0.114896, -0.374929, -0.009846, -126.423050, -190.317947, -842.998108, 13.726789, 100.771800
1759223386.617351, 4.890007, -0.462979, -1.648857, -0.293866, -1.038996, 0.557123, -125.361099, -190.352142, -842.712830, 13.726789, 100.771800
1759223386.636682, 3.347244, 0.749684, -3.490297, -0.216497, -1.115782, 1.033558, -125.167953, -190.271042, -842.680969, 13.726789, 100.771800
1759223386.657337, 5.026477, 11.150396, -5.440823, 0.653827, -0.807870, 1.253138, -123.931534, -190.022354, -842.202515, 13.726789, 100.771800
1759223386.676619, 2.944269, 18.159720, -6.701520, 1.741037, 0.033567, 0.713925, -123.243774, -188.629517, -842.180359, 13.726789, 100.771800
1759223386.697304, -1.994969, 12.948142, -1.650353, 2.204528, -0.796534, 0.172565, -123.185654, -187.178238, -842.022827, 13.726789, 100.771800
1759223386.717302, -2.685396, 8.517522, 0.004040, 2.310711, 0.409539, -0.205743, -123.071182, -185.415207, -842.248352, 13.726789, 100.771800
1759223386.737283, -0.474650, 6.271312, 2.099116, 1.471107, 1.119873, -0.539499, -124.060852, -184.219193, -842.684814, 13.726789, 100.771800
1759223386.757358, 2.630180, 7.653814, 1.005864, 1.175068, 0.293985, -0.323710, -124.729645, -183.299316, -843.387939, 13.726789, 100.771800
1759223386.777241, 3.313276, 9.456947, -0.039355, 1.164093, -0.300650, 0.293624, -124.754318, -182.428589, -843.662781, 13.726789, 100.771800
1759223386.797241, -0.070180, 9.094076, -0.570269, 1.036599, -0.136903, 0.361612, -124.295441, -181.711929, -843.759521, 13.726789, 100.771800
1759223386.817215, -0.614412, 9.257779, 0.018854, 1.041726, -0.100043, 0.248228, -124.271393, -180.591766, -843.889771, 13.726789, 100.771800
1759223386.837223, 0.352696, 9.938630, 0.761655, 0.828210, -0.101980, 0.299442, -123.885559, -180.219086, -844.025024, 13.726789, 100.771800
1759223386.857206, 0.548123, 10.196606, 0.111929, 0.626249, -0.079938, 0.251337, -123.893936, -179.616013, -844.361084, 13.726789, 100.771800
1759223386.876532, 1.178546, 9.294291, -0.670227, 0.549487, 0.088462, 0.318413, -124.151901, -179.139221, -844.542542, 13.726789, 100.771800
1759223386.897182, 0.884358, 8.719084, -0.565181, 0.580611, 0.215826, 0.405065, -124.240570, -178.395355, -844.484924, 13.726789, 100.771800
1759223386.917162, 1.430386, 9.282918, -0.245705, 0.642998, 0.273305, 0.609285, -124.105240, -177.835678, -844.981445, 13.726789, 100.771800
1759223386.937155, 1.472135, 9.789442, -0.123900, 0.635274, 0.243731, 0.805044, -124.217850, -177.261307, -845.112122, 13.726789, 100.771800
1759223386.957137, 0.304662, 9.300276, -0.337732, 0.647481, 0.355135, 0.828572, -124.110992, -176.617554, -845.543091, 13.726789, 100.771800
1759223386.976335, -0.307056, 9.644144, -0.032920, 0.734824, 0.408736, 0.742057, -124.113632, -175.762970, -846.222900, 13.726789, 100.771800
1759223386.997108, -0.172831, 10.662876, 0.658106, 0.596350, 0.352960, 0.715877, -124.234512, -175.095062, -846.376770, 13.726789, 100.771800
1759223387.017129, -0.379331, 10.601824, 1.485153, 0.236763, 0.140893, 0.738360, -123.991364, -174.672470, -846.721802, 13.726789, 100.771800
1759223387.037074, -1.458069, 10.430340, 1.593491, -0.024491, 0.061114, 0.713631, -123.845703, -174.405472, -846.778076, 13.726789, 100.771800
1759223387.057065, -2.633023, 10.274118, 1.998709, -0.313909, 0.036860, 0.593775, -123.685562, -174.370270, -846.626831, 13.726789, 100.771800
1759223387.076428, -3.827880, 11.529278, 2.291251, -0.803065, -0.313343, 0.261759, -123.326889, -174.926514, -846.442322, 13.726789, 100.771800
1759223387.097048, -3.336021, 14.972439, 1.886481, -1.286251, -0.479938, -0.494864, -123.141205, -175.602341, -845.999268, 13.726779, 100.771796
1759223387.117022, -0.294636, 16.087838, 3.169474, -2.228729, -0.455975, -1.022810, -123.211777, -177.125214, -845.309326, 13.726779, 100.771796
1759223387.137009, 2.246060, 13.263578, 2.184410, -2.887789, -0.274618, -1.324330, -123.689438, -179.759415, -844.090271, 13.726779, 100.771796
1759223387.156987, 6.298845, 12.042385, 2.484882, -3.080360, 0.038064, -1.397686, -123.906769, -182.333237, -843.637390, 13.726779, 100.771796
1759223387.176952, 7.518841, 14.887595, -1.190966, -2.686616, 0.801973, -1.684696, -124.316849, -185.053085, -843.747864, 13.726779, 100.771796
1759223387.196960, 7.682993, 16.304962, -1.746720, -1.959733, 1.226175, -1.619003, -125.425552, -187.264633, -844.073242, 13.726779, 100.771796
1759223387.216951, 4.845266, 11.647492, 1.440112, -1.747713, 1.251915, -1.415559, -126.472137, -189.208542, -844.541504, 13.726779, 100.771796
1759223387.236948, 2.859275, 7.632715, 0.055067, -1.328739, 1.417407, -1.138640, -127.344040, -190.700073, -845.064026, 13.726779, 100.771796
1759223387.256268, 1.749862, 7.955782, 0.299275, -0.878691, 0.560536, -0.890502, -127.651184, -191.890350, -845.706421, 13.726779, 100.771796
1759223387.276329, 0.625186, 9.633968, 1.393276, -1.127134, 0.380263, -0.788918, -127.711807, -192.939102, -845.720764, 13.726779, 100.771796
1759223387.296897, -0.086790, 9.729138, 1.564760, -1.432915, -0.041784, -0.908180, -127.982254, -194.410248, -845.898804, 13.726779, 100.771796
1759223387.316882, 0.567725, 7.696161, 1.148618, -1.519215, -0.544032, -0.942075, -127.626190, -195.562149, -845.796692, 13.726779, 100.771796
1759223387.336644, 1.241992, 5.786636, 0.420033, -1.200064, -0.968916, -1.043548, -126.773102, -196.980820, -845.259216, 13.726779, 100.771796
1759223387.356850, 1.479916, 4.694581, 0.140210, -0.767209, -1.367943, -1.099965, -125.849945, -198.160034, -845.200745, 13.726779, 100.771796
1759223387.376384, 1.935712, 4.490176, -0.255731, -0.318314, -1.407645, -0.958975, -124.620239, -198.929123, -844.382446, 13.726779, 100.771796
1759223387.396822, 2.152537, 5.254973, -0.281019, 0.107683, -1.099334, -0.704357, -123.580215, -199.030197, -844.023804, 13.726779, 100.771796
1759223387.416787, 2.121113, 5.750274, 0.518345, 0.388319, -0.888081, -0.470729, -122.659668, -199.021927, -843.644836, 13.726779, 100.771796
1759223387.436804, 2.230348, 5.722441, 1.598130, 0.440169, -0.980236, -0.290050, -122.007721, -198.947128, -843.417725, 13.726779, 100.771796
1759223387.456825, 2.624943, 5.702390, 1.870021, 0.562653, -0.994338, 0.049277, -121.416306, -198.500198, -843.084290, 13.726779, 100.771796
1759223387.476240, 2.833388, 6.168960, 2.377442, 0.840740, -0.798227, 0.346666, -120.524002, -197.712784, -842.543945, 13.726779, 100.771796
1759223387.496797, 2.790143, 8.152556, 4.074632, 1.163328, -0.621756, 0.511455, -119.971558, -196.849136, -842.584290, 13.726779, 100.771796
1759223387.516748, 0.646584, 10.138696, 7.356783, 1.099622, -0.361329, 0.474168, -119.554214, -195.916397, -842.525024, 13.726779, 100.771796
1759223387.536730, -2.860472, 11.486631, 8.555081, 0.701127, 0.153355, 0.214795, -119.554596, -195.265137, -842.567017, 13.726779, 100.771796
1759223387.556717, -3.672256, 12.576143, 7.455245, 0.173914, 0.396102, -0.069690, -119.648102, -194.963684, -842.220459, 13.726779, 100.771796
1759223387.576678, -0.880617, 12.562975, 6.153697, -0.481520, -0.036065, -0.263402, -119.752731, -195.139160, -842.581238, 13.726779, 100.771796
1759223387.596673, 2.317886, 9.984569, 4.897788, -0.761299, -0.821009, -0.363882, -119.589157, -195.724487, -842.510193, 13.726779, 100.771796
1759223387.616672, 2.897732, 6.593631, 3.566313, -0.490234, -0.549318, -0.269506, -119.238663, -195.794693, -841.891113, 13.726779, 100.771796
1759223387.636659, 2.781763, 3.581726, 1.975815, 0.333622, 0.378063, 0.159197, -119.261749, -195.628937, -842.241211, 13.726779, 100.771796
1759223387.656651, 2.499397, 5.048473, -1.252616, 1.420672, 1.179072, 0.336894, -119.848862, -194.201614, -842.271606, 13.726779, 100.771796
1759223387.676135, 11.060912, 19.584719, 4.920384, 1.442200, -0.264186, 0.883239, -119.761810, -192.966904, -841.981995, 13.726779, 100.771796
1759223387.696135, -0.358981, 30.460231, 3.075352, 0.209230, 1.733029, -0.156496, -120.790054, -192.974976, -842.574890, 13.726779, 100.771796
1759223387.716607, 0.187197, 7.630171, -5.371691, -0.246536, 0.893834, 0.276458, -121.453705, -192.826736, -843.149292, 13.726779, 100.771796
1759223387.736625, 1.976862, 1.156100, -2.558354, 0.009895, 0.675180, 0.755308, -122.037720, -192.534149, -843.010681, 13.726779, 100.771796
1759223387.756599, 2.936638, 0.722151, -1.117194, 0.089802, 0.234525, 0.946915, -122.054031, -191.838943, -843.257874, 13.726779, 100.771796
1759223387.776539, 4.462942, 7.179463, -4.873397, 0.686365, 0.560528, 1.045807, -122.354248, -190.895416, -843.489197, 13.726779, 100.771796
1759223387.796550, 5.909339, 16.676063, -6.305130, 1.810380, 1.382351, 0.886018, -122.845474, -189.439667, -843.881287, 13.726779, 100.771796
1759223387.816535, 1.295263, 17.027861, -2.214487, 3.104587, 1.019687, 0.149988, -123.675537, -187.088455, -844.641479, 13.726779, 100.771796
1759223387.835765, 0.282516, 10.168623, 2.230648, 2.731561, 1.537391, 0.080532, -124.973495, -185.280060, -845.442566, 13.726779, 100.771796
1759223387.856524, -0.892289, 7.232285, 4.201375, 1.185202, 2.444925, 0.119971, -126.508026, -184.547318, -846.676697, 13.726779, 100.771796
1759223387.876470, -0.239420, 8.292467, 1.491887, 0.344785, 1.747751, 0.225104, -127.220047, -184.088104, -847.376648, 13.726779, 100.771796
1759223387.896475, -0.796820, 8.824279, -1.595735, 0.450231, 0.650472, 0.332532, -127.826157, -183.581772, -847.808899, 13.726779, 100.771796
1759223387.916471, -2.218527, 8.857499, -2.250550, 0.970592, 0.077046, 0.203189, -127.706436, -182.730972, -848.165466, 13.726779, 100.771796
1759223387.936450, -0.596306, 9.042301, -2.275240, 1.354887, 1.337086, 0.184182, -128.729980, -181.649506, -849.284180, 13.726779, 100.771796
1759223387.956438, 0.707187, 9.776573, 0.798766, 1.320985, 1.536762, 0.167028, -129.546722, -180.681183, -849.933838, 13.726779, 100.771796
1759223387.976399, 0.800262, 9.565285, 1.722927, 0.972535, 1.189511, 0.282604, -130.101349, -179.854218, -850.724731, 13.726779, 100.771796
1759223387.996398, 0.994641, 9.670330, 0.809240, 0.769774, 1.459788, 0.348229, -130.916946, -179.185501, -851.853760, 13.726779, 100.771796
1759223388.016382, 0.491260, 9.648333, 0.810437, 0.679829, 1.423581, 0.482463, -131.257584, -178.476883, -852.441284, 13.726779, 100.771796
1759223388.036369, -0.580594, 9.395895, 1.049109, 0.531557, 1.062783, 0.652732, -131.795227, -177.829163, -853.211853, 13.726779, 100.771796
1759223388.056366, -1.153407, 9.797372, 0.395492, 0.599415, 0.760845, 0.736079, -131.854401, -176.963440, -853.867798, 13.726779, 100.771796
1759223388.075942, -1.487996, 10.099790, 0.407314, 0.625321, 0.586121, 0.750726, -132.000702, -176.636169, -854.026917, 13.726779, 100.771796
1759223388.096337, -2.291999, 9.318981, 0.606032, 0.425311, 0.546220, 0.675720, -131.772598, -175.920013, -854.261719, 13.726770, 100.771799
1759223388.116334, -2.346467, 9.665242, 0.333243, 0.436687, 0.708858, 0.498226, -131.947220, -175.349655, -855.320496, 13.726770, 100.771799
1759223388.136325, -1.483806, 9.496601, 0.241814, 0.289234, 0.980482, 0.338942, -132.285431, -175.030167, -855.471252, 13.726770, 100.771799
1759223388.156305, -0.463577, 10.035745, -0.235230, 0.244003, 0.814859, 0.359340, -132.509109, -174.737640, -855.989990, 13.726770, 100.771799
1759223388.175857, -0.594510, 10.676793, -0.069731, 0.311219, 0.496274, 0.396548, -132.721191, -174.316620, -856.194641, 13.726770, 100.771799
1759223388.196293, -1.102979, 11.104008, 1.329979, 0.070509, 0.363528, 0.298899, -132.757294, -173.793793, -856.144348, 13.726770, 100.771799
1759223388.216283, 0.142006, 12.452243, 3.211822, -0.322536, 0.461118, -0.002455, -132.668533, -173.794281, -856.205200, 13.726770, 100.771799
1759223388.236274, 2.620154, 14.791827, 5.205743, -1.234999, 0.632292, -0.230672, -132.900345, -174.424713, -855.726685, 13.726770, 100.771799
1759223388.255321, 2.125153, 15.272762, 5.132420, -2.442122, 0.250219, -0.395123, -133.074600, -175.470001, -855.512817, 13.726770, 100.771799
1759223388.275872, 0.615759, 13.822624, 1.848623, -3.047553, 0.733812, -0.832001, -133.721924, -177.228516, -854.633972, 13.726770, 100.771799
1759223388.296239, 2.166004, 12.483816, -0.596605, -3.188857, 1.587018, -1.169742, -134.964233, -179.290695, -854.246216, 13.726770, 100.771799
1759223388.316220, 5.531204, 12.335376, -3.176507, -2.453503, 2.126540, -1.342107, -136.310501, -181.085449, -854.947327, 13.726770, 100.771799
1759223388.336091, 6.468834, 12.314576, -1.425747, -1.326548, 2.169134, -1.300325, -137.650955, -182.756561, -855.937378, 13.726770, 100.771799
1759223388.356196, 2.157774, 10.441862, 3.003526, -1.113767, 2.874477, -1.298903, -138.896759, -184.221771, -857.622498, 13.726770, 100.771799
1759223388.376175, 1.835156, 9.023746, 1.427992, -1.096705, 2.832465, -0.927861, -140.406845, -185.454224, -859.427063, 13.726770, 100.771799
1759223388.396216, 1.503409, 8.892963, 0.111630, -0.724743, 1.491090, -0.652288, -141.177063, -186.213745, -860.395935, 13.726770, 100.771799
1759223388.416169, -0.352397, 9.642049, 1.980304, -0.960742, 1.155986, -0.758106, -141.659073, -187.053986, -861.022278, 13.726770, 100.771799
1759223388.436162, -0.586729, 8.025214, 2.647388, -1.401441, 0.938356, -0.911482, -142.249496, -188.238907, -861.749756, 13.726770, 100.771799
1759223388.456136, -1.245284, 6.407183, 1.012448, -1.208771, -0.435115, -1.021295, -142.064636, -189.545044, -861.260925, 13.726770, 100.771799
1759223388.475803, -0.886453, 5.507861, 0.105495, -0.848773, -0.229513, -1.112484, -142.374802, -190.758804, -861.008301, 13.726770, 100.771799
1759223388.496165, 0.796222, 5.292532, 0.130933, -0.176244, -0.322030, -1.180252, -142.335648, -191.473450, -860.622314, 13.726770, 100.771799
1759223388.516088, 1.849521, 6.168661, -0.067038, 0.377272, -0.331371, -1.071454, -141.867416, -192.378372, -860.088257, 13.726770, 100.771799
1759223388.536104, 1.657536, 6.155492, 0.382623, 0.832874, -0.251427, -0.809067, -142.438293, -192.762878, -859.571899, 13.726770, 100.771799
1759223388.556086, 1.867777, 5.491850, 1.775001, 1.160174, -0.200125, -0.475492, -141.983261, -192.641937, -859.393250, 13.726770, 100.771799
1759223388.576055, 2.481440, 4.300435, 2.073528, 1.123872, -0.620942, -0.104567, -142.272491, -192.184357, -858.889526, 13.726770, 100.771799
1759223388.596111, 2.723554, 3.959261, 1.658434, 1.198294, -0.260097, 0.217431, -142.054703, -191.705917, -858.600403, 13.726770, 100.771799
1759223388.615214, 2.532616, 5.439477, 2.700360, 1.626666, 0.428350, 0.419159, -141.960327, -190.782745, -858.821899, 13.726770, 100.771799
1759223388.636043, 1.133206, 6.791901, 5.241207, 1.546050, 1.021166, 0.658827, -142.233826, -189.749390, -859.657471, 13.726770, 100.771799
1759223388.656030, -0.480935, 10.120290, 6.422745, 0.969359, 0.412175, 0.900321, -142.227570, -188.948303, -859.830444, 13.726770, 100.771799
1759223388.675735, -3.729119, 12.184691, 1.899649, 0.832934, 0.584362, 0.950674, -142.437683, -187.739090, -860.593628, 13.726770, 100.771799
1759223388.696007, -4.868609, 10.941502, 2.316839, 0.469775, 1.294722, 0.828828, -143.210068, -186.861084, -861.320435, 13.726770, 100.771799
1759223388.716004, -2.872892, 6.364985, 2.271050, 0.997209, 0.054852, 0.802560, -143.313416, -185.656219, -861.319946, 13.726770, 100.771799
1759223388.735994, 2.131737, 9.275437, -1.147571, 1.474158, -0.400330, 0.919009, -143.069382, -184.296158, -861.296387, 13.726770, 100.771799
1759223388.755074, 8.497022, 30.257322, -0.562039, 0.462619, 2.148885, 0.916826, -143.446426, -184.063873, -863.006653, 13.726770, 100.771799
1759223388.775955, 2.407669, 30.310443, 2.091485, -0.327486, 2.617814, -0.296128, -144.600769, -184.144196, -864.738037, 13.726770, 100.771799
1759223388.795964, 3.573945, 4.433313, 6.465242, -1.190769, -0.273150, -0.072310, -145.178223, -184.375534, -864.758179, 13.726770, 100.771799
1759223388.815934, 4.423138, -4.096329, -2.949208, -0.774684, -0.019909, 0.090555, -145.059296, -184.359421, -864.728333, 13.726770, 100.771799
1759223388.835946, 5.690120, -0.434548, -3.422212, -1.261409, 0.279005, 0.805877, -145.091339, -184.061111, -864.816162, 13.726770, 100.771799
1759223388.855934, 7.974038, 11.836035, -6.793996, 0.026758, 0.661281, 1.861650, -144.644104, -182.737045, -865.592896, 13.726770, 100.771799
1759223388.875677, 3.883545, 24.513632, -6.870461, 1.765131, 0.599592, 2.173079, -143.800735, -181.174820, -866.255432, 13.726770, 100.771799
1759223388.895917, -6.943783, 15.812056, -1.353771, 2.119676, -0.061932, 0.835409, -144.141068, -179.749603, -867.308960, 13.726770, 100.771799
1759223388.915900, -10.482862, 6.858640, 5.322610, 1.087133, 2.815612, 0.506509, -144.750244, -178.947006, -869.376465, 13.726770, 100.771799
1759223388.935892, -3.417573, 5.863400, 7.596802, 0.402019, -0.207665, -0.299992, -145.048172, -179.088760, -869.035767, 13.726770, 100.771799
1759223388.955879, 1.001076, 9.225308, 0.248847, 0.304538, -0.283472, -0.236946, -145.082504, -178.985748, -869.005676, 13.726770, 100.771799
1759223388.975846, 1.883489, 10.190171, -0.677260, 0.549003, 0.014767, 0.365552, -144.968384, -178.598511, -869.083374, 13.726770, 100.771799
1759223388.995887, -0.312743, 8.296807, 1.394024, 0.641551, -0.175142, 0.616052, -145.012314, -178.177444, -869.026917, 13.726770, 100.771799
1759223389.015845, -1.367388, 7.121852, 1.522114, 0.555970, -0.283647, 0.553173, -144.675781, -177.385727, -869.116577, 13.726770, 100.771799
1759223389.035828, -2.507328, 6.083666, 0.107739, 0.767860, -0.330774, 0.368482, -144.724030, -176.984131, -868.715759, 13.726770, 100.771799
1759223389.055816, -2.280627, 4.799776, -0.884209, 1.015830, -0.430804, 0.456906, -144.680374, -176.414795, -868.721313, 13.726770, 100.771799
1759223389.075607, -0.767342, 7.160159, -0.955286, 1.381514, -0.793614, 0.855694, -143.771591, -175.505585, -868.393372, 13.726770, 100.771799
1759223389.095792, -1.699883, 13.901333, 1.566706, 1.033853, -0.872406, 1.000993, -143.261856, -174.497498, -868.069702, 13.726769, 100.771808
1759223389.115794, -1.382951, 15.180885, 1.389834, 0.542235, -0.844506, 1.091379, -143.001236, -173.620148, -867.356689, 13.726769, 100.771808
1759223389.135790, -1.928829, 9.673772, 2.304269, 0.121676, -1.233117, 0.972360, -142.609375, -172.869064, -866.421326, 13.726769, 100.771808
1759223389.155792, -2.566734, 7.923760, -0.773327, 0.040095, -1.257460, 0.685805, -142.347778, -172.248199, -865.458984, 13.726769, 100.771808
1759223389.175739, -0.931344, 8.987983, -1.591994, 0.117122, -1.311514, 0.505821, -141.907364, -171.853470, -864.576111, 13.726769, 100.771808
1759223389.195728, 1.597082, 9.546430, -1.892317, 0.057666, -1.106942, 0.505672, -141.578461, -171.450256, -863.415039, 13.726769, 100.771808
1759223389.215741, 3.804087, 9.560047, -2.057816, 0.004284, -0.913578, 0.636976, -141.016083, -171.090073, -862.990845, 13.726769, 100.771808
1759223389.235742, 4.100370, 9.667786, -1.689558, 0.041259, -0.874989, 0.857934, -140.527863, -170.361572, -862.685181, 13.726769, 100.771808
1759223389.255726, 2.352902, 10.132112, 0.289549, -0.194231, -0.841432, 1.057281, -139.673157, -169.913818, -861.911011, 13.726769, 100.771808
1759223389.275542, -0.570867, 10.184335, 0.030077, -0.427675, -0.838374, 0.939087, -139.102142, -169.425842, -860.965759, 13.726769, 100.771808
1759223389.295702, -1.045368, 10.140192, 0.293888, -0.669223, -0.762802, 0.688690, -138.503052, -169.505585, -859.994690, 13.726769, 100.771808
1759223389.315684, 2.503138, 15.835549, 0.621744, -1.198617, -0.333676, -0.114189, -138.567169, -169.890198, -859.305481, 13.726769, 100.771808
1759223389.335659, 4.599411, 14.963760, 3.623475, -2.288288, -0.244896, -0.343685, -138.777588, -171.069489, -858.291992, 13.726769, 100.771808
1759223389.355647, 2.296339, 12.989292, 0.564882, -2.622038, -0.006881, -0.841105, -139.006363, -172.631821, -857.252747, 13.726769, 100.771808
1759223389.375638, 2.634969, 12.306795, 1.052551, -2.958171, 0.743515, -1.332842, -139.763153, -174.819366, -856.852600, 13.726769, 100.771808
1759223389.395630, 3.686921, 12.179154, -0.495151, -2.614337, 1.166273, -1.861363, -141.215897, -177.407028, -857.063782, 13.726769, 100.771808
1759223389.415620, 5.344906, 12.240206, -0.559645, -1.903152, 1.328125, -1.815562, -142.222900, -179.676773, -857.552246, 13.726769, 100.771808
1759223389.435614, 4.178331, 10.665869, 2.108992, -1.592772, 1.481611, -1.536929, -143.115311, -181.902710, -858.132996, 13.726769, 100.771808
1759223389.455604, 2.377293, 9.248202, 1.240346, -1.340384, 1.237152, -1.386402, -143.348221, -182.455673, -858.875122, 13.726769, 100.771808
1759223389.475487, 1.782034, 8.502858, 0.173879, -0.961351, 0.778288, -1.142678, -144.085983, -184.037582, -859.586792, 13.726769, 100.771808
1759223389.495583, 0.024092, 8.776694, 1.729063, -0.807715, 0.788809, -0.970645, -144.594711, -185.427139, -859.935913, 13.726769, 100.771808
1759223389.515591, -3.303549, 8.674492, 3.034651, -0.870319, 0.197791, -1.187031, -144.661346, -186.775314, -860.840515, 13.726769, 100.771808
1759223389.535564, -4.862324, 8.575881, 1.841590, -0.911222, -1.148920, -1.390067, -144.880646, -188.307098, -860.606140, 13.726769, 100.771808
1759223389.555554, -6.340893, 8.340950, -0.488118, -0.667298, -1.770257, -1.644675, -144.236115, -189.680740, -859.309631, 13.726769, 100.771808
1759223389.575528, -4.189404, 8.600421, -0.798616, -0.244195, -1.751945, -1.829005, -143.732193, -191.439468, -857.948181, 13.726769, 100.771808
1759223389.595601, -1.625364, 8.298004, -0.299874, 0.161400, -2.174052, -1.994194, -143.024734, -193.122742, -856.438721, 13.726769, 100.771808
1759223389.615531, -0.137218, 7.639299, -0.388908, 0.310870, -2.439577, -2.015296, -141.776978, -194.575745, -854.720520, 13.726769, 100.771808
1759223389.635517, 1.500416, 6.111050, -0.171784, 0.421053, -2.645110, -1.745836, -140.499863, -195.936935, -852.736450, 13.726769, 100.771808
1759223389.655526, 2.767697, 4.222025, 0.319626, 0.537948, -2.896563, -1.405363, -139.028168, -197.064651, -850.814880, 13.726769, 100.771808
1759223389.675477, 4.193145, 3.771317, 1.121534, 0.510339, -3.240456, -0.882170, -137.183868, -197.630203, -848.458008, 13.726769, 100.771808
1759223389.694819, 4.413711, 4.548834, 1.218948, 0.686011, -2.711742, -0.441568, -135.360687, -197.811203, -846.764587, 13.726769, 100.771808
1759223389.715135, 3.512443, 5.289989, 2.756025, 0.867439, -2.465977, -0.000947, -133.167526, -197.603439, -845.153931, 13.726769, 100.771808
1759223389.734750, 3.053206, 7.126790, 4.893150, 0.413211, -2.101779, 0.492246, -131.767731, -197.248413, -843.542542, 13.726769, 100.771808
1759223389.755477, 1.823484, 9.188796, 8.186075, -0.148371, -1.835103, 0.696224, -129.923431, -196.854324, -842.838623, 13.726769, 100.771808
1759223389.775426, -2.710087, 9.979332, 7.678205, -0.317880, -1.087337, 0.566428, -129.006256, -197.019226, -842.105347, 13.726769, 100.771808
1759223389.795440, -3.718046, 12.198308, 3.164237, 0.008607, -0.478359, 0.473739, -128.651520, -197.069580, -842.102478, 13.726769, 100.771808
1759223389.815431, -3.608511, 11.516110, 1.967435, 0.370707, -0.924584, 0.155629, -128.088867, -196.718033, -841.719177, 13.726769, 100.771808
1759223389.835417, -1.277606, 9.396344, 3.112313, 0.377287, -0.650905, -0.065267, -127.987259, -196.590897, -841.273926, 13.726769, 100.771808
1759223389.855429, -1.473033, 8.588899, 1.759888, 0.752769, 0.168299, -0.490465, -127.660461, -196.319977, -841.120544, 13.726769, 100.771808
1759223389.875358, 8.535778, 20.946122, 0.386065, 0.640292, 0.261553, 0.008416, -127.899780, -195.625977, -841.100769, 13.726769, 100.771808
1759223389.895404, 0.557400, 32.785749, 12.587964, -0.881054, 0.751864, -1.489626, -128.345230, -196.781113, -842.107300, 13.726769, 100.771808
1759223389.915377, 7.594857, 5.852626, -5.591957, 0.184385, -0.343540, -0.030408, -128.729034, -197.063782, -841.855347, 13.726769, 100.771808
1759223389.935386, 6.530035, -3.583072, -5.150077, 0.312874, 0.525017, 0.649218, -129.321930, -196.497299, -841.807739, 13.726769, 100.771808
1759223389.955303, 6.313959, -2.380585, -3.890877, 0.295934, 0.439749, 0.973066, -129.791504, -195.925690, -842.151855, 13.726769, 100.771808
1759223389.975324, 9.779566, 9.583091, -3.931129, 1.147766, 0.852563, 1.762888, -129.990585, -194.700546, -842.444885, 13.726769, 100.771808
1759223389.995334, 8.551639, 20.997597, -3.582923, 1.971637, 1.115751, 2.534306, -130.708176, -192.627777, -842.966553, 13.726769, 100.771808
1759223390.015325, -1.351976, 18.912098, 1.287033, 1.921214, -0.873227, 1.563541, -129.951294, -190.657089, -843.270142, 13.726769, 100.771808
1759223390.035319, -7.365761, 10.428394, 1.656788, 1.715623, -0.017670, 0.300971, -129.913712, -188.837265, -843.163879, 13.726769, 100.771808
1759223390.055305, -5.366902, 6.732495, -0.126444, 1.089345, 0.907975, -0.072216, -130.834808, -187.561310, -843.413818, 13.726769, 100.771808
1759223390.075271, -2.908656, 6.026206, -1.465401, 1.233558, 0.980645, -0.021612, -131.548950, -186.787552, -844.347412, 13.726769, 100.771808
1759223390.095275, -1.065420, 8.076241, -0.412701, 1.475502, 0.567769, -0.011713, -132.067612, -185.725250, -844.855957, 13.726763, 100.771808
1759223390.115285, 0.229095, 10.744429, 1.820790, 1.625843, -0.375642, 0.346612, -131.781036, -184.556442, -844.871094, 13.726763, 100.771808
1759223390.134876, -1.008258, 10.235661, 2.440739, 1.053858, -0.337291, 0.402573, -131.465973, -183.480881, -845.139709, 13.726763, 100.771808
1759223390.155277, -1.588553, 9.168595, 0.893187, 0.795566, -0.323529, 0.203731, -131.345718, -182.967728, -844.997559, 13.726763, 100.771808
1759223390.175225, -0.748936, 8.565107, -0.650475, 1.085901, -0.090138, 0.006901, -130.896149, -182.297546, -845.217346, 13.726763, 100.771808
1759223390.195255, 0.282516, 8.405892, 0.671125, 1.221177, -0.082836, 0.069939, -131.121979, -181.369965, -845.467468, 13.726763, 100.771808
1759223390.215226, 0.586879, 8.548048, 1.779041, 1.005451, -0.361368, 0.331274, -130.943649, -180.696350, -845.571289, 13.726763, 100.771808
1759223390.235193, 0.941669, 9.138368, 1.146374, 0.773163, -0.519469, 0.661617, -130.374710, -179.904282, -845.542725, 13.726763, 100.771808
1759223390.255217, -0.298976, 8.989928, 1.156549, 0.724747, -0.552585, 0.622936, -129.890961, -179.057724, -845.699463, 13.726763, 100.771808
1759223390.275176, -0.924162, 9.178471, 0.198868, 0.607647, -0.176812, 0.626247, -129.467941, -178.366241, -845.368042, 13.726763, 100.771808
1759223390.295190, -1.014543, 9.794679, 0.162656, 0.484287, 0.007098, 0.550314, -129.381470, -177.922363, -845.574829, 13.726763, 100.771808
1759223390.314951, -0.386813, 11.569980, 0.435445, 0.595222, 0.248869, 0.313955, -129.462250, -177.518158, -845.996826, 13.726763, 100.771808
1759223390.335175, 0.542885, 10.570101, 1.453879, 0.290699, 0.350646, 0.236977, -129.896118, -177.090790, -846.131714, 13.726763, 100.771808
1759223390.355185, 0.446668, 9.784953, 1.775301, -0.096454, 0.201636, 0.410720, -129.884964, -177.113403, -846.147583, 13.726763, 100.771808
1759223390.375129, -1.105223, 10.003274, 1.773505, -0.471606, -0.140625, 0.672766, -129.189148, -177.113235, -846.451111, 13.726763, 100.771808
1759223390.394402, -3.409343, 11.002554, 1.353622, -0.801411, -0.582329, 0.614857, -128.631821, -177.578583, -845.910034, 13.726763, 100.771808
1759223390.415139, -4.470274, 13.816040, 1.525855, -1.121595, -0.665715, 0.095879, -127.945908, -178.250519, -844.912842, 13.726763, 100.771808
1759223390.435127, -2.392406, 17.936611, 2.226757, -2.071599, -0.352860, -0.573706, -127.782364, -179.954529, -844.916077, 13.726763, 100.771808
1759223390.454671, 1.403451, 16.966061, 3.212270, -3.151081, 0.199748, -1.102969, -128.456467, -182.385910, -843.985291, 13.726763, 100.771808
1759223390.475081, 5.610063, 12.307693, 0.427215, -3.316150, 0.925549, -1.291650, -129.057861, -185.057968, -844.133423, 13.726763, 100.771808
1759223390.495115, 8.132804, 11.980286, -3.563470, -2.421067, 1.287013, -1.140991, -130.225616, -187.465363, -844.911560, 13.726763, 100.771808
1759223390.515082, 9.984868, 14.752472, -0.990451, -1.614587, 0.703043, -0.713980, -130.393143, -189.073486, -845.245422, 13.726763, 100.771808
1759223390.535070, 4.490026, 13.449428, 2.748544, -1.802256, 0.793218, -0.602630, -131.197784, -190.631241, -845.669006, 13.726763, 100.771808
1759223390.555160, 0.728286, 11.096227, 1.450737, -1.917911, 0.625924, -0.264431, -131.287735, -192.198212, -846.383728, 13.726763, 100.771808
1759223390.574320, -0.746542, 10.510845, -1.099088, -1.573470, 0.651632, -0.205082, -131.392715, -193.193497, -846.682983, 13.726763, 100.771808
1759223390.595084, -1.384597, 10.117298, -0.881066, -1.352140, 0.883816, -0.470819, -132.092087, -194.259094, -847.047180, 13.726763, 100.771808
1759223390.614867, -0.795623, 8.974216, 1.136049, -1.489500, 0.242598, -0.950672, -132.092178, -195.187439, -847.609131, 13.726763, 100.771808
1759223390.635051, 1.518522, 6.782923, 1.470489, -1.519121, -0.820397, -0.902620, -132.008728, -196.694229, -847.373352, 13.726763, 100.771808
1759223390.655043, 0.151583, 3.716100, 0.666636, -1.294839, -1.676668, -0.854147, -130.762085, -198.014572, -846.550293, 13.726763, 100.771808
1759223390.674987, 0.425569, 3.727024, -1.182736, -0.795874, -1.183446, -0.911889, -129.738342, -198.959824, -846.355103, 13.726763, 100.771808
1759223390.694338, 1.741333, 3.841497, -1.203236, -0.361324, -0.972910, -0.901960, -129.135101, -199.348740, -845.546631, 13.726763, 100.771808
1759223390.715009, 2.487426, 3.722086, -0.363320, -0.141324, -0.996489, -0.746115, -128.066833, -199.769974, -845.158691, 13.726763, 100.771808
1759223390.734998, 2.734926, 4.121618, 0.611419, 0.110015, -1.047274, -0.509871, -127.451553, -199.988342, -844.859253, 13.726763, 100.771808
1759223390.754980, 2.330905, 4.763115, 1.063175, 0.411382, -1.050212, -0.338587, -126.585022, -199.837219, -844.373291, 13.726763, 100.771808
1759223390.774940, 1.532439, 4.815039, 0.787543, 0.840662, -1.056369, -0.216287, -125.784653, -199.666794, -843.713623, 13.726763, 100.771808
1759223390.794245, 0.694767, 6.175394, 1.045069, 1.434779, -0.963663, -0.024971, -125.137863, -198.549393, -843.273193, 13.726763, 100.771808
1759223390.814489, -0.316184, 8.910470, 3.243545, 1.780120, -0.737605, 0.149821, -124.541840, -197.583466, -843.421997, 13.726763, 100.771808
1759223390.834941, -0.676661, 11.865813, 7.192481, 1.420200, -0.473925, 0.248562, -123.852966, -196.154663, -842.522400, 13.726763, 100.771808
1759223390.854929, -2.607884, 12.693459, 9.679757, 0.705287, -0.365222, -0.084364, -123.305389, -195.508240, -842.825745, 13.726763, 100.771808
1759223390.874890, -3.244293, 12.527211, 7.156867, 0.389121, -0.180917, -0.387701, -123.522736, -195.012726, -842.707092, 13.726763, 100.771808
1759223390.894901, -0.940622, 10.942699, 4.713884, 0.350919, -0.260374, -0.445685, -123.261032, -194.913544, -842.558838, 13.726763, 100.771808
1759223390.914903, 1.115698, 9.239673, 5.103540, 0.361917, -0.239177, -0.404348, -123.360168, -194.516190, -842.532959, 13.726763, 100.771808
1759223390.934904, 1.133206, 6.114941, 4.910059, 0.453468, -0.127119, -0.076406, -123.161057, -194.087708, -842.614685, 13.726763, 100.771808
1759223390.954900, -1.164031, 2.755427, -1.260996, 0.861815, 0.421488, 0.061552, -123.533524, -193.531784, -842.409485, 13.726763, 100.771808
1759223390.974842, 7.341969, 8.592640, -3.536086, 1.206340, -0.233083, 0.316134, -123.729935, -192.425537, -842.430603, 13.726763, 100.771808
1759223390.994852, 11.008839, 31.730654, 1.274613, 1.525553, 1.454955, 0.593253, -123.437759, -191.407120, -842.656738, 13.726763, 100.771808
1759223391.014898, -1.349282, 20.089148, 0.811784, 0.348207, 1.421287, -0.010859, -125.177917, -190.524200, -843.537964, 13.726763, 100.771808
1759223391.034838, 1.630152, 1.980903, 1.975216, -0.234547, 0.039152, 0.448335, -126.020905, -190.254379, -843.694336, 13.726763, 100.771808
1759223391.054826, 4.293103, -0.618901, -2.325518, -0.356732, -0.057914, 0.805908, -126.004807, -190.027435, -843.726868, 13.726763, 100.771808
1759223391.074797, 4.118775, 2.992902, -4.171298, -0.200053, 0.630296, 1.090674, -126.119751, -189.950226, -843.689087, 13.726763, 100.771808
1759223391.094802, 5.472098, 12.956821, -5.426757, 0.796558, 0.845542, 1.131123, -126.245224, -189.269012, -844.360840, 13.726748, 100.771812
1759223391.114335, 3.818003, 18.325519, -4.806360, 2.141286, 0.543483, 0.636841, -126.704880, -187.671539, -844.482178, 13.726748, 100.771812
1759223391.134393, 0.139462, 12.309339, -1.030405, 2.273823, -0.019574, 0.239228, -126.966232, -186.027222, -844.735535, 13.726748, 100.771812
1759223391.154784, -0.818218, 8.697985, -0.061052, 2.067787, -0.023113, 0.426464, -126.746246, -184.341949, -845.520203, 13.726748, 100.771812
1759223391.174757, -2.397194, 6.339098, 0.487819, 1.333212, 0.909900, 0.383593, -127.178345, -182.642029, -846.052734, 13.726748, 100.771812
1759223391.194760, -2.207753, 7.723246, 0.323217, 0.849789, 1.074273, 0.267944, -127.922485, -181.969254, -846.685364, 13.726748, 100.771812
1759223391.214754, -0.662895, 11.048343, -0.775572, 0.879236, 0.388277, 0.114554, -128.060440, -181.306519, -847.164429, 13.726748, 100.771812
1759223391.234660, -0.055067, 10.667814, -1.819593, 0.964127, 0.673951, 0.076219, -128.699478, -180.543503, -847.664429, 13.726748, 100.771812
1759223391.254771, -0.416591, 8.248773, -0.275333, 1.034344, 0.530512, -0.123618, -129.346756, -179.981689, -848.281250, 13.726748, 100.771812
1759223391.274700, -0.482731, 6.966977, -0.405817, 1.105189, 0.736514, -0.368943, -129.737869, -179.224243, -848.471802, 13.726748, 100.771812
1759223391.294052, 0.770634, 7.245153, -0.170587, 1.081480, 0.924400, -0.231743, -130.448990, -178.712173, -849.154053, 13.726748, 100.771812
1759223391.314682, 1.305289, 8.330325, 0.433650, 0.842191, 0.623282, 0.092394, -130.870041, -178.268723, -850.233887, 13.726748, 100.771812
1759223391.334696, 1.722030, 8.807071, -0.673369, 0.909504, 0.361426, 0.333982, -131.070099, -177.558655, -850.385254, 13.726748, 100.771812
1759223391.354694, 2.243966, 9.277232, -0.447267, 1.082254, 0.647981, 0.437432, -131.220520, -176.543488, -851.329102, 13.726748, 100.771812
1759223391.374251, 2.835782, 10.214263, 1.042076, 1.149449, 0.911127, 0.680038, -131.509720, -175.786392, -851.977966, 13.726748, 100.771812
1759223391.394666, 0.771831, 9.906608, 2.280926, 0.700244, 0.942186, 1.047323, -131.948318, -174.506317, -852.942566, 13.726748, 100.771812
1759223391.414412, -3.077597, 9.958831, 1.573439, 0.427547, 0.516985, 1.031492, -131.388611, -173.992416, -853.701660, 13.726748, 100.771812
1759223391.434648, -4.583400, 11.753136, 0.489614, 0.496840, 0.107472, 0.689569, -131.355957, -173.564087, -853.559937, 13.726748, 100.771812
1759223391.454636, -3.984700, 11.458948, 1.153556, 0.438937, 0.149287, 0.245565, -131.625046, -172.868668, -854.109375, 13.726748, 100.771812
1759223391.474604, -1.854758, 11.174787, 3.334524, 0.001365, 0.298934, 0.093490, -131.884644, -172.558716, -854.183777, 13.726748, 100.771812
1759223391.494616, -1.268777, 12.986599, 4.497209, -1.065089, -0.580225, 0.513668, -131.171982, -172.684921, -853.804565, 13.726748, 100.771812
1759223391.514611, -5.091719, 17.529746, 1.998709, -1.747109, -1.487937, -0.066088, -130.365616, -173.557358, -852.720032, 13.726748, 100.771812
1759223391.534602, -2.309656, 18.499697, 0.952144, -2.608159, -0.530528, -0.870485, -130.599716, -174.823318, -851.459167, 13.726748, 100.771812
1759223391.554117, 2.739715, 13.604602, 3.571999, -3.462534, -0.082784, -0.818238, -131.156845, -177.305435, -850.190613, 13.726748, 100.771812
1759223391.574556, 5.011812, 13.237840, -1.579575, -3.324502, 0.390615, -0.953387, -131.447235, -179.548492, -849.618652, 13.726748, 100.771812
1759223391.594570, 5.910685, 15.896003, -4.376152, -2.591853, 0.452366, -1.017113, -132.306656, -181.566040, -849.433350, 13.726748, 100.771812
1759223391.614565, 6.681319, 14.978874, -2.242918, -2.035432, 1.497886, -0.990017, -133.372864, -183.588776, -849.991211, 13.726748, 100.771812
1759223391.634558, 3.770718, 10.966940, 3.133262, -2.022838, 1.847982, -1.061728, -134.813919, -185.113541, -850.962402, 13.726748, 100.771812
1759223391.653844, 4.109946, 10.026318, 0.883909, -2.047136, 1.311629, -0.594986, -135.704163, -186.632965, -851.811768, 13.726748, 100.771812
1759223391.674509, 3.110667, 10.574291, -0.199018, -1.925441, 0.462750, -0.291527, -135.813690, -188.328949, -851.842590, 13.726748, 100.771812
1759223391.694529, -0.883311, 10.564564, 0.230741, -1.957504, 0.354064, -0.477017, -136.203888, -189.567749, -852.114258, 13.726748, 100.771812
1759223391.714516, -2.708141, 9.555408, 1.608754, -2.254604, 0.001996, -0.681623, -136.184036, -190.851501, -852.063049, 13.726748, 100.771812
1759223391.734509, -1.657087, 7.302165, 0.291793, -2.147955, -1.440706, -0.624509, -135.780670, -192.511978, -851.166504, 13.726748, 100.771812
1759223391.754493, -1.120636, 4.639664, -1.588852, -1.621458, -1.826113, -0.801183, -134.662384, -193.797241, -850.318298, 13.726748, 100.771812
1759223391.774462, 1.635689, 3.551798, -1.004966, -1.239748, -1.879899, -0.938395, -133.652206, -194.943176, -849.311035, 13.726748, 100.771812
1759223391.794479, 3.492242, 3.733309, -1.263989, -0.741561, -1.377751, -0.971245, -132.994965, -196.041626, -848.506287, 13.726748, 100.771812
1759223391.814461, 3.676746, 4.112790, -0.652570, -0.239356, -0.801249, -0.854507, -132.253616, -196.571365, -848.318665, 13.726748, 100.771812
1759223391.834461, 3.544616, 4.534319, -0.037110, 0.086657, -0.609901, -0.627319, -131.826279, -197.004425, -847.875671, 13.726748, 100.771812
1759223391.854450, 3.779098, 4.601805, 0.275483, 0.426921, -0.565044, -0.346274, -131.584793, -196.931229, -847.418396, 13.726748, 100.771812
1759223391.874005, 3.499275, 4.355651, 0.875530, 0.865866, -0.471778, -0.063788, -131.398697, -196.276382, -847.263794, 13.726748, 100.771812
1759223391.893788, 2.443133, 5.229385, 2.322974, 1.418550, -0.461420, 0.244280, -131.166046, -195.433563, -846.807373, 13.726748, 100.771812
1759223391.914415, 1.749862, 7.575853, 5.491700, 1.722442, -0.735234, 0.522785, -130.425232, -194.181137, -846.804810, 13.726748, 100.771812
1759223391.933497, -0.825251, 10.582671, 9.248352, 1.228035, -0.517542, 0.590978, -130.025330, -193.379501, -846.756470, 13.726748, 100.771812
1759223391.954426, -4.630386, 13.839832, 9.432706, 0.503778, 0.013323, 0.242258, -130.117981, -192.763687, -846.808960, 13.726748, 100.771812
1759223391.974366, -3.455880, 12.968493, 7.053019, 0.320589, -0.052120, -0.048219, -130.277954, -192.230515, -846.908203, 13.726748, 100.771812
1759223391.994380, -1.035043, 9.563788, 4.090045, 0.334875, -0.198943, -0.248382, -130.541794, -191.891113, -846.875854, 13.726748, 100.771812
1759223392.014367, 0.618153, 7.474997, 3.446154, 0.431798, -0.037778, -0.275006, -130.805527, -191.455872, -847.258728, 13.726748, 100.771812
1759223392.034396, 3.588160, 9.135226, -0.089184, 1.323170, 0.047648, -0.113873, -130.894821, -190.735031, -847.193420, 13.726748, 100.771812
1759223392.054359, 9.661502, 17.301249, 1.576432, 0.963732, -0.346255, 0.472043, -130.513535, -189.912979, -846.937378, 13.726748, 100.771812
1759223392.074317, 4.984578, 26.391435, 9.245659, -0.026639, 1.378516, 0.065062, -131.855087, -189.503220, -847.637512, 13.726748, 100.771812
1759223392.094307, 1.698237, 5.432294, -3.976320, 0.050300, 0.247916, 0.799275, -131.578491, -189.372894, -848.040283, 13.726736, 100.771816
1759223392.114392, 0.916979, 1.424700, -4.096180, 0.103512, -0.209716, 1.036202, -131.290375, -188.726837, -848.159424, 13.726736, 100.771816
1759223392.134333, 1.872864, 2.423531, -3.514987, 0.123635, -0.726564, 1.291514, -130.423828, -187.852066, -847.651978, 13.726736, 100.771816
1759223392.154307, 0.789638, 9.418340, -5.081693, 1.059825, -1.461493, 0.904952, -129.211121, -186.798691, -847.045166, 13.726736, 100.771816
1759223392.173854, 0.275632, 16.830938, -6.083666, 2.050024, -0.832078, 0.202939, -128.989304, -185.283752, -847.458862, 13.726736, 100.771816
1759223392.194271, -1.837999, 13.964480, -3.189825, 2.752780, 1.033770, -0.351939, -130.375366, -183.669846, -848.216064, 13.726736, 100.771816
1759223392.214267, -0.127940, 8.677036, 3.454534, 2.518103, 1.599036, -0.649815, -131.480927, -182.494278, -849.327820, 13.726736, 100.771816
1759223392.233935, 3.556736, 6.820781, 5.078850, 1.185140, 1.508599, -0.576730, -132.088501, -181.685074, -850.042480, 13.726736, 100.771816
1759223392.254298, 4.967968, 7.285256, 0.572214, 0.654584, 1.461569, -0.091040, -132.830170, -181.337067, -850.998779, 13.726736, 100.771816
1759223392.274233, 3.451840, 7.571064, -0.461782, 0.746905, 0.764690, 0.446984, -133.427780, -181.100861, -852.151855, 13.726736, 100.771816
1759223392.294245, -0.253187, 8.562114, -1.229722, 0.914273, 0.517946, 0.563346, -133.574203, -180.434357, -852.561157, 13.726736, 100.771816
1759223392.314240, -1.238999, 10.809521, -1.065420, 1.248319, 0.306258, 0.596414, -133.458908, -179.601746, -853.212219, 13.726736, 100.771816
1759223392.334269, -3.033454, 10.259004, 1.130362, 1.072784, 0.025078, 0.367971, -133.407776, -178.606888, -853.835571, 13.726736, 100.771816
1759223392.354219, -2.702904, 9.097817, 0.716914, 0.762446, 0.252973, 0.169998, -133.424240, -177.866150, -854.174377, 13.726736, 100.771816
1759223392.373191, -0.691775, 8.832060, 0.344316, 0.708235, 0.350065, 0.147563, -133.734192, -177.342804, -854.368652, 13.726736, 100.771816
1759223392.394205, 1.524658, 9.367464, 0.085443, 0.776832, 0.292754, 0.327985, -133.968475, -177.044159, -855.505005, 13.726736, 100.771816
1759223392.414194, 1.546804, 9.787796, 0.469862, 0.807198, -0.012721, 0.508292, -134.035187, -176.209183, -855.869751, 13.726736, 100.771816
1759223392.434188, 1.054795, 9.705196, -0.138864, 0.993256, 0.031071, 0.646448, -133.755585, -175.285355, -856.279724, 13.726736, 100.771816
1759223392.454179, 0.255132, 10.029909, 1.168520, 1.053285, 0.106240, 0.752141, -133.459656, -174.438721, -856.890564, 13.726736, 100.771816
1759223392.473164, -1.142932, 10.672154, 2.352453, 0.799935, 0.107193, 0.788231, -133.414871, -173.952545, -857.476196, 13.726736, 100.771816
1759223392.494164, -2.000655, 10.786926, 3.157802, 0.314615, -0.150083, 0.730774, -133.164352, -173.179581, -857.468811, 13.726736, 100.771816
1759223392.514161, -1.778593, 10.312425, 2.999037, -0.083780, -0.350077, 0.516497, -132.660629, -173.073166, -857.838989, 13.726736, 100.771816
1759223392.534147, -0.696413, 10.414029, 3.094057, -0.388713, -0.006263, 0.335132, -132.364273, -173.106598, -857.649170, 13.726736, 100.771816
1759223392.554136, -0.182259, 11.361085, 3.817106, -1.028566, -0.031686, 0.356446, -132.330688, -173.308716, -857.583801, 13.726736, 100.771816
1759223392.573146, -2.499247, 14.459033, 3.631555, -1.856125, -0.988775, 0.278295, -131.436996, -174.144653, -857.319580, 13.726736, 100.771816
1759223392.594119, -5.370344, 17.607109, 2.780865, -2.759359, -1.388990, -0.609352, -131.040482, -175.625854, -856.187988, 13.726736, 100.771816
1759223392.614122, -2.862118, 15.645809, 0.598102, -3.492348, -0.480598, -1.566576, -130.955948, -177.635788, -854.454590, 13.726736, 100.771816
1759223392.634118, 3.888333, 11.895292, -2.374001, -3.189221, 0.841085, -1.924913, -131.990479, -180.295044, -854.148926, 13.726736, 100.771816
1759223392.654132, 9.620052, 13.946674, -3.465158, -2.234063, 1.855657, -1.626351, -133.023590, -182.338242, -854.373169, 13.726736, 100.771816
1759223392.673132, 11.279533, 16.383821, 0.532560, -1.299476, 1.232790, -1.173238, -133.412003, -184.087189, -855.470947, 13.726736, 100.771816
1759223392.694082, 6.083068, 12.095357, 3.845686, -1.745193, 1.209938, -1.291168, -133.823776, -185.552795, -856.088257, 13.726736, 100.771816
1759223392.714077, 3.156905, 8.857349, 0.629076, -1.761061, 1.036121, -0.625193, -133.885498, -186.805084, -856.540344, 13.726736, 100.771816
1759223392.733315, -0.378134, 8.408137, 0.132579, -1.621656, -0.169030, -0.352857, -133.521088, -188.083862, -856.589905, 13.726736, 100.771816
1759223392.754050, -3.200000, 10.220697, 0.306458, -1.637482, -0.236555, -0.640042, -133.000885, -189.100067, -856.361633, 13.726736, 100.771816
1759223392.773106, -1.204583, 10.413131, 1.548749, -1.896941, -0.108648, -0.804429, -132.651459, -190.093628, -856.053162, 13.726736, 100.771816
1759223392.794038, 0.542137, 7.737461, 0.724994, -1.803927, -1.641442, -0.869110, -131.877396, -191.475220, -855.431641, 13.726736, 100.771816
1759223392.814029, 1.561618, 4.787206, -0.949151, -1.425186, -2.021982, -0.778965, -130.428467, -192.478317, -854.199036, 13.726736, 100.771816
1759223392.834026, 2.181417, 3.193266, -0.342371, -1.161955, -1.937107, -0.740931, -129.418884, -193.523376, -853.217529, 13.726736, 100.771816
1759223392.854013, 2.392406, 3.605967, -0.958279, -0.695455, -1.394197, -0.813816, -128.252228, -194.246948, -852.533142, 13.726736, 100.771816
1759223392.873085, 2.398242, 4.848707, -0.715717, -0.076178, -0.900802, -0.795537, -127.262100, -194.781570, -852.370422, 13.726736, 100.771816
1759223392.894005, 2.444330, 6.079177, 0.483629, 0.351479, -0.687637, -0.600946, -126.851639, -194.794373, -852.026001, 13.726736, 100.771816
1759223392.913992, 2.435651, 6.267721, 0.920720, 0.520225, -0.636523, -0.307028, -125.984375, -194.703537, -851.872925, 13.726736, 100.771816
1759223392.933989, 2.167650, 5.752668, 0.956484, 0.746943, -0.619067, -0.043988, -125.623505, -193.994522, -851.453003, 13.726736, 100.771816
1759223392.954014, 2.072630, 5.524920, 1.428291, 1.129685, -0.655780, 0.226792, -125.158630, -193.259506, -851.180298, 13.726736, 100.771816
1759223392.973060, 1.876156, 6.118831, 2.814534, 1.531796, -0.680298, 0.466206, -124.412201, -192.083054, -850.848938, 13.726736, 100.771816
1759223392.993955, 1.282394, 8.290522, 5.643882, 1.816747, -0.647332, 0.645155, -123.868271, -190.811676, -850.880981, 13.726736, 100.771816
1759223393.013872, -0.764947, 11.083657, 10.043975, 1.336776, -0.303069, 0.601797, -122.991638, -189.858673, -850.908997, 13.726736, 100.771816
1759223393.033940, -3.894768, 14.615853, 11.311555, 0.488210, 0.332133, 0.065154, -122.978897, -189.567047, -851.176575, 13.726736, 100.771816
1759223393.053932, -1.933019, 14.579192, 8.421305, 0.126787, 0.022696, -0.402559, -123.072464, -189.248886, -850.629883, 13.726736, 100.771816
1759223393.073040, 1.518073, 10.408941, 5.159804, -0.054525, -0.389438, -0.451790, -122.826767, -189.151596, -850.613892, 13.726736, 100.771816
1759223393.093912, 2.551920, 7.101501, 3.788525, 0.095156, -0.353510, -0.178780, -122.134888, -188.830582, -850.299744, 13.726726, 100.771819
1759223393.113918, 5.271134, 12.085930, -2.032528, 0.849105, 0.690973, 0.095277, -122.047394, -188.051788, -850.324646, 13.726726, 100.771819
1759223393.133911, 10.958261, 19.763237, 1.691055, 0.851086, 0.555962, 0.385476, -121.906509, -187.955399, -850.827637, 13.726726, 100.771819
1759223393.153912, -0.290746, 13.488184, 2.399289, 0.530552, 1.635608, -0.055157, -123.109741, -187.234467, -851.081421, 13.726726, 100.771819
1759223393.173021, 1.564162, 3.083582, -4.533720, 0.517521, 0.758486, 0.702746, -123.530441, -186.421036, -850.952332, 13.726726, 100.771819
1759223393.193877, 2.946364, 3.145083, -3.303998, 0.138806, 0.250271, 1.400111, -123.170822, -185.936752, -851.138367, 13.726726, 100.771819
1759223393.213839, 2.974496, 6.277746, -3.245191, 0.263436, 0.007865, 1.637541, -122.372818, -185.040009, -851.100525, 13.726726, 100.771819
1759223393.233859, 3.895815, 13.851354, -3.629759, 0.670048, 0.075446, 1.304316, -121.993393, -184.359085, -851.341675, 13.726726, 100.771819
1759223393.253870, 1.512836, 15.730055, -5.796811, 1.950046, 0.625740, 0.356903, -122.170044, -182.995728, -851.674072, 13.726726, 100.771819
1759223393.272997, -0.335338, 10.113557, -2.011279, 2.873247, 0.729246, -0.215525, -122.519623, -181.513107, -852.321167, 13.726726, 100.771819
1759223393.293835, -0.077213, 7.616704, 0.758663, 2.659477, 1.508285, -0.200217, -123.626205, -180.001663, -853.062866, 13.726726, 100.771819
1759223393.313829, 0.286855, 7.300370, 2.318335, 1.647002, 1.996961, -0.160258, -124.369034, -179.299683, -854.435486, 13.726726, 100.771819
1759223393.333838, 1.432481, 8.780286, 1.848324, 0.872468, 1.400173, 0.170338, -124.943069, -178.688431, -855.511719, 13.726726, 100.771819
1759223393.353831, 0.596605, 10.352079, 0.293439, 0.719501, 0.361713, 0.484603, -124.719025, -177.883423, -855.374634, 13.726726, 100.771819
1759223393.372975, -1.979855, 9.834483, -1.755997, 0.908746, 0.391697, 0.286893, -124.790131, -177.456894, -856.045044, 13.726726, 100.771819
1759223393.393829, -1.630900, 9.329605, -1.329979, 1.120618, 0.399723, 0.238069, -124.617661, -176.771332, -856.444580, 13.726726, 100.771819
1759223393.413782, -1.199046, 9.171738, -0.428113, 1.292125, 0.287482, 0.129072, -124.759872, -176.177994, -856.848328, 13.726726, 100.771819
1759223393.433781, -0.609773, 9.037213, 0.402675, 1.230795, 0.529263, -0.037887, -125.145844, -175.489777, -857.341553, 13.726726, 100.771819
1759223393.453849, 1.086070, 9.446173, 1.400758, 1.000716, 0.613768, 0.048266, -124.957230, -174.795090, -857.902649, 13.726726, 100.771819
1759223393.472952, 1.115399, 9.014768, 1.166425, 0.802801, 0.264307, 0.382257, -124.564972, -174.355728, -857.939758, 13.726726, 100.771819
1759223393.493772, -0.164901, 8.800487, 0.478990, 0.618216, 0.116349, 0.665001, -124.259811, -173.632126, -858.235474, 13.726726, 100.771819
1759223393.513742, -0.968305, 9.940276, -0.178967, 0.782276, 0.094709, 0.604738, -123.954132, -173.119965, -858.710205, 13.726726, 100.771819
1759223393.533735, -0.308253, 11.060015, -0.057760, 0.963001, 0.232573, 0.509814, -123.763535, -172.369797, -858.759399, 13.726726, 100.771819
1759223393.553746, 0.669329, 10.983849, 1.212962, 0.789497, 0.360839, 0.628598, -123.596573, -171.728546, -858.847778, 13.726726, 100.771819
1759223393.572931, -0.096367, 10.311527, 2.185308, 0.427662, 0.299450, 0.660696, -123.510239, -171.156830, -859.151062, 13.726726, 100.771819
1759223393.593700, -0.837671, 10.491990, 1.786673, 0.170139, 0.266351, 0.549141, -122.856354, -170.837173, -859.048279, 13.726726, 100.771819
1759223393.613687, -0.885705, 11.219079, 1.865682, -0.006616, 0.231229, 0.447449, -122.318954, -170.457886, -858.992004, 13.726726, 100.771819
1759223393.632694, -1.065420, 11.988067, 3.310133, -0.329358, 0.075019, 0.404836, -122.323959, -170.231689, -858.690674, 13.726726, 100.771819
1759223393.653703, -2.453608, 12.493992, 4.549432, -1.167281, -0.199608, 0.544459, -121.299973, -170.414307, -858.390442, 13.726726, 100.771819
1759223393.672910, -5.424812, 14.729129, 3.952228, -2.018975, -0.925905, 0.046894, -120.810562, -171.045471, -856.550659, 13.726726, 100.771819
1759223393.693668, -4.865616, 16.389358, 2.979434, -3.028188, -0.895005, -0.901676, -120.394928, -172.008270, -854.563354, 13.726726, 100.771819
1759223393.713658, 0.652270, 14.723442, 0.401627, -3.710272, -0.185195, -1.370523, -120.518143, -174.090927, -852.965088, 13.726726, 100.771819
1759223393.732672, 4.811747, 12.686126, -3.204489, -3.486694, 0.817150, -1.469063, -121.435501, -176.055984, -851.010132, 13.726726, 100.771819
1759223393.753650, 8.503306, 14.402320, -3.123835, -2.576566, 1.610343, -1.441496, -122.406021, -177.810425, -850.297119, 13.726726, 100.771819
1759223393.772885, 9.157821, 15.285631, 0.352845, -1.719289, 1.524859, -1.372870, -123.987595, -179.273865, -849.777893, 13.726726, 100.771819
1759223393.793620, 5.448904, 11.369615, 4.145859, -2.053107, 0.941662, -1.015924, -124.885468, -180.903656, -849.053894, 13.726726, 100.771819
1759223393.813626, 2.052579, 9.059210, 0.316783, -2.074026, 0.568865, -0.430694, -125.238434, -182.506454, -848.668640, 13.726726, 100.771819
1759223393.833605, -1.331475, 9.671827, -1.806126, -1.538748, 0.291047, -0.462268, -125.785934, -183.627350, -848.248901, 13.726726, 100.771819
1759223393.853593, -2.847005, 11.220875, 0.137068, -1.590579, 0.543917, -0.737436, -126.175201, -184.787720, -847.756592, 13.726726, 100.771819
1759223393.872872, -2.392855, 10.230573, 1.404947, -1.686962, -0.621112, -1.107345, -126.623398, -186.100479, -846.651672, 13.726726, 100.771819
1759223393.893347, -1.482609, 8.143278, -0.727538, -1.403142, -1.723984, -1.475659, -126.163620, -187.674728, -845.137878, 13.726726, 100.771819
1759223393.913572, 2.095076, 5.165191, -0.801459, -1.274855, -2.214246, -1.326903, -124.969528, -188.997314, -844.056824, 13.726726, 100.771819
1759223393.933566, 2.911798, 2.859275, -1.921197, -0.909232, -2.010777, -1.254298, -123.864243, -190.251190, -842.154297, 13.726726, 100.771819
1759223393.953556, 3.532944, 2.635268, -2.004246, -0.251161, -1.406603, -1.150198, -122.891174, -190.976105, -841.309204, 13.726726, 100.771819
1759223393.972844, 3.621829, 3.429544, -0.679055, 0.297638, -1.261243, -0.830761, -122.002533, -191.288879, -840.510010, 13.726726, 100.771819
1759223393.993542, 2.914492, 4.431218, -0.456245, 0.651725, -1.313705, -0.450015, -121.288254, -190.969696, -840.110718, 13.726726, 100.771819
1759223394.012980, 3.043180, 5.191078, -0.584335, 0.898055, -1.105122, -0.042203, -120.448318, -190.293411, -839.041748, 13.726726, 100.771819
1759223394.033526, 3.679888, 4.999093, 1.249624, 0.933803, -0.904971, 0.266039, -119.835205, -189.610184, -838.783508, 13.726726, 100.771819
1759223394.053519, 3.281852, 5.586121, 2.705897, 1.236086, -1.074639, 0.439687, -118.848328, -188.541000, -838.084961, 13.726726, 100.771819
1759223394.072831, 1.409287, 8.868422, 5.861754, 1.513894, -1.305796, 0.535582, -117.527237, -187.272263, -837.740601, 13.726726, 100.771819
1759223394.092627, -1.818097, 14.843901, 9.276035, 0.918801, -0.301272, 0.544583, -117.086304, -186.795425, -837.312317, 13.726716, 100.771819
1759223394.113495, -3.390040, 17.303045, 12.814515, -0.229950, 0.081786, 0.046283, -117.546265, -186.667633, -837.113770, 13.726716, 100.771819
1759223394.133493, 0.405368, 11.319785, 6.093991, -0.205419, 0.398779, -0.162430, -118.785461, -186.745560, -836.870239, 13.726716, 100.771819
1759223394.153488, 2.944718, 7.140407, 3.402011, -0.056791, 0.489497, -0.135228, -119.571030, -186.666977, -836.093994, 13.726716, 100.771819
1759223394.172807, 9.006089, 15.501558, 3.059341, 0.059625, 0.636827, 0.350155, -119.985367, -186.941132, -836.286316, 13.726716, 100.771819
1759223394.193451, 5.278018, 25.925313, 2.426224, -0.094224, 1.427805, -0.254643, -121.599106, -187.559021, -836.964966, 13.726716, 100.771819
1759223394.213441, 2.777723, 3.256563, -4.293252, 1.165694, 1.293377, -0.318596, -123.899918, -186.789841, -837.630493, 13.726716, 100.771819
1759223394.232632, 3.101688, 0.044442, 0.216226, 1.221555, 0.718805, -0.100548, -125.306442, -185.631836, -837.734070, 13.726716, 100.771819
1759223394.253422, 6.636727, 2.031630, -3.696348, 0.656318, 0.956320, 1.422562, -125.873856, -184.725525, -837.840942, 13.726716, 100.771819
1759223394.272790, 7.334038, 5.653758, -3.780594, 0.714918, 1.257281, 1.908217, -126.589050, -183.408401, -838.655884, 13.726716, 100.771819
1759223394.293415, 7.351546, 17.688960, -1.786823, 1.457770, 0.706207, 2.378943, -126.846405, -181.434845, -839.523865, 13.726716, 100.771819
1759223394.313419, 0.253935, 13.191752, -0.657358, 1.950070, -0.625841, 1.208070, -126.226944, -179.405884, -840.086548, 13.726716, 100.771819
1759223394.332599, -1.981352, 8.970325, -0.817321, 2.093993, -0.382217, 0.847541, -126.432480, -177.568176, -840.630127, 13.726716, 100.771819
1759223394.353391, -3.589956, 7.231387, 0.913837, 1.114558, 2.100760, 0.748774, -127.345413, -176.141571, -841.794556, 13.726716, 100.771819
1759223394.372774, -3.883096, 9.512313, -0.370952, 1.094345, 1.643859, 0.505740, -128.280289, -174.995544, -842.473389, 13.726716, 100.771819
1759223394.393028, -3.396325, 12.939762, -2.459294, 1.676747, 0.772045, -0.010652, -129.174332, -173.890625, -843.590698, 13.726716, 100.771819
1759223394.413269, -3.764732, 10.594342, 1.057489, 1.709494, 1.253494, -0.199859, -129.924728, -172.727097, -845.287537, 13.726716, 100.771819
1759223394.433292, -0.722750, 8.422203, 4.993108, 1.188129, 1.493253, -0.439365, -131.766815, -171.700317, -846.182312, 13.726716, 100.771819
1759223394.453360, 2.939182, 8.192659, 3.388394, 0.679384, 1.203611, -0.086705, -133.113739, -171.101105, -846.997681, 13.726716, 100.771819
1759223394.472765, 3.264045, 8.624513, 1.090260, 0.524393, 1.323391, 0.365811, -133.702484, -170.786392, -848.161255, 13.726716, 100.771819
1759223394.493385, 0.695067, 9.006388, 1.029656, 0.443540, 1.337990, 0.541142, -134.538376, -170.302643, -848.931213, 13.726716, 100.771819
1759223394.513349, -0.888398, 9.635165, -0.371401, 0.522132, 1.415188, 0.532481, -135.314301, -169.794327, -850.195068, 13.726716, 100.771819
1759223394.532564, -0.598251, 9.877279, -0.616208, 0.618781, 1.388597, 0.564140, -136.218048, -168.881546, -851.283447, 13.726716, 100.771819
1759223394.553357, 0.290896, 9.831789, 1.781286, 0.637374, 1.371792, 0.693319, -136.992569, -167.885056, -852.509583, 13.726716, 100.771819
1759223394.572743, 0.307805, 9.709386, 2.302025, 0.320077, 1.286190, 0.757028, -137.528870, -167.293686, -853.453674, 13.726716, 100.771819
1759223394.593334, -0.492757, 11.020810, 0.494702, 0.043045, 1.314947, 0.854130, -138.129013, -166.893936, -854.433960, 13.726716, 100.771819
1759223394.613314, -2.773234, 12.460174, 0.930147, -0.105271, 1.669640, 0.819390, -138.520737, -166.227753, -855.749390, 13.726716, 100.771819
1759223394.633324, -4.501398, 12.659042, 1.077391, -0.536824, 1.111570, 0.749658, -139.142029, -165.950073, -856.716492, 13.726716, 100.771819
