SamplingTime,AccelerationX,AccelerationY,AccelerationZ,GyroX,GyroY,GyroZ,Subject,Activity
1759737519.93745,0.049081,-1.27162,-9.102306,0.140651,0.040659,0.156064,1,WALK
1759737519.95743,-0.033968,-1.15595,-9.496751,0.056449,-0.020008,0.27783,1,WALK
1759737519.97745,-0.226851,-0.8465,-9.944616,0.207679,-0.009768,0.336281,1,WALK
1759737519.99696,-0.385616,-0.78859,-9.621399,0.44516,-0.008212,0.302114,1,WALK
1759737520.01747,-0.431555,-1.028759,-8.977358,0.50522,0.041795,0.242222,1,WALK
1759737520.03744,-0.268749,-1.435623,-8.324938,0.352158,0.054244,0.231219,1,WALK
1759737520.05679,-0.011672,-1.830068,-8.027309,0.053764,-0.007203,0.285041,1,WALK
1759737520.07748,0.279074,-1.84967,-8.505701,-0.175884,-0.055606,0.390336,1,WALK
1759737520.09695,0.452205,-1.639729,-9.100361,-0.194904,-0.077564,0.507339,1,WALK
1759737520.11747,0.301969,-1.5278,-9.399636,-0.082443,-0.076054,0.55461,1,WALK
1759737520.13746,0.142605,-1.581969,-9.524433,0.086419,-0.036049,0.499442,1,WALK
1759737520.15743,0.155025,-1.690306,-9.425523,0.187051,0.046654,0.44989,1,WALK
1759737520.17746,0.133626,-2.020257,-9.090335,0.104836,0.142156,0.437588,1,WALK
1759737520.19818,0.131382,-2.245013,-9.330503,-0.0755,0.191164,0.483722,1,WALK
1759737520.21745,0.499191,-2.022801,-9.919926,-0.179783,0.168139,0.554947,1,WALK
1759737520.23744,0.755969,-1.711555,-10.715848,-0.139197,0.193479,0.629645,1,WALK
1759737520.25656,0.845752,-1.498321,-11.084256,0.02394,0.141802,0.708147,1,WALK
1759737520.27743,0.651372,-1.696142,-11.068394,0.192043,0.056657,0.768918,1,WALK
1759737520.29697,0.571765,-1.76737,-10.581174,0.256137,0.146787,0.848957,1,WALK
1759737520.31744,0.347159,-1.584662,-9.935338,0.113698,0.299986,1.023952,1,WALK
1759737520.33744,0.095319,-1.433678,-9.690382,-0.113013,0.484691,1.085259,1,WALK
1759737520.35682,0.771531,-1.055544,-10.190919,-0.235709,0.731771,1.04037,1,WALK
1759737520.37744,1.551892,-0.72275,-10.368539,-0.240074,0.557836,1.110198,1,WALK
1759737520.39700,1.71365,-0.572065,-10.177452,-0.166262,0.049177,1.152323,1,WALK
1759737520.41743,1.178845,-0.75133,-9.556606,-0.014655,-0.404768,1.02388,1,WALK
1759737520.43743,0.584185,-1.010054,-8.828918,0.082867,-0.380783,0.891229,1,WALK
1759737520.45743,0.279523,-1.386542,-8.544906,0.082669,-0.060018,0.857196,1,WALK
1759737520.47745,0.471807,-1.538125,-8.396764,0.041545,0.107264,0.874757,1,WALK
1759737520.49699,0.920271,-1.596484,-8.376115,-0.065183,0.12645,0.916379,1,WALK
1759737520.51746,0.982969,-1.644218,-8.723423,-0.17143,0.106607,1.000894,1,WALK
1759737520.53745,0.917877,-1.542614,-8.954913,-0.227768,0.038107,1.095257,1,WALK
1759737520.55743,0.727239,-1.463605,-9.31524,-0.255408,-0.014979,1.107276,1,WALK
1759737520.57746,0.446668,-1.317409,-9.583241,-0.205325,-0.036796,1.045479,1,WALK
1759737520.59700,0.282516,-1.289278,-9.576358,-0.126867,0.015947,0.912088,1,WALK
1759737520.61724,0.371999,-1.526004,-9.323021,-0.094221,0.018021,0.775901,1,WALK
1759737520.63697,0.727837,-1.758391,-9.177873,-0.103985,-0.103617,0.734434,1,WALK
1759737520.65742,0.657807,-1.832761,-9.111434,-0.092385,-0.144438,0.728557,1,WALK
1759737520.67744,0.333393,-1.931522,-8.959701,-0.056181,-0.12875,0.708668,1,WALK
1759737520.69702,0.121506,-2.046294,-8.846874,-0.071818,-0.092591,0.646457,1,WALK
1759737520.71747,0.044891,-2.033575,-9.078364,-0.066648,-0.019047,0.579075,1,WALK
1759737520.73742,0.075417,-2.061408,-9.467571,-0.014874,-0.00239,0.544838,1,WALK
1759737520.75744,0.036811,-2.117971,-9.838074,0.062458,0.016396,0.500715,1,WALK
1759737520.77743,0.025738,-2.094926,-9.937733,0.130026,0.032719,0.460955,1,WALK
1759737520.79703,-0.021997,-2.169895,-10.093056,0.158776,0.107489,0.429054,1,WALK
1759737520.81744,-0.026785,-2.171691,-10.382455,0.183419,0.168298,0.420024,1,WALK
1759737520.83743,-0.215029,-2.517353,-10.708965,0.197505,0.259656,0.383413,1,WALK
1759737520.85742,0.3717,-2.114379,-11.190499,0.130147,0.608379,0.491739,1,WALK
1759737520.87743,0.564433,-1.944092,-11.615619,0.043758,0.762493,0.678647,1,WALK
1759737520.89704,0.823905,-1.294964,-11.712285,-0.005278,0.660497,0.819719,1,WALK
1759737520.91744,0.75148,-0.906954,-11.312603,0.094327,0.293032,0.768101,1,WALK
1759737520.93744,0.28072,-0.719907,-10.550648,0.278056,-0.04676,0.565987,1,WALK
1759737520.95741,-0.273089,-1.060931,-9.227104,0.334676,-0.319263,0.297264,1,WALK
1759737520.97744,-0.446519,-1.484854,-8.4029,0.271153,-0.290789,0.061728,1,WALK
1759737520.99706,-0.466121,-1.764078,-8.443451,0.159814,-0.035546,0.018943,1,WALK
1759737521.01743,-0.262913,-1.846827,-8.783428,0.120457,0.158986,0.11185,1,WALK
1759737521.03741,0.08275,-1.700182,-9.184008,0.121511,0.355395,0.265276,1,WALK
1759737521.05742,0.484676,-1.484704,-9.319729,0.127133,0.506725,0.428106,1,WALK
1759737521.07743,0.645237,-1.374122,-9.30282,0.084903,0.487083,0.6111,1,WALK
1759737521.09708,0.60678,-1.297508,-9.172486,-0.055251,0.324882,0.716346,1,WALK
1759737521.11744,0.255132,-1.241693,-9.169343,-0.248777,0.14482,0.724859,1,WALK
1759737521.13741,-0.012869,-1.090708,-9.461286,-0.337368,-0.003847,0.666022,1,WALK
1759737521.15741,-0.127641,-1.114501,-9.738116,-0.252832,-0.120651,0.516668,1,WALK
1759737521.17741,-0.032471,-1.298854,-9.519346,-0.120337,-0.169289,0.366615,1,WALK
1759737521.19709,0.092476,-1.599327,-9.263316,-0.050983,-0.079037,0.300312,1,WALK
1759737521.21741,0.304213,-1.871218,-9.10455,-0.040036,0.055702,0.314062,1,WALK
1759737521.23742,0.349853,-2.053626,-9.05532,-0.023146,0.102348,0.401548,1,WALK
1759737521.25740,0.420931,-2.08101,-8.952219,-0.069671,0.088039,0.51869,1,WALK
1759737521.27741,0.324564,-2.07293,-9.049484,-0.128683,0.077307,0.611259,1,WALK
1759737521.29710,0.302867,-1.965789,-9.270648,-0.149902,0.110191,0.662975,1,WALK
1759737521.31743,0.05791,-1.839196,-9.729138,-0.108955,0.094165,0.741487,1,WALK
1759737521.33741,-0.089184,-1.658284,-9.770438,-0.054995,0.023489,0.743759,1,WALK
1759737521.35740,-0.170737,-1.48246,-9.838373,-0.092854,0.073456,0.716396,1,WALK
1759737521.37668,-0.132579,-1.370531,-10.182989,-0.133252,0.042439,0.702145,1,WALK
1759737521.39712,-0.162806,-1.164031,-10.439318,-0.02923,-0.090257,0.635258,1,WALK
1759737521.41743,-0.670526,-1.591994,-10.334422,0.113844,-0.180073,0.483893,1,WALK
1759737521.43741,-0.721702,-1.847575,-9.99654,0.144124,-0.022164,0.381278,1,WALK
1759737521.45740,-0.083947,-1.835156,-9.755025,-0.120978,0.295164,0.484589,1,WALK
1759737521.47743,0.243161,-1.774403,-10.109666,-0.453166,0.360857,0.811614,1,WALK
1759737521.49713,0.574309,-1.005714,-10.510096,-0.518454,0.125784,1.07259,1,WALK
1759737521.51726,0.339228,-0.500388,-10.484658,-0.294239,-0.300085,1.008348,1,WALK
1759737521.53704,-0.464176,-0.619649,-9.866206,0.06559,-0.58421,0.623365,1,WALK
1759737521.55739,-0.814477,-0.90845,-9.085247,0.163971,-0.435057,0.300426,1,WALK
1759737521.57644,-0.834828,-1.367388,-9.015217,0.081732,-0.018617,0.199378,1,WALK
1759737521.59714,-0.310797,-1.398663,-9.540894,0.022938,0.236259,0.295916,1,WALK
1759737521.61742,0.362722,-1.181987,-10.045921,0.059161,0.228791,0.373158,1,WALK
1759737521.63742,0.712275,-1.02801,-9.999533,0.08065,0.080917,0.353592,1,WALK
1759737521.65740,0.71856,-1.175852,-9.613169,0.080562,-0.183902,0.291032,1,WALK
1759737521.67676,0.574459,-1.412579,-8.996362,0.042477,-0.428496,0.232387,1,WALK
1759737521.69717,0.211588,-1.768716,-8.484302,-0.050301,-0.476332,0.205794,1,WALK
1759737521.71741,-0.110433,-1.904288,-8.374468,-0.129856,-0.301659,0.21444,1,WALK
1759737521.73741,-0.277877,-1.956811,-8.785972,-0.138323,-0.029829,0.232358,1,WALK
1759737521.75738,-0.111181,-1.828572,-9.166051,-0.094987,0.11288,0.210554,1,WALK
1759737521.77741,0.200065,-1.786374,-9.257181,-0.085157,0.075528,0.158765,1,WALK
1759737521.79718,0.479289,-1.711256,-9.429863,-0.125019,-0.023101,0.104659,1,WALK
1759737521.81741,0.628179,-1.643021,-9.601048,-0.097771,-0.160084,0.052484,1,WALK
1759737521.83741,0.578499,-1.662175,-9.513809,-0.048899,-0.26647,-0.002832,1,WALK
1759737521.85738,0.469862,-1.807323,-9.292645,-0.041767,-0.251231,-0.032537,1,WALK
1759737521.87740,0.256329,-2.024148,-9.402628,-0.092213,-0.116124,-0.010086,1,WALK
1759737521.89720,0.261267,-1.861342,-9.915586,-0.042184,0.06564,0.034445,1,WALK
1759737521.91655,0.197522,-1.809268,-10.310779,0.074324,0.175394,0.041295,1,WALK
1759737521.93740,0.126294,-1.788319,-10.634296,0.18228,0.238218,0.001889,1,WALK
1759737521.95738,-0.105794,-2.036119,-10.563218,0.268341,0.223778,-0.094507,1,WALK
1759737521.97740,-0.087837,-2.135778,-10.411336,0.22646,0.397985,-0.109334,1,WALK
1759737521.99721,-0.026785,-2.262221,-10.506056,0.016076,0.643731,0.02118,1,WALK
1759737522.01740,-0.015862,-1.950825,-11.04535,-0.203101,0.719368,0.19706,1,WALK
1759737522.03740,0.237325,-1.253365,-11.361983,-0.151722,0.426206,0.24961,1,WALK
1759737522.05737,0.096516,-0.567276,-11.189152,0.011665,0.207957,0.199798,1,WALK
1759737522.07740,-0.636858,-0.468964,-10.860847,0.257656,0.192522,-0.010882,1,WALK
1759737522.09722,-0.73502,-0.635661,-9.904064,0.47316,0.186643,-0.267537,1,WALK
1759737522.11739,-0.502782,-1.14802,-9.160814,0.484861,0.282125,-0.380274,1,WALK
1759737522.13741,0.101305,-1.38744,-8.797793,0.383181,0.367231,-0.301173,1,WALK
1759737522.15653,0.570568,-1.512088,-8.828918,0.241766,0.361587,-0.083194,1,WALK
1759737522.17739,0.871938,-1.436072,-8.945336,0.134617,0.268663,0.156795,1,WALK
1759737522.19723,0.997484,-1.337311,-8.805574,0.057144,0.026,0.345545,1,WALK
1759737522.21741,0.809539,-1.278354,-8.594885,-0.068556,-0.158522,0.494596,1,WALK
1759737522.23739,0.403423,-1.237952,-8.552986,-0.213294,-0.190174,0.624496,1,WALK
1759737522.25737,-0.124498,-1.18932,-8.921843,-0.25372,-0.150694,0.682614,1,WALK
1759737522.27739,-0.317381,-1.086519,-9.00549,-0.242664,-0.180545,0.637234,1,WALK
1759737522.29725,-0.419285,-1.135001,-9.122208,-0.220087,-0.176116,0.513415,1,WALK
1759737522.31739,-0.245406,-1.170615,-9.313744,-0.195455,-0.093711,0.442614,1,WALK
1759737522.33739,-0.15682,-1.334169,-9.450213,-0.141892,-0.002842,0.406628,1,WALK
1759737522.35669,0.051775,-1.512387,-9.448866,-0.096676,-0.024748,0.381388,1,WALK
1759737522.37743,0.194529,-1.659331,-9.234286,-0.072783,-0.13715,0.371841,1,WALK
1759737522.39726,0.055516,-1.84997,-9.266608,-0.091182,-0.108222,0.407568,1,WALK
1759737522.41740,0.011971,-1.851466,-9.59626,-0.058586,0.010204,0.429429,1,WALK
1759737522.43740,-0.017358,-1.802535,-9.888053,-0.002646,0.197438,0.450569,1,WALK
1759737522.45736,-0.001796,-1.819893,-10.146178,0.023084,0.29988,0.462046,1,WALK
1759737522.47739,0.081403,-1.912369,-10.269928,0.020145,0.241422,0.48229,1,WALK
1759737522.49727,0.1034,-1.895759,-10.287136,-0.046935,0.190637,0.550711,1,WALK
1759737522.51739,-0.09906,-1.93227,-10.135703,-0.123533,-0.019601,0.622615,1,WALK
1759737522.53739,-0.162955,-1.798943,-10.002376,-0.298473,0.055983,0.632114,1,WALK
1759737522.55737,0.150685,-1.525256,-10.292374,-0.664138,0.381541,0.817814,1,WALK
1759737522.57742,0.415843,-0.887351,-11.16521,-0.865823,0.492067,1.162241,1,WALK
1759737522.59729,0.569072,0.068085,-12.06932,-0.741504,0.469758,1.338855,1,WALK
1759737522.61738,0.267851,0.344765,-11.918785,-0.23384,0.124949,1.110002,1,WALK
1759737522.63739,-0.259771,0.16101,-10.400113,0.304279,-0.324486,0.519217,1,WALK
1759737522.65736,-0.654066,-0.599149,-8.775797,0.433178,-0.412992,-0.006381,1,WALK
1759737522.67738,-0.546477,-1.215357,-8.211663,0.33451,-0.171758,-0.195382,1,WALK
1759737522.69728,-0.10325,-1.40794,-8.514829,0.292605,0.171344,-0.086402,1,WALK
1759737522.71738,0.575057,-1.394473,-8.92304,0.306267,0.44317,0.174088,1,WALK
1759737522.73739,1.099836,-1.340753,-9.085097,0.303141,0.444967,0.473982,1,WALK
1759737522.75735,1.27985,-1.226729,-8.856152,0.180569,0.17326,0.72665,1,WALK
1759737522.77738,0.685939,-1.240496,-8.909573,-0.037568,-0.100623,0.841735,1,WALK
1759737522.79732,0.054169,-1.092205,-8.981249,-0.20815,-0.288755,0.801977,1,WALK
1759737522.81738,-0.440683,-1.065719,-9.365668,-0.300235,-0.230544,0.642137,1,WALK
1759737522.83737,-0.553809,-1.149815,-9.884761,-0.225739,-0.113822,0.439247,1,WALK
1759737522.85735,-0.225205,-1.179593,-10.068067,-0.056117,-0.136935,0.296852,1,WALK
1759737522.87738,-0.110582,-1.388787,-9.958532,0.051797,-0.159328,0.174365,1,WALK
1759737522.89733,-0.109684,-1.554884,-9.731233,0.152793,-0.188066,0.000811,1,WALK
1759737522.91738,-0.021548,-1.735946,-9.347711,0.275601,-0.184006,-0.173151,1,WALK
1759737522.93738,0.077961,-2.112135,-9.101707,0.342353,-0.079485,-0.279607,1,WALK
1759737522.95735,0.302867,-2.39076,-9.074024,0.310482,0.017338,-0.260527,1,WALK
1759737522.97737,0.414347,-2.47336,-9.443779,0.274936,0.156451,-0.156378,1,WALK
1759737522.99734,0.447267,-2.325219,-9.93474,0.273904,0.241549,-0.018732,1,WALK
1759737523.01742,0.40058,-2.087744,-10.185532,0.346283,0.157593,0.018141,1,WALK
1759737523.03742,0.128239,-1.895609,-10.237307,0.443324,0.063788,-0.031906,1,WALK
1759737523.05735,-0.306308,-2.201169,-9.841815,0.480546,-0.010013,-0.194208,1,WALK
1759737523.07737,0.115969,-2.013973,-9.422231,0.142066,0.293193,-0.143349,1,WALK
1759737523.09741,0.155922,-2.128894,-10.143185,-0.241561,0.450574,0.088659,1,WALK
1759737523.11738,0.471209,-1.403451,-10.852018,-0.332181,0.214071,0.283045,1,WALK
1759737523.13737,0.315586,-0.73068,-11.061661,-0.199143,-0.048864,0.270263,1,WALK
1759737523.15734,-0.260818,-0.450409,-10.455778,0.083738,-0.283525,0.054149,1,WALK
1759737523.17735,-0.7844,-0.661697,-9.224859,0.277204,-0.372151,-0.297418,1,WALK
1759737523.19691,-0.894234,-0.897826,-8.706814,0.2444,-0.285485,-0.412717,1,WALK
1759737523.21735,-0.881216,-1.571494,-8.620323,-0.056588,0.210788,-0.446009,1,WALK
1759737523.23739,-0.26441,-1.411382,-9.33993,-0.115786,0.355878,-0.360337,1,WALK
1759737523.25734,0.309151,-1.039981,-9.807099,-0.084514,0.435704,-0.18137,1,WALK
1759737523.27640,0.382174,-0.94152,-9.77373,0.031156,0.298119,-0.083208,1,WALK
1759737523.29692,0.296731,-0.96636,-9.302222,0.003532,0.119234,-0.074637,1,WALK
1759737523.31737,0.128389,-1.035642,-9.084499,-0.153832,0.091121,-0.079624,1,WALK
1759737523.33713,0.060903,-1.108366,-9.349208,-0.192772,0.029595,-0.07387,1,WALK
1759737523.35734,-0.112079,-1.160739,-9.519795,-0.085543,-0.082302,-0.09637,1,WALK
1759737523.37736,-0.263063,-1.206977,-9.184307,0.057522,-0.147881,-0.174519,1,WALK
1759737523.39695,-0.30571,-1.452383,-8.742427,0.074575,-0.056578,-0.23031,1,WALK
1759737523.41737,-0.140809,-1.697938,-8.760833,0.051084,0.154415,-0.246813,1,WALK
1759737523.43737,0.329502,-1.832013,-9.011326,0.024775,0.241983,-0.183501,1,WALK
1759737523.45734,0.706888,-2.050634,-9.201964,0.006149,0.040103,-0.060807,1,WALK
1759737523.47736,0.748637,-2.085649,-9.168595,-0.00946,-0.203195,0.059914,1,WALK
1759737523.49697,0.364966,-2.157625,-9.248053,-0.067775,-0.200542,0.174623,1,WALK
1759737523.51736,0.149787,-2.070835,-9.745299,-0.081488,-0.018932,0.264889,1,WALK
1759737523.53736,0.172383,-1.768417,-10.132561,-0.052861,0.07673,0.333551,1,WALK
1759737523.55733,0.038307,-1.795951,-10.288483,-0.058074,-0.031582,0.31312,1,WALK
1759737523.57736,-0.187047,-1.83336,-10.556185,-0.048484,-0.076253,0.245283,1,WALK
1759737523.59698,-0.415394,-2.04375,-10.704775,0.033038,-0.013208,0.182644,1,WALK
1759737523.61737,0.044592,-2.012177,-10.52521,0.034133,0.131828,0.187035,1,WALK
1759737523.63736,0.589572,-2.119467,-10.585065,-0.171413,0.270637,0.313903,1,WALK
1759737523.65691,1.004218,-1.729811,-10.857854,-0.407438,0.245036,0.593223,1,WALK
1759737523.67738,1.148618,-0.97878,-11.163713,-0.465904,0.052403,0.777235,1,WALK
1759737523.69698,0.824354,-0.412252,-11.388469,-0.247397,-0.208162,0.688412,1,WALK
1759737523.71736,0.183755,-0.349105,-10.492589,0.243826,-0.534776,0.281974,1,WALK
1759737523.73737,-0.273986,-0.844854,-9.025991,0.449711,-0.483507,-0.102857,1,WALK
1759737523.75732,-0.311994,-1.520168,-8.145972,0.304938,-0.163376,-0.230567,1,WALK
1759737523.77736,0.166996,-1.660229,-8.198944,0.067396,0.090943,-0.083821,1,WALK
1759737523.79697,0.649427,-1.489942,-8.855853,0.000745,0.215693,0.122638,1,WALK
1759737523.81736,0.971298,-1.099687,-9.214983,0.047208,0.263199,0.257767,1,WALK
1759737523.83736,0.883909,-1.073051,-9.226056,0.074792,0.205907,0.293192,1,WALK
1759737523.85733,0.803255,-1.040131,-9.022549,0.022625,0.043338,0.250639,1,WALK
1759737523.87741,0.616507,-1.087416,-9.015815,-0.100298,-0.094621,0.195113,1,WALK
1759737523.89702,0.454898,-1.070657,-9.061155,-0.169114,-0.183082,0.160052,1,WALK
1759737523.91735,0.231789,-1.207575,-9.17922,-0.190632,-0.152641,0.155475,1,WALK
1759737523.93726,0.12405,-1.265036,-9.367913,-0.122895,-0.088544,0.111427,1,WALK
1759737523.95732,0.087987,-1.475876,-9.354595,-0.05049,-0.082622,0.014572,1,WALK
1759737523.97735,0.333841,-1.679981,-9.26167,-0.014309,-0.115932,-0.069918,1,WALK
1759737523.99702,0.533608,-1.938256,-9.175479,-0.005838,-0.142795,-0.095726,1,WALK
1759737524.01735,0.682647,-2.060959,-9.114127,-0.017882,-0.123506,-0.076518,1,WALK
1759737524.03735,0.754772,-2.149245,-9.345617,-0.037262,-0.085271,-0.00213,1,WALK
1759737524.05690,0.771232,-2.054973,-9.815179,-0.046856,-0.103083,0.12793,1,WALK
1759737524.07736,0.5779,-1.855806,-10.098593,-0.011819,-0.219839,0.163813,1,WALK
1759737524.09704,0.192284,-1.731157,-10.271574,0.015693,-0.281682,0.108401,1,WALK
1759737524.11734,-0.051475,-1.607557,-10.412233,0.086773,-0.273116,-0.01581,1,WALK
1759737524.13734,-0.225953,-1.827225,-10.234165,0.174992,-0.262696,-0.143642,1,WALK
1759737524.15732,-0.513107,-2.330755,-10.0546,0.190433,-0.096047,-0.20969,1,WALK
1759737524.17734,0.095319,-2.196081,-10.03365,0.099735,0.294099,-0.138499,1,WALK
1759737524.19705,0.553509,-2.237681,-10.535086,-0.139496,0.547506,0.108794,1,WALK
1759737524.21734,1.031153,-1.550694,-11.16117,-0.255585,0.499503,0.408582,1,WALK
1759737524.23734,0.879719,-0.631171,-11.296143,-0.250409,0.180661,0.564019,1,WALK
1759737524.25731,-0.110283,-0.262165,-11.395652,-0.01584,-0.092272,0.361985,1,WALK
1759737524.27734,-0.740407,-0.194978,-10.447099,0.392568,-0.258525,-0.164214,1,WALK
1759737524.29707,-0.968006,-0.864606,-9.395745,0.542476,-0.148982,-0.553852,1,WALK
1759737524.31733,-0.603937,-1.469292,-8.851513,0.460224,0.059245,-0.628563,1,WALK
1759737524.33734,0.039055,-1.766173,-8.694843,0.307029,0.130338,-0.447475,1,WALK
1759737524.35732,0.521337,-1.745074,-8.980501,0.222066,0.17005,-0.147657,1,WALK
1759737524.37735,0.666336,-1.571943,-9.028983,0.199294,0.173111,0.141361,1,WALK
1759737524.39709,0.675614,-1.390283,-8.849269,0.112695,0.143073,0.348988,1,WALK
1759737524.41682,0.468066,-1.162535,-8.843582,-0.051435,0.134105,0.475164,1,WALK
1759737524.43734,0.276231,-0.923713,-9.200318,-0.177253,0.093318,0.537783,1,WALK
1759737524.45731,0.160412,-0.692672,-9.589376,-0.141605,-0.032841,0.500319,1,WALK
1759737524.47734,0.112827,-0.694618,-9.630527,0.02737,-0.173521,0.354464,1,WALK
1759737524.49710,0.168791,-0.906505,-9.277083,0.164695,-0.186894,0.2209,1,WALK
1759737524.51733,0.340426,-1.317709,-8.814253,0.217381,-0.136404,0.176297,1,WALK
1759737524.53733,0.580444,-1.634492,-8.766968,0.211697,-0.063885,0.242626,1,WALK
1759737524.55731,0.852785,-1.809867,-8.65878,0.195916,-0.069133,0.356513,1,WALK
1759737524.57733,0.807893,-1.970129,-8.80318,0.157995,-0.019267,0.507057,1,WALK
1759737524.59711,0.77617,-2.022951,-9.072229,0.120773,-0.005818,0.696866,1,WALK
1759737524.61733,0.714669,-1.899799,-9.34831,0.086133,0.025649,0.882135,1,WALK
1759737524.63733,0.588525,-1.768268,-9.580548,0.028102,0.06377,1.016578,1,WALK
1759737524.65693,0.39639,-1.711705,-9.667038,-0.032349,-0.019577,1.098707,1,WALK
1759737524.67733,0.087388,-1.703923,-9.883264,-0.077948,-0.036208,1.129735,1,WALK
1759737524.69712,-0.364966,-2.063353,-10.128371,-0.099662,0.032981,1.077664,1,WALK
1759737524.71733,0.387262,-1.573888,-10.677541,-0.312607,0.502501,1.193373,1,WALK
1759737524.73733,0.863858,-1.575534,-11.428572,-0.533224,0.499016,1.49025,1,WALK
1759737524.75730,1.220444,-0.682796,-11.654076,-0.51095,0.098658,1.699127,1,WALK
1759737524.77731,0.768988,-0.185102,-11.331008,-0.336594,-0.048646,1.637208,1,WALK
1759737524.79714,0.075567,-0.11133,-10.732458,-0.105738,-0.070959,1.385337,1,WALK
1759737524.81732,-0.319327,-0.483329,-9.655366,0.221682,-0.318451,0.986869,1,WALK
1759737524.83733,-0.447566,-1.120187,-8.70008,0.403753,-0.307528,0.663312,1,WALK
1759737524.85730,-0.397138,-1.764826,-8.463802,0.37221,0.141557,0.576945,1,WALK
1759737524.87733,0.079458,-1.946336,-9.154679,0.292849,0.694393,0.807593,1,WALK
1759737524.89716,1.212663,-1.645116,-9.689184,0.215035,0.962973,1.253444,1,WALK
1759737524.91732,1.755698,-1.259799,-10.250176,0.122444,0.989517,1.688468,1,WALK
1759737524.93732,1.79221,-0.788441,-10.073603,0.017193,0.585622,1.953152,1,WALK
1759737524.95730,1.299752,-0.585831,-9.466374,-0.14319,-0.007075,1.934963,1,WALK
1759737524.97733,0.308553,-0.593014,-9.027038,-0.259172,-0.385397,1.66402,1,WALK
1759737524.99717,-0.392499,-0.682796,-8.701127,-0.26949,-0.41429,1.374541,1,WALK
1759737525.01732,-0.704943,-1.084424,-8.838345,-0.216641,-0.124798,1.171355,1,WALK
1759737525.03732,-0.460734,-1.417816,-9.275137,-0.065666,0.188432,1.057523,1,WALK
1759737525.05730,0.008529,-1.51119,-9.313444,0.129642,0.20314,1.014762,1,WALK
1759737525.07732,0.137068,-1.837699,-9.149142,0.197646,0.153314,0.939498,1,WALK
1759737525.09718,0.287005,-1.996764,-9.153183,0.192527,0.151299,0.878497,1,WALK
1759737525.11735,0.36317,-2.070984,-9.335591,0.204268,0.15243,0.867838,1,WALK
1759737525.13731,0.355838,-2.239776,-9.522488,0.212674,0.091338,0.900676,1,WALK
1759737525.15729,0.265906,-2.20087,-9.822811,0.177563,0.059762,0.966942,1,WALK
1759737525.17736,0.065242,-2.018462,-10.101137,0.14878,0.055655,1.00099,1,WALK
1759737525.19719,-0.242114,-1.875857,-10.411186,0.156356,0.054544,0.942535,1,WALK
1759737525.21730,-0.295385,-1.679233,-10.543017,0.207349,0.080105,0.832433,1,WALK
1759737525.23734,-0.383671,-1.749862,-10.483311,0.254478,0.080089,0.698071,1,WALK
1759737525.25730,-0.579098,-2.100463,-10.307337,0.232023,0.183727,0.664574,1,WALK
1759737525.27731,-0.205752,-2.24636,-10.70253,0.070074,0.534351,0.714757,1,WALK
1759737525.29721,0.017208,-2.114529,-10.960954,-0.040532,0.690692,0.872415,1,WALK
1759737525.31731,0.21039,-1.743877,-11.075727,-0.035884,0.448575,0.993849,1,WALK
1759737525.33731,0.033968,-1.462408,-10.683227,0.043848,0.112209,0.945502,1,WALK
1759737525.35732,-0.33863,-1.309479,-10.118794,0.132805,-0.007765,0.793512,1,WALK
1759737525.37661,-0.585233,-1.365144,-9.509919,0.240499,-0.043435,0.629498,1,WALK
1759737525.39723,-0.754922,-1.611896,-8.954165,0.335218,0.003583,0.509564,1,WALK
1759737525.41730,-0.772878,-1.861941,-8.73315,0.330111,0.186079,0.489929,1,WALK
1759737525.43730,-0.471209,-1.968932,-8.760683,0.25419,0.335377,0.598556,1,WALK
1759737525.45729,-0.371849,-1.863587,-9.077915,0.209184,0.388095,0.748321,1,WALK
1759737525.47731,-0.382623,-1.538873,-9.179668,0.178387,0.456973,0.826294,1,WALK
1759737525.49724,-0.243909,-1.327136,-9.091532,0.067243,0.536713,0.874733,1,WALK
1759737525.51733,0.028282,-1.178995,-9.398888,-0.155243,0.593663,0.986672,1,WALK
1759737525.53731,0.104447,-0.906355,-9.862465,-0.319766,0.406547,1.15278,1,WALK
1759737525.55728,-0.121057,-0.54917,-10.240898,-0.297347,0.100829,1.225066,1,WALK
1759737525.57731,-0.634314,-0.368707,-10.139444,-0.172446,-0.080287,1.128674,1,WALK
1759737525.59726,-1.070059,-0.436792,-9.653122,-0.046264,-0.103725,0.883521,1,WALK
1759737525.61731,-1.114651,-0.741005,-9.173084,0.068269,0.020379,0.562576,1,WALK
1759737525.63682,-0.591817,-1.177498,-8.80752,0.143015,0.166606,0.381558,1,WALK
1759737525.65728,-0.036512,-1.563713,-8.723124,0.172389,0.253544,0.422289,1,WALK
1759737525.67731,0.217723,-1.875109,-8.565406,0.130892,0.262655,0.584748,1,WALK
1759737525.69727,0.284012,-2.075773,-8.74153,0.021747,0.349208,0.786452,1,WALK
1759737525.71731,0.26441,-2.149395,-9.109339,-0.050682,0.343694,0.96564,1,WALK
1759737525.73731,0.221613,-1.997662,-9.294291,-0.037535,0.2178,1.04907,1,WALK
1759737525.75728,0.035314,-1.949179,-9.408165,-0.029992,0.205301,1.077258,1,WALK
1759737525.77731,-0.054917,-2.004845,-9.553762,-0.073543,0.274629,1.142513,1,WALK
1759737525.79729,0.030376,-1.983297,-9.751134,-0.147103,0.248646,1.238336,1,WALK
1759737525.81730,0.142605,-1.768417,-10.084078,-0.231562,0.18028,1.342572,1,WALK
1759737525.83730,0.111929,-1.391779,-10.560524,-0.251264,0.189075,1.419309,1,WALK
1759737525.85731,-0.008679,-0.966509,-10.908581,-0.111205,0.207289,1.411332,1,WALK
1759737525.87664,-0.368258,-1.043124,-10.796802,0.118621,0.124074,1.239922,1,WALK
1759737525.89730,-0.406565,-1.239897,-10.317662,0.195047,0.221519,1.048195,1,WALK
1759737525.91730,-0.072874,-1.450737,-9.86037,0.075483,0.455493,1.018472,1,WALK
1759737525.93731,0.530465,-1.554585,-10.167426,-0.160169,0.719733,1.202117,1,WALK
1759737525.95727,1.210718,-1.183484,-10.548553,-0.340567,0.745169,1.47024,1,WALK
1759737525.97730,1.455226,-0.555904,-10.599729,-0.337973,0.518161,1.629749,1,WALK
1759737525.99679,1.204732,-0.19423,-10.24853,-0.230235,0.12994,1.687285,1,WALK
1759737526.01730,0.401178,-0.050727,-9.656563,-0.042873,-0.165991,1.587637,1,WALK
1759737526.03732,-0.201861,-0.285957,-8.731504,0.080501,-0.220019,1.383371,1,WALK
1759737526.05719,-0.507571,-0.89184,-8.397213,0.038233,0.03958,1.233198,1,WALK
1759737526.07730,-0.127342,-1.163881,-8.900744,-0.024411,0.474391,1.274915,1,WALK
1759737526.09683,0.658555,-1.101482,-9.425822,-0.053539,0.673828,1.494872,1,WALK
1759737526.11730,1.283591,-1.023222,-9.884462,-0.124922,0.638885,1.682334,1,WALK
1759737526.13735,1.506252,-0.815375,-10.203489,-0.191131,0.335586,1.829776,1,WALK
1759737526.15727,1.190218,-0.580444,-10.217555,-0.20182,-0.065799,1.882534,1,WALK
1759737526.17732,0.440234,-0.549918,-10.034548,-0.189982,-0.215947,1.754494,1,WALK
1759737526.19687,-0.096516,-0.628777,-9.683498,-0.09142,-0.234031,1.528421,1,WALK
1759737526.21729,-0.15263,-0.95379,-9.284714,-0.010377,-0.162011,1.326761,1,WALK
1759737526.23730,0.10744,-1.400608,-9.023297,0.015406,-0.05401,1.215021,1,WALK
1759737526.25727,0.493804,-1.501763,-9.240122,0.043344,0.166542,1.267344,1,WALK
1759737526.27728,0.753425,-1.460313,-9.594314,0.096699,0.33087,1.409114,1,WALK
1759737526.29684,1.039383,-1.268478,-9.63756,0.156973,0.221211,1.486781,1,WALK
1759737526.31729,0.93733,-1.207276,-9.35669,0.116354,0.045277,1.464633,1,WALK
1759737526.33734,0.657957,-1.281197,-9.289652,0.009768,0.024652,1.414068,1,WALK
1759737526.35730,0.552761,-1.350629,-9.465626,-0.043034,0.008702,1.405806,1,WALK
1759737526.37635,0.483329,-1.261595,-9.626486,-0.003259,0.01006,1.386908,1,WALK
1759737526.39688,0.349853,-1.265934,-9.642198,0.036298,0.049942,1.35632,1,WALK
1759737526.41729,0.134973,-1.378462,-9.632322,0.042788,0.093101,1.305726,1,WALK
1759737526.43729,0.056713,-1.394622,-9.691728,0.04285,0.128841,1.269973,1,WALK
1759737526.45719,-0.031274,-1.458368,-9.977985,0.051063,0.181786,1.252914,1,WALK
1759737526.47658,-0.059406,-1.318756,-10.366145,0.115483,0.301565,1.242243,1,WALK
1759737526.49689,0.011372,-1.142932,-10.696395,0.212369,0.369903,1.22687,1,WALK
1759737526.51728,-0.216825,-1.190367,-10.741735,0.384885,0.201828,1.137288,1,WALK
1759737526.53647,-0.822857,-1.691055,-10.138397,0.51226,0.020406,0.899475,1,WALK
1759737526.55726,-0.959177,-2.079663,-9.808895,0.426591,0.330005,0.767387,1,WALK
1759737526.57730,-0.007931,-1.949179,-10.174908,0.187714,0.880454,0.957554,1,WALK
1759737526.59690,0.599598,-1.621473,-11.137377,0.055155,0.932644,1.333462,1,WALK
1759737526.61728,0.874781,-0.819116,-11.363929,0.22025,0.428095,1.472609,1,WALK
1759737526.63728,0.242712,-0.680103,-10.212168,0.395104,-0.191565,1.266431,1,WALK
1759737526.65726,-0.729783,-0.9909,-8.891317,0.29719,-0.391819,0.975104,1,WALK
1759737526.67732,-1.165378,-1.281646,-8.589647,0.17676,-0.190399,0.823426,1,WALK
1759737526.69689,-1.225981,-1.301997,-8.972121,0.218784,0.165002,0.827199,1,WALK
1759737526.71729,-0.99524,-1.347487,-9.421184,0.35882,0.493123,0.88588,1,WALK
1759737526.73731,-0.581791,-1.263839,-9.53431,0.428371,0.787615,0.987674,1,WALK
1759737526.75726,-0.135871,-1.157597,-9.812785,0.234288,0.996236,1.181447,1,WALK
1759737526.77728,0.112677,-0.941969,-10.127024,-0.011096,0.757451,1.342232,1,WALK
1759737526.79693,0.165798,-0.493505,-10.270078,-0.090159,0.25252,1.348708,1,WALK
1759737526.81729,-0.278476,-0.420781,-10.01719,-0.029112,-0.069548,1.203732,1,WALK
1759737526.83728,-0.448314,-0.502782,-9.336638,-0.07546,-0.036095,1.08222,1,WALK
1759737526.85729,-0.350451,-0.893336,-9.293992,-0.153799,0.14557,1.023262,1,WALK
1759737526.87639,0.014515,-0.977283,-9.334094,-0.061924,0.129358,1.047813,1,WALK
1759737526.89695,0.346561,-1.188871,-8.812757,0.011639,-0.037323,1.097821,1,WALK
1759737526.91728,0.31798,-1.529446,-8.528595,-0.093891,0.033444,1.118404,1,WALK
1759737526.93728,0.285209,-1.704223,-8.745121,-0.21029,0.175134,1.198727,1,WALK
1759737526.95725,0.509217,-1.617433,-9.18311,-0.225848,0.22552,1.306738,1,WALK
1759737526.97728,0.471658,-1.533037,-9.46413,-0.198263,0.208986,1.360666,1,WALK
1759737526.99694,0.377087,-1.444751,-9.637859,-0.134151,0.149446,1.369086,1,WALK
1759737527.01634,0.223259,-1.494281,-9.56304,-0.108833,0.069568,1.363215,1,WALK
1759737527.03726,0.160112,-1.553987,-9.571869,-0.180396,0.147557,1.380233,1,WALK
1759737527.05725,0.170587,-1.429039,-10.260052,-0.169583,0.363985,1.455004,1,WALK
1759737527.07727,0.426318,-1.090409,-10.910078,-0.022368,0.448973,1.573643,1,WALK
1759737527.09698,0.269647,-0.877475,-11.26008,0.201663,0.456801,1.608767,1,WALK
1759737527.11726,0.000449,-0.873285,-10.715399,0.400663,0.33496,1.536589,1,WALK
1759737527.13726,-0.566827,-1.520168,-9.826253,0.414257,0.282076,1.415236,1,WALK
1759737527.15697,-0.053121,-1.578078,-9.263316,0.135287,0.656324,1.482836,1,WALK
1759737527.17655,0.490512,-1.439813,-9.181913,-0.093,0.810933,1.658292,1,WALK
1759737527.19701,0.888548,-1.333121,-9.816526,-0.419401,0.699457,2.078455,1,WALK
1759737527.21727,1.099537,-0.329951,-10.351481,-0.430407,0.362784,2.318583,1,WALK
1759737527.23728,0.54079,0.212934,-10.262745,-0.262687,0.130907,2.275571,1,WALK
1759737527.25724,-0.200963,0.263362,-9.71148,-0.118564,0.025417,2.065383,1,WALK
1759737527.27728,-0.763451,-0.000599,-8.97257,-0.023285,-0.105829,1.805391,1,WALK
1759737527.29700,-0.832733,-0.369605,-8.580071,-0.011156,-0.062268,1.575352,1,WALK
1759737527.31727,-0.674267,-0.79263,-8.731653,-0.046783,0.163114,1.480009,1,WALK
1759737527.33727,-0.213084,-0.946907,-9.321525,-0.036617,0.512701,1.518455,1,WALK
1759737527.35728,0.431405,-1.002572,-9.639056,-0.025011,0.671261,1.602254,1,WALK
1759737527.37652,0.921917,-0.995838,-9.762657,-0.105905,0.556634,1.684121,1,WALK
1759737527.39704,1.095497,-1.000477,-9.698911,-0.223749,0.172493,1.752782,1,WALK
1759737527.41687,0.694917,-0.99943,-9.694571,-0.307157,-0.095185,1.754789,1,WALK
1759737527.43727,0.042048,-1.051055,-9.562441,-0.320633,-0.151827,1.659128,1,WALK
1759737527.45664,-0.317681,-1.148469,-9.412654,-0.343994,-0.089693,1.551725,1,WALK
1759737527.47727,-0.422876,-1.270274,-9.551368,-0.329356,-0.011537,1.407852,1,WALK
1759737527.49703,-0.168492,-1.249773,-9.76939,-0.290971,0.058562,1.322347,1,WALK
1759737527.51726,-0.038607,-1.278504,-10.259004,-0.190513,0.180616,1.25583,1,WALK
1759737527.53726,0.172831,-1.18902,-10.448146,-0.010258,0.215571,1.214616,1,WALK
1759737527.55724,0.255132,-1.263241,-10.333075,0.134405,0.172413,1.130749,1,WALK
1759737527.57725,0.332794,-1.460912,-10.045472,0.165707,0.113391,1.017874,1,WALK
1759737527.59703,0.256928,-1.68866,-10.045771,0.169156,0.139811,0.897323,1,WALK
1759737527.61726,0.339228,-1.857003,-9.943868,0.186646,0.124876,0.837486,1,WALK
1759737527.63726,0.315885,-2.011279,-9.977387,0.190985,0.173491,0.812665,1,WALK
1759737527.65724,0.295534,-2.044798,-9.945514,0.211755,0.214385,0.804555,1,WALK
1759737527.67726,0.206949,-1.958906,-9.977686,0.223315,0.323527,0.7958,1,WALK
1759737527.69705,0.12405,-1.835455,-10.030358,0.259626,0.344905,0.765895,1,WALK
1759737527.71727,0.123601,-1.615936,-10.043676,0.338441,0.275631,0.721819,1,WALK
1759737527.73726,-0.237026,-1.598579,-9.957335,0.397976,0.217468,0.637904,1,WALK
1759737527.75723,-0.60708,-1.766322,-9.57561,0.409222,0.214358,0.503813,1,WALK
1759737527.77688,-0.508768,-1.768118,-9.031976,0.281614,0.314463,0.437893,1,WALK
1759737527.79706,-0.227748,-1.829619,-9.062203,0.106727,0.472391,0.442802,1,WALK
1759737527.81726,0.181361,-1.472135,-9.378088,-0.017105,0.632103,0.565678,1,WALK
1759737527.83726,0.054767,-1.224485,-9.832687,-0.014402,0.665675,0.644263,1,WALK
1759737527.85723,-0.22715,-0.996138,-9.744999,0.041031,0.469697,0.602037,1,WALK
1759737527.87729,-0.594211,-0.873135,-9.246407,-0.062112,0.268304,0.457819,1,WALK
1759737527.89707,-1.074847,-1.013495,-9.333945,-0.207691,0.258587,0.280197,1,WALK
1759737527.91726,-1.324143,-1.059135,-9.903914,-0.155249,0.287419,0.158092,1,WALK
1759737527.93726,-1.1766,-0.997933,-10.191668,0.004954,0.398981,0.077318,1,WALK
1759737527.95723,-0.999729,-1.054496,-9.892243,0.070046,0.385004,0.030586,1,WALK
1759737527.97726,-0.888847,-1.126622,-9.564387,0.025436,0.262884,0.000203,1,WALK
1759737527.99714,-0.942717,-1.165378,-9.581745,0.002792,0.227776,-0.028767,1,WALK
1759737528.01725,-0.931943,-1.198448,-9.581296,0.074891,0.222911,-0.055458,1,WALK
1759737528.03725,-0.856376,-1.322796,-9.48478,0.114968,0.249613,-0.060545,1,WALK
1759737528.05723,-0.707487,-1.418116,-9.375544,0.088696,0.195131,-0.024629,1,WALK
1759737528.07726,-0.506224,-1.421258,-9.483283,-0.024249,0.118566,0.048064,1,WALK
1759737528.09713,-0.632069,-1.43278,-9.74889,-0.074969,-0.037325,0.075282,1,WALK
1759737528.11629,-0.696413,-1.317858,-9.711331,-0.098957,-0.129311,0.042626,1,WALK
1759737528.13640,-0.847248,-1.432182,-9.982474,-0.080646,-0.084311,-0.059399,1,WALK
1759737528.15723,-0.496198,-1.336264,-9.793781,0.031434,-0.11653,-0.147311,1,WALK
1759737528.17629,-0.469264,-1.628356,-9.461885,0.083355,-0.136178,-0.197023,1,WALK
1759737528.19714,-0.46672,-1.781436,-8.88982,0.024817,-0.177742,-0.235067,1,WALK
1759737528.21630,-0.598999,-1.969381,-8.737489,-0.082233,-0.185645,-0.321648,1,WALK
1759737528.23725,-0.682946,-2.012177,-8.981099,-0.089425,-0.138075,-0.433273,1,WALK
1759737528.25703,-0.61531,-2.186505,-9.153631,-0.014112,-0.03769,-0.508113,1,WALK
1759737528.27725,-0.526126,-2.33704,-9.282769,0.049502,0.152999,-0.533813,1,WALK
1759737528.29716,-0.106392,-2.402282,-9.571869,0.008807,0.307729,-0.466937,1,WALK
1759737528.31631,0.251391,-2.321627,-10.072556,-0.054103,0.219869,-0.371037,1,WALK
1759737528.33660,0.365265,-1.981052,-10.606313,-0.029606,-0.005784,-0.315653,1,WALK
1759737528.35692,0.354491,-1.661426,-10.891672,0.119083,-0.162882,-0.343397,1,WALK
1759737528.37725,0.348356,-1.538873,-10.744579,0.265316,-0.115343,-0.35951,1,WALK
1759737528.39717,0.087538,-1.781585,-10.648212,0.350934,-0.000356,-0.351661,1,WALK
1759737528.41631,-0.042946,-2.084751,-10.3434,0.297349,0.048615,-0.348988,1,WALK
1759737528.43724,0.560243,-1.857003,-10.412383,-0.014243,0.331898,-0.213278,1,WALK
1759737528.45722,1.134852,-1.407042,-11.001955,-0.317613,0.297185,0.053719,1,WALK
1759737528.47722,1.30484,-0.476895,-11.407772,-0.243131,-0.22874,0.154146,1,WALK
1759737528.49718,0.682198,0.031873,-10.975769,0.134584,-0.668821,-0.060432,1,WALK
1759737528.51634,-0.244508,-0.294188,-9.481936,0.547412,-0.801823,-0.513093,1,WALK
1759737528.53724,-0.763451,-0.990152,-8.098387,0.692067,-0.607944,-0.865346,1,WALK
1759737528.55721,-0.721702,-1.683273,-7.629573,0.570161,-0.173415,-0.984044,1,WALK
1759737528.57724,-0.04145,-1.91596,-7.817068,0.346322,0.126597,-0.829588,1,WALK
1759737528.59720,0.721403,-1.960702,-8.594286,0.165877,0.276684,-0.560055,1,WALK
1759737528.61635,1.269226,-1.730409,-9.232939,0.058372,0.252239,-0.319872,1,WALK
1759737528.63724,1.288679,-1.57314,-9.579201,-0.023079,-0.06693,-0.148166,1,WALK
1759737528.65721,0.771232,-1.481412,-9.460837,-0.100261,-0.45793,-0.165398,1,WALK
1759737528.67723,0.003891,-1.475876,-9.455899,-0.139966,-0.573584,-0.367025,1,WALK
1759737528.69721,-0.299874,-1.457321,-9.446173,-0.049485,-0.459911,-0.582425,1,WALK
1759737528.71637,-0.220865,-1.728913,-9.435549,0.096303,-0.3163,-0.715949,1,WALK
1759737528.73723,0.174926,-1.875109,-9.107244,0.187495,-0.255667,-0.766924,1,WALK
1759737528.75721,0.333692,-2.120066,-8.978855,0.163771,-0.18612,-0.798319,1,WALK
1759737528.77724,0.635361,-2.204312,-9.226655,0.153976,-0.201393,-0.828145,1,WALK
1759737528.79722,0.947655,-2.236184,-9.213487,0.154971,-0.316524,-0.828937,1,WALK
1759737528.81638,0.947356,-2.364125,-9.207052,0.108332,-0.321667,-0.784727,1,WALK
1759737528.83723,1.065719,-2.393453,-9.252991,0.063586,-0.331991,-0.663344,1,WALK
1759737528.85710,0.922665,-2.347664,-9.379435,0.048104,-0.37889,-0.519909,1,WALK
1759737528.87722,0.502932,-2.149395,-9.388413,0.033777,-0.423282,-0.488615,1,WALK
1759737528.89705,0.259771,-1.927931,-9.402778,0.005906,-0.439376,-0.552638,1,WALK
1759737528.91637,0.129287,-1.732504,-9.630826,-0.003291,-0.442765,-0.637948,1,WALK
1759737528.93723,-0.190189,-1.835604,-9.731981,0.058097,-0.544004,-0.778649,1,WALK
1759737528.95721,-0.798167,-2.568081,-9.408165,0.065588,-0.548593,-0.937418,1,WALK
1759737528.97723,-0.395492,-2.57257,-9.564087,-0.081662,-0.017742,-0.903199,1,WALK
1759737528.99636,0.487519,-2.290353,-10.045921,-0.354257,0.435784,-0.580875,1,WALK
1759737529.01639,0.81777,-1.708712,-11.215039,-0.522115,0.495248,-0.208706,1,WALK
1759737529.03637,0.712425,-0.73487,-11.612926,-0.461515,0.060476,-0.044824,1,WALK
1759737529.05678,-0.219668,-0.333991,-11.378743,-0.281401,-0.294275,-0.236028,1,WALK
1759737529.07723,-0.889895,-0.178667,-10.90903,-0.14093,-0.245554,-0.582588,1,WALK
1759737529.09723,-1.096245,-0.284311,-10.605864,0.01793,-0.131079,-0.815101,1,WALK
1759737529.11643,-0.9704,-0.354641,-10.424055,0.107769,-0.088523,-0.872638,1,WALK
1759737529.13722,-0.298377,-0.629376,-9.659257,0.289204,-0.183157,-0.909105,1,WALK
1759737529.15720,-0.448913,-0.985813,-9.145252,0.373451,-0.262596,-0.918846,1,WALK
1759737529.17723,-0.646883,-1.39552,-8.748563,0.430614,-0.139767,-0.927929,1,WALK
1759737529.19721,-0.786495,-1.838448,-8.598326,0.407722,0.140993,-0.833708,1,WALK
1759737529.21644,-0.732177,-2.035969,-8.636035,0.351571,0.264453,-0.733664,1,WALK
1759737529.23725,-0.203507,-2.268506,-9.017162,0.108683,0.29811,-0.342833,1,WALK
1759737529.25721,0.01646,-2.196979,-9.158719,0.054655,0.187118,-0.248746,1,WALK
1759737529.27725,-0.122254,-2.029834,-9.029732,-0.011212,-0.140496,-0.111834,1,WALK
1759737529.29723,-0.37978,-1.999907,-8.795848,-0.13221,-0.409981,-0.053455,1,WALK
1759737529.31646,-0.964265,-2.038962,-8.687061,-0.296236,-0.373412,-0.093287,1,WALK
1759737529.33723,-1.264587,-1.948132,-9.167249,-0.306221,-0.195301,-0.159973,1,WALK
1759737529.35720,-1.248576,-1.804929,-9.531317,-0.189138,-0.137169,-0.236041,1,WALK
1759737529.37723,-1.10642,-1.802385,-9.461436,-0.067164,-0.155894,-0.373367,1,WALK
1759737529.39723,-0.737264,-1.883788,-9.206753,-0.005491,-0.119435,-0.503522,1,WALK
1759737529.41647,-0.614412,-2.11812,-9.071929,0.06613,-0.085477,-0.559003,1,WALK
1759737529.43722,-0.540192,-2.308459,-8.901492,0.122257,-0.021741,-0.562509,1,WALK
1759737529.45719,-0.570867,-2.599056,-8.698584,0.135138,-0.000341,-0.569183,1,WALK
1759737529.47723,-0.494103,-2.723404,-8.529343,0.069097,0.039166,-0.533485,1,WALK
1759737529.49722,-0.364667,-2.800168,-8.65055,-0.036724,0.106672,-0.416674,1,WALK
1759737529.51648,-0.190638,-2.697816,-9.065794,-0.086289,0.1625,-0.236228,1,WALK
1759737529.53722,-0.217573,-2.475455,-9.4969,-0.09945,0.147706,-0.096504,1,WALK
1759737529.55719,-0.303615,-2.290952,-9.747094,-0.10961,0.037834,-0.049399,1,WALK
1759737529.57722,-0.310498,-2.137723,-9.986065,-0.109159,-0.00328,-0.026102,1,WALK
1759737529.59722,-0.307805,-1.996016,-10.241198,-0.076585,0.021495,0.036021,1,WALK
1759737529.61650,-0.233734,-1.770512,-10.254515,-0.030577,0.015088,0.074117,1,WALK
1759737529.63722,-0.190489,-1.578826,-10.294768,0.023125,0.01728,0.064237,1,WALK
1759737529.65719,-0.423175,-1.746869,-10.124929,0.091185,-0.036026,0.014301,1,WALK
1759737529.67723,-0.464924,-2.149544,-10.152463,0.022184,0.161154,-0.024697,1,WALK
1759737529.69722,0.509067,-2.103007,-10.292074,-0.159643,0.348559,0.083003,1,WALK
1759737529.71651,1.110012,-2.10181,-10.695497,-0.416093,0.269891,0.336216,1,WALK
1759737529.73722,1.312172,-1.552191,-11.171345,-0.542599,0.060897,0.500778,1,WALK
1759737529.75719,1.086219,-0.919224,-11.157728,-0.40205,-0.268232,0.452273,1,WALK
1759737529.77722,0.461183,-0.825551,-10.575488,-0.0949,-0.440537,0.20846,1,WALK
1759737529.79719,-0.035314,-1.063923,-9.453356,0.203181,-0.451129,-0.105179,1,WALK
1759737529.81653,-0.143951,-1.65185,-8.701127,0.330535,-0.195089,-0.283818,1,WALK
1759737529.83721,0.217124,-1.975067,-8.566454,0.314157,0.166016,-0.271696,1,WALK
1759737529.85720,0.81747,-2.182016,-8.72881,0.267496,0.324801,-0.168366,1,WALK
1759737529.87721,1.345242,-2.214188,-9.082554,0.182933,0.383535,-0.088866,1,WALK
1759737529.89721,1.809119,-2.201618,-9.151088,0.10449,0.221798,0.04541,1,WALK
1759737529.91654,1.662025,-2.199074,-8.871864,-0.046667,-0.055585,0.237599,1,WALK
1759737529.93721,1.029207,-2.118569,-8.7743,-0.257552,-0.197386,0.317541,1,WALK
1759737529.95719,0.477494,-1.800889,-9.102156,-0.334341,-0.173805,0.276888,1,WALK
1759737529.97719,0.065392,-1.739238,-9.476101,-0.280538,-0.112231,0.167072,1,WALK
1759737529.99705,-0.09891,-1.706617,-9.585935,-0.159633,-0.099087,0.000297,1,WALK
1759737530.01721,-0.139462,-1.867477,-9.430012,-0.067371,-0.14652,-0.167435,1,WALK
1759737530.03721,-0.002843,-2.075474,-9.177424,-0.049753,-0.117919,-0.264414,1,WALK
1759737530.05718,0.225654,-2.271948,-9.283068,-0.063994,0.025283,-0.286498,1,WALK
1759737530.07721,0.48303,-2.199374,-9.538499,-0.00068,0.038852,-0.263488,1,WALK
1759737530.09719,0.50383,-2.123507,-9.620351,0.070466,-0.071299,-0.259881,1,WALK
1759737530.11657,0.292093,-2.024298,-9.654618,0.105469,-0.081861,-0.303494,1,WALK
1759737530.13722,0.136619,-1.912967,-9.641001,0.143177,-0.048732,-0.350115,1,WALK
1759737530.15718,0.067935,-1.838448,-9.759065,0.209812,-0.06634,-0.424396,1,WALK
1759737530.17721,-0.233135,-2.020257,-9.526828,0.291154,-0.178641,-0.541294,1,WALK
1759737530.19721,-0.710779,-2.54369,-9.318981,0.237768,-0.030991,-0.627917,1,WALK
1759737530.21659,-0.037709,-2.242319,-9.8478,-0.056845,0.611975,-0.527067,1,WALK
1759737530.23704,0.385616,-2.147898,-11.347468,-0.224727,0.970844,-0.303035,1,WALK
1759737530.25695,1.103727,-1.322198,-11.834389,-0.124446,0.631761,-0.113693,1,WALK
1759737530.27718,1.074847,-0.772729,-11.205163,-0.023197,0.03922,-0.156242,1,WALK
1759737530.29718,0.181211,-0.816872,-10.341455,-0.042943,-0.34121,-0.413758,1,WALK
1759737530.31660,-0.362273,-0.781408,-9.33993,0.006605,-0.607935,-0.733188,1,WALK
1759737530.33719,-0.844854,-1.272817,-8.721029,0.152063,-0.541779,-0.979545,1,WALK
1759737530.35718,-0.874632,-1.665167,-8.376264,0.201133,-0.146208,-1.04827,1,WALK
1759737530.37686,-0.59855,-1.955464,-8.689306,0.147187,0.385727,-0.951884,1,WALK
1759737530.39706,-0.056264,-1.986888,-9.401132,0.137776,0.697815,-0.732632,1,WALK
1759737530.41661,0.718111,-1.674146,-9.746645,0.082871,0.625306,-0.528839,1,WALK
1759737530.43719,0.919074,-1.434426,-9.888651,0.02682,0.236234,-0.431722,1,WALK
1759737530.45702,0.649577,-1.266832,-9.689184,0.041869,-0.219227,-0.422551,1,WALK
1759737530.47720,0.137218,-1.30469,-9.267206,0.057123,-0.382781,-0.491425,1,WALK
1759737530.49677,-0.142455,-1.423951,-8.949227,0.047067,-0.290431,-0.494859,1,WALK
1759737530.51666,-0.277727,-1.660528,-8.854955,0.040915,-0.189312,-0.484016,1,WALK
1759737530.53720,-0.071976,-1.621473,-8.725518,0.023597,-0.172815,-0.482676,1,WALK
1759737530.55717,0.116268,-1.776198,-8.755446,-0.045816,-0.160336,-0.474829,1,WALK
1759737530.57720,0.325761,-1.868974,-9.124452,-0.075888,-0.144308,-0.426483,1,WALK
1759737530.59624,0.531513,-1.925686,-9.641749,0.012711,-0.133154,-0.353586,1,WALK
1759737530.61663,0.700753,-2.006341,-9.734225,0.115503,-0.13914,-0.257861,1,WALK
1759737530.63720,0.746991,-2.184559,-9.514408,0.158771,-0.282763,-0.180143,1,WALK
1759737530.65717,0.616058,-2.253842,-9.293992,0.106498,-0.39342,-0.113888,1,WALK
1759737530.67718,0.438737,-2.319832,-9.348759,-0.002158,-0.381699,-0.03099,1,WALK
1759737530.69720,0.422726,-2.204162,-9.704597,-0.030513,-0.317621,0.08032,1,WALK
1759737530.71670,0.51625,-2.012027,-9.882666,-0.050236,-0.252812,0.193689,1,WALK
1759737530.73720,0.117017,-2.276138,-10.201993,-0.07004,-0.125332,0.22964,1,WALK
1759737530.75708,0.730082,-1.959355,-10.658836,-0.240601,0.304944,0.357084,1,WALK
1759737530.77719,1.01978,-1.938106,-11.422736,-0.437583,0.489468,0.595165,1,WALK
1759737530.79720,1.545756,-1.183484,-11.667543,-0.619787,0.256469,0.841797,1,WALK
1759737530.81667,1.227178,-0.556502,-11.691785,-0.558956,-0.299214,0.841323,1,WALK
1759737530.83719,0.320224,-0.155174,-11.249605,-0.167361,-0.637175,0.484304,1,WALK
1759737530.85714,-0.482881,-0.360926,-9.844957,0.287666,-0.759344,-0.068343,1,WALK
1759737530.87721,-0.8052,-1.188272,-8.543559,0.497875,-0.595482,-0.486679,1,WALK
1759737530.89719,-0.463877,-1.702427,-8.179191,0.479125,-0.076582,-0.637365,1,WALK
1759737530.91674,0.215777,-2.059013,-8.520365,0.422631,0.353043,-0.469385,1,WALK
1759737530.93666,1.22239,-1.905485,-8.98918,0.351294,0.638385,-0.100425,1,WALK
1759737530.95716,1.90773,-1.73011,-9.670779,0.230735,0.752435,0.270352,1,WALK
1759737530.97720,2.028637,-1.331775,-9.92636,0.151381,0.371281,0.544771,1,WALK
1759737530.99719,1.423353,-1.130811,-9.599851,0.094959,-0.210477,0.58784,1,WALK
1759737531.01668,0.444124,-1.158644,-8.962844,-0.002625,-0.525171,0.353139,1,WALK
1759737531.03719,-0.270096,-1.324742,-8.593089,-0.078294,-0.521251,0.072681,1,WALK
1759737531.05716,-0.40058,-1.681029,-8.701726,-0.062092,-0.247413,-0.089149,1,WALK
1759737531.07717,0.00823,-1.980005,-8.941595,0.003275,0.026635,-0.129433,1,WALK
1759737531.09719,0.480486,-2.141164,-9.195081,0.0642,0.062331,-0.084421,1,WALK
1759737531.11671,0.819266,-2.273893,-9.309105,0.077609,0.006386,-0.068647,1,WALK
1759737531.13718,0.810587,-2.310704,-9.350704,0.110931,-0.080166,-0.086146,1,WALK
1759737531.15716,0.738761,-2.327014,-9.255684,0.119719,-0.083798,-0.087505,1,WALK
1759737531.17718,0.663643,-2.415899,-9.404574,0.105401,-0.049127,-0.077417,1,WALK
1759737531.19717,0.583736,-2.193238,-9.74066,0.128787,-0.000995,-0.078194,1,WALK
1759737531.21673,0.540042,-2.112284,-9.883713,0.149351,-0.014962,-0.087493,1,WALK
1759737531.23719,0.433949,-1.993472,-10.024522,0.190846,-0.135228,-0.180926,1,WALK
1759737531.25716,0.112228,-2.025495,-9.990704,0.259933,-0.228962,-0.342007,1,WALK
1759737531.27719,-0.324564,-2.571821,-9.687389,0.300663,-0.184747,-0.519453,1,WALK
1759737531.29718,0.072574,-2.607585,-9.693524,0.181251,0.295684,-0.535299,1,WALK
1759737531.31676,0.656311,-2.779668,-10.261997,-0.186337,0.727733,-0.261549,1,WALK
1759737531.33638,1.299752,-2.22167,-11.312304,-0.400932,0.747933,0.118621,1,WALK
1759737531.35716,1.364695,-1.389236,-11.545589,-0.305922,0.206009,0.319266,1,WALK
1759737531.37721,0.558747,-1.019481,-10.787076,-0.089884,-0.324174,0.114722,1,WALK
1759737531.39718,-0.412252,-0.971148,-9.461286,0.091926,-0.50885,-0.322046,1,WALK
1759737531.41677,-0.87523,-1.40794,-8.292168,0.179238,-0.496309,-0.638509,1,WALK
1759737531.43718,-0.87538,-1.952322,-7.767089,0.199108,-0.288238,-0.815438,1,WALK
1759737531.45715,-0.457293,-2.307561,-7.730428,0.092038,0.029564,-0.788263,1,WALK
1759737531.47718,-0.020201,-2.516007,-8.460061,-0.0241,0.323877,-0.555614,1,WALK
1759737531.49718,0.389507,-2.327164,-9.15827,-0.041687,0.46402,-0.232056,1,WALK
1759737531.51679,0.588375,-1.887678,-9.423578,-0.021402,0.41939,-0.015837,1,WALK
1759737531.53718,0.438139,-1.650503,-9.464878,-0.077959,0.302083,0.052589,1,WALK
1759737531.55657,0.32217,-1.491139,-9.415797,-0.194371,0.08961,0.080438,1,WALK
1759737531.57718,0.156222,-1.410783,-9.639206,-0.256099,-0.121862,0.069981,1,WALK
1759737531.59647,0.069133,-1.313369,-9.671976,-0.233154,-0.270039,0.041288,1,WALK
1759737531.61680,-0.07826,-1.443704,-9.502586,-0.211657,-0.341013,0.018957,1,WALK
1759737531.63717,-0.080505,-1.506701,-9.2491,-0.176668,-0.371644,-0.007933,1,WALK
1759737531.65715,-0.00015,-1.594538,-9.134777,-0.150643,-0.23836,-0.026368,1,WALK
1759737531.67717,0.133626,-1.725022,-9.24925,-0.104531,-0.030165,0.001931,1,WALK
1759737531.69654,0.389656,-1.802086,-9.396493,0.005504,-0.031083,0.073903,1,WALK
1759737531.71681,0.488118,-1.885434,-9.219622,0.099163,-0.14133,0.100474,1,WALK
1759737531.73718,0.310049,-2.050334,-9.017312,0.081834,-0.141584,0.140703,1,WALK
1759737531.75702,0.152331,-2.110189,-9.115175,0.042992,-0.079372,0.194351,1,WALK
1759737531.77718,0.168941,-2.095226,-9.404574,0.020008,0.013676,0.258153,1,WALK
1759737531.79717,0.266953,-2.137723,-9.703699,-0.027133,0.038621,0.352717,1,WALK
1759737531.81683,0.259472,-2.011429,-9.899575,-0.094352,-0.01965,0.462221,1,WALK
1759737531.83716,0.046238,-1.89127,-10.01734,-0.172512,-0.056411,0.535715,1,WALK
1759737531.85714,-0.138714,-1.840692,-10.229825,-0.237829,-0.062725,0.537052,1,WALK
1759737531.87716,-0.11971,-1.897106,-10.59943,-0.254769,0.071428,0.509632,1,WALK
1759737531.89718,0.270096,-1.740435,-11.072285,-0.36444,0.381591,0.61369,1,WALK
1759737531.91716,0.662595,-1.58975,-11.508478,-0.44685,0.333207,0.744893,1,WALK
1759737531.93715,0.83423,-1.077091,-11.779173,-0.415761,0.075866,0.788069,1,WALK
1759737531.95714,0.665289,-0.664391,-11.476306,-0.097079,-0.273764,0.599617,1,WALK
1759737531.97695,0.107739,-0.787842,-10.078242,0.322967,-0.541015,0.235466,1,WALK
1759737531.99717,-0.354342,-1.44086,-8.710704,0.551787,-0.420517,-0.103377,1,WALK
1759737532.01686,-0.139163,-1.965041,-7.900566,0.471308,0.014383,-0.168618,1,WALK
1759737532.03717,0.26007,-2.350358,-8.268076,0.218886,0.417713,0.059785,1,WALK
1759737532.05714,1.0322,-2.000505,-9.291298,0.088782,0.640531,0.438112,1,WALK
1759737532.07717,1.595436,-1.40405,-10.005518,0.03808,0.677086,0.798071,1,WALK
1759737532.09717,1.359757,-1.105074,-10.253468,-0.001527,0.393949,0.988091,1,WALK
1759737532.11687,0.690278,-0.844555,-9.868151,0.024781,-0.015596,0.891286,1,WALK
1759737532.13717,-0.157718,-0.877325,-9.290251,0.027379,-0.242592,0.55341,1,WALK
1759737532.15714,-0.456245,-1.186925,-8.615535,-0.032756,-0.364934,0.219891,1,WALK
1759737532.17642,-0.361674,-1.582567,-8.337957,-0.096709,-0.302892,0.054833,1,WALK
1759737532.19717,-0.341473,-1.943643,-8.292168,-0.115326,-0.188843,0.016008,1,WALK
1759737532.21688,-0.337134,-2.199972,-8.440758,-0.089196,-0.052269,0.015383,1,WALK
1759737532.23716,-0.158466,-2.296339,-8.657284,-0.030963,0.070059,-0.015062,1,WALK
1759737532.25714,0.071227,-2.358139,-8.837447,-0.013112,0.186563,-0.042543,1,WALK
1759737532.27715,0.217723,-2.436848,-9.182362,-0.004688,0.195924,-0.052043,1,WALK
1759737532.29717,0.327557,-2.367267,-9.471162,0.014895,0.101075,-0.060717,1,WALK
1759737532.31690,0.24795,-2.406173,-9.555558,-0.027676,-0.050816,-0.084605,1,WALK
1759737532.33716,0.125546,-2.245612,-9.953893,-0.09931,-0.055768,-0.126046,1,WALK
1759737532.35714,-0.06599,-2.073828,-10.627712,-0.043536,0.016334,-0.184629,1,WALK
1759737532.37717,-0.080056,-1.885284,-11.139622,0.109295,0.144786,-0.262651,1,WALK
1759737532.39716,0.159214,-1.825878,-10.95871,0.223496,0.085694,-0.371229,1,WALK
1759737532.41691,-0.060753,-2.383428,-10.483162,0.183178,-0.047709,-0.51723,1,WALK
1759737532.43716,0.378583,-2.364274,-10.859051,-0.011038,0.31698,-0.459538,1,WALK
1759737532.45713,0.695964,-2.388815,-11.464036,-0.087889,0.40477,-0.253311,1,WALK
1759737532.47716,0.857124,-1.88274,-11.707945,-0.072567,0.206674,-0.088666,1,WALK
1759737532.49716,0.456245,-1.520019,-11.050138,0.028795,-0.254382,-0.127115,1,WALK
1759737532.51692,-0.131681,-1.266982,-9.851541,0.123055,-0.560562,-0.379202,1,WALK
1759737532.53716,-0.777218,-1.407342,-8.738686,0.197856,-0.596461,-0.685953,1,WALK
1759737532.55713,-1.064821,-1.608904,-7.969549,0.320963,-0.428904,-0.883409,1,WALK
1759737532.57714,-1.157148,-2.012027,-7.549516,0.357637,-0.129534,-0.952132,1,WALK
1759737532.59629,-1.02816,-2.255937,-7.634959,0.241781,0.27249,-0.89538,1,WALK
1759737532.61694,-0.688333,-2.384625,-8.270171,0.086735,0.576595,-0.750987,1,WALK
1759737532.63716,-0.081552,-1.989282,-9.213337,-0.031372,0.794386,-0.576532,1,WALK
1759737532.65713,0.497395,-1.648258,-10.098743,-0.128045,0.817187,-0.406267,1,WALK
1759737532.67716,0.741604,-1.304391,-10.897658,-0.154462,0.517039,-0.21907,1,WALK
1759737532.69716,0.67711,-0.781408,-11.084555,-0.030348,0.025146,-0.153515,1,WALK
1759737532.71696,0.112827,-0.672172,-10.53733,0.057668,-0.322096,-0.257154,1,WALK
1759737532.73715,-0.235829,-0.715567,-9.620501,0.031335,-0.558444,-0.42259,1,WALK
1759737532.75713,-0.477643,-0.870442,-9.062801,0.058003,-0.616337,-0.584283,1,WALK
1759737532.77716,-0.386963,-1.161188,-8.684518,0.148506,-0.484112,-0.690467,1,WALK
1759737532.79667,-0.031424,-1.414225,-8.509591,0.243976,-0.249766,-0.708938,1,WALK
1759737532.81697,0.332644,-1.729661,-8.39033,0.300524,-0.069833,-0.620111,1,WALK
1759737532.83716,0.609175,-1.99003,-8.165574,0.248527,-0.039098,-0.433715,1,WALK
1759737532.85713,0.572962,-2.237681,-8.176199,0.118776,-0.061377,-0.27395,1,WALK
1759737532.87715,0.46672,-2.232743,-8.577227,0.000553,-0.033058,-0.143613,1,WALK
1759737532.89713,0.151583,-2.178424,-9.122806,-0.052846,-0.041155,-0.026619,1,WALK
1759737532.91699,-0.192584,-2.047791,-9.544485,-0.038825,-0.02826,-0.043006,1,WALK
1759737532.93715,-0.345214,-2.133383,-9.702353,-0.032892,-0.059244,-0.131362,1,WALK
1759737532.95712,-0.237924,-2.218078,-9.646538,-0.126471,-0.090406,-0.144283,1,WALK
1759737532.97715,-0.418387,-2.444181,-9.898827,-0.205046,-0.042022,-0.148273,1,WALK
1759737532.99717,-0.245705,-2.439542,-10.606164,-0.315033,0.258164,-0.114174,1,WALK
1759737533.01701,0.302867,-2.217629,-11.570428,-0.47489,0.498568,0.031188,1,WALK
1759737533.03715,0.605284,-1.731906,-12.539631,-0.532653,0.342264,0.177143,1,WALK
1759737533.05712,0.700304,-0.844405,-12.759299,-0.380936,-0.091838,0.144271,1,WALK
1759737533.07713,0.088137,-0.43365,-12.203246,-0.090463,-0.441691,-0.209467,1,WALK
1759737533.09715,-0.417639,-0.460285,-10.792463,0.309567,-0.686547,-0.816104,1,WALK
1759737533.11700,-0.621894,-0.853383,-9.190293,0.629006,-0.736815,-1.361289,1,WALK
1759737533.13717,-0.471508,-1.480514,-7.968651,0.773475,-0.53903,-1.6849,1,WALK
1759737533.15712,-0.025139,-2.116774,-7.52333,0.663514,-0.112063,-1.678017,1,WALK
1759737533.17713,0.403124,-2.537255,-7.975834,0.468522,0.337304,-1.413137,1,WALK
1759737533.19713,1.133206,-2.32043,-8.883087,0.363018,0.541776,-1.005102,1,WALK
1759737533.21703,1.625663,-1.953968,-9.249848,0.287261,0.633779,-0.792259,1,WALK
1759737533.23715,1.65185,-1.922394,-9.722105,0.198264,0.497925,-0.53152,1,WALK
1759737533.25712,1.621024,-1.360804,-9.83957,0.103616,0.110551,-0.388194,1,WALK
1759737533.27715,0.874333,-1.211167,-9.633968,-0.054078,-0.295606,-0.454387,1,WALK
1759737533.29714,0.570269,-1.121683,-9.585635,-0.153138,-0.558224,-0.674729,1,WALK
1759737533.31706,0.160262,-1.029956,-9.550022,-0.133195,-0.651332,-0.86373,1,WALK
1759737533.33714,0.010774,-1.158644,-9.307908,-0.029003,-0.644919,-1.005247,1,WALK
1759737533.35712,0.115221,-1.375918,-9.081057,0.045169,-0.501305,-1.10862,1,WALK
1759737533.37714,0.324115,-1.564162,-9.212888,0.120164,-0.292357,-1.1761,1,WALK
1759737533.39714,0.671125,-1.632397,-9.260173,0.180301,-0.148814,-1.194227,1,WALK
1759737533.41706,1.08188,-1.832013,-9.470265,0.168835,-0.116754,-1.188027,1,WALK
1759737533.43700,1.366191,-1.940052,-9.690531,0.164804,-0.216841,-1.13269,1,WALK
1759737533.45711,1.410783,-1.870021,-9.843162,0.174015,-0.324921,-1.045407,1,WALK
1759737533.47640,1.203386,-1.948581,-10.009409,0.169503,-0.442819,-0.982613,1,WALK
1759737533.49714,0.884358,-1.790414,-9.983971,0.199284,-0.566397,-0.996491,1,WALK
1759737533.51707,0.571616,-1.758391,-9.825055,0.222333,-0.525773,-1.067105,1,WALK
1759737533.53715,0.363919,-1.912817,-9.570671,0.217696,-0.476534,-1.115125,1,WALK
1759737533.55634,0.455796,-1.975067,-9.252093,0.143405,-0.323173,-1.123871,1,WALK
1759737533.57713,0.525677,-2.016217,-9.390358,-0.022172,0.012171,-1.041664,1,WALK
1759737533.59714,0.587028,-1.86628,-9.839271,-0.146831,0.10877,-0.89869,1,WALK
1759737533.61710,0.581941,-1.452383,-10.122086,-0.234928,-0.003256,-0.808467,1,WALK
1759737533.63714,0.133028,-1.278055,-10.373178,-0.23899,-0.085486,-0.833085,1,WALK
1759737533.65711,-0.096516,-1.020678,-10.415825,-0.147108,-0.178127,-0.918981,1,WALK
1759737533.67716,-0.352995,-0.786795,-10.065074,-0.038395,-0.225555,-1.01459,1,WALK
1759737533.69662,-0.411503,-0.889147,-9.572318,-0.020127,-0.314038,-1.072471,1,WALK
1759737533.71711,-0.389806,-0.910844,-9.253141,-0.006146,-0.487682,-1.143591,1,WALK
1759737533.73713,-0.451307,-1.044321,-9.017611,0.013644,-0.504691,-1.249162,1,WALK
1759737533.75711,-0.492457,-1.279102,-8.98499,0.040531,-0.381814,-1.273096,1,WALK
1759737533.77714,-0.332644,-1.363348,-9.073875,0.058927,-0.212949,-1.209471,1,WALK
1759737533.79713,0.001945,-1.417816,-9.214085,0.058142,-0.153557,-1.120891,1,WALK
1759737533.81714,0.130035,-1.520168,-9.076119,0.026388,-0.24974,-1.012099,1,WALK
1759737533.83713,0.065242,-1.537227,-8.989928,-0.042753,-0.253184,-0.899994,1,WALK
1759737533.85637,-0.026187,-1.506102,-9.177873,-0.142776,-0.167644,-0.764207,1,WALK
1759737533.87687,-0.089932,-1.387141,-9.770887,-0.131836,-0.012605,-0.702269,1,WALK
1759737533.89705,0.00404,-1.170765,-10.183737,-0.02568,0.127122,-0.649685,1,WALK
1759737533.91710,0.042048,-1.16029,-10.43423,0.092127,0.176726,-0.63074,1,WALK
1759737533.93706,0.224905,-1.133056,-10.435278,0.18435,0.120506,-0.66259,1,WALK
1759737533.95711,0.071377,-1.36245,-10.207828,0.241834,-0.014368,-0.725302,1,WALK
1759737533.97712,0.04549,-1.57748,-9.576208,0.182036,-0.155748,-0.772624,1,WALK
1759737533.99714,-0.049829,-1.876755,-9.34023,0.030419,-0.225889,-0.798586,1,WALK
1759737534.01659,-0.098013,-1.840543,-9.531466,-0.027998,-0.23654,-0.794346,1,WALK
1759737534.03713,-0.135123,-1.865831,-9.652673,0.013032,-0.194355,-0.797784,1,WALK
1759737534.05633,-0.0618,-1.906383,-9.622446,0.045753,-0.120943,-0.780237,1,WALK
1759737534.07713,-0.096666,-1.965939,-9.608829,0.04381,-0.108282,-0.738457,1,WALK
1759737534.09713,-0.110732,-1.890222,-9.63337,0.001557,-0.099926,-0.710338,1,WALK
1759737534.11691,-0.261118,-1.850868,-9.741109,-0.034759,-0.127049,-0.719714,1,WALK
1759737534.13714,-0.397288,-1.718588,-9.93863,-0.014552,-0.103782,-0.745637,1,WALK
1759737534.15711,-0.564283,-1.66816,-10.137499,0.075374,-0.044223,-0.795763,1,WALK
1759737534.17713,-0.65661,-1.591097,-10.216956,0.202382,0.002461,-0.850787,1,WALK
1759737534.19713,-0.651223,-1.689857,-9.946711,0.275629,-0.028451,-0.918368,1,WALK
1759737534.21690,-0.627879,-1.767819,-9.691878,0.271893,-0.027164,-0.966034,1,WALK
1759737534.23615,-0.544232,-1.850119,-9.697265,0.246022,-0.028202,-0.961569,1,WALK
1759737534.25710,-0.515202,-1.778144,-9.680057,0.247544,-0.05602,-0.95608,1,WALK
1759737534.27712,-0.624887,-1.760486,-9.67048,0.267626,-0.064503,-0.961507,1,WALK
1759737534.29713,-0.661099,-1.78802,-9.526229,0.254025,-0.163547,-0.962708,1,WALK
1759737534.31690,-0.508917,-1.739687,-9.510816,0.2017,-0.26874,-0.979592,1,WALK
1759737534.33712,-0.501286,-1.801337,-9.53401,0.151106,-0.330248,-0.987744,1,WALK
1759737534.35710,-0.411204,-1.814356,-9.507076,0.132911,-0.352042,-0.985334,1,WALK
1759737534.37634,-0.312443,-1.860594,-9.379884,0.101045,-0.388452,-0.95655,1,WALK
1759737534.39712,-0.229095,-1.810016,-9.269152,0.048898,-0.518704,-0.918317,1,WALK
1759737534.41712,-0.155025,-1.74238,-8.994267,-0.034144,-0.766095,-0.9379,1,WALK
1759737534.43713,-0.324265,-1.809119,-8.931569,-0.087184,-0.847581,-1.00372,1,WALK
1759737534.45710,-0.513556,-1.999009,-9.111434,-0.048354,-0.715891,-1.05613,1,WALK
1759737534.47712,-0.35928,-2.235436,-9.138817,-0.055125,-0.531673,-1.037205,1,WALK
1759737534.49710,0.059855,-2.256385,-9.370905,-0.112533,-0.393209,-0.918735,1,WALK
1759737534.51712,0.424372,-2.091485,-9.544186,-0.140162,-0.392851,-0.740937,1,WALK
1759737534.53712,0.298228,-1.867926,-9.603592,-0.118352,-0.463034,-0.614871,1,WALK
1759737534.55709,-0.105495,-1.616685,-9.516652,-0.069292,-0.441688,-0.623287,1,WALK
1759737534.57713,-0.374992,-1.535282,-9.556755,-0.000309,-0.278603,-0.744381,1,WALK
1759737534.59638,-0.153528,-1.589301,-9.706991,0.089877,-0.309727,-0.840578,1,WALK
1759737534.61712,0.137218,-1.701828,-9.547029,0.111381,-0.492188,-0.905223,1,WALK
1759737534.63713,0.012121,-1.952023,-9.373,0.043465,-0.509738,-0.954662,1,WALK
1759737534.65709,0.022895,-1.987936,-9.424476,-0.023452,-0.377869,-0.938964,1,WALK
1759737534.67713,0.076166,-2.008735,-9.622596,-0.046664,-0.295445,-0.913409,1,WALK
1759737534.69713,0.109684,-1.924788,-9.570971,-0.068409,-0.324616,-0.923091,1,WALK
1759737534.71711,0.036212,-1.939453,-9.561095,-0.127442,-0.332797,-0.981627,1,WALK
1759737534.73637,0.211139,-1.847575,-9.618705,-0.21273,-0.257636,-1.023245,1,WALK
1759737534.75710,0.271592,-1.795352,-9.978733,-0.248703,-0.178447,-1.042645,1,WALK
1759737534.77713,0.363919,-1.641674,-10.23207,-0.200012,-0.188939,-1.085793,1,WALK
1759737534.79709,0.19812,-1.615188,-10.216058,-0.095675,-0.244886,-1.187487,1,WALK
1759737534.81711,0.120159,-1.611447,-10.007164,0.006924,-0.199327,-1.317397,1,WALK
1759737534.83712,0.2683,-1.697938,-9.791537,0.064017,-0.105214,-1.410416,1,WALK
1759737534.85709,0.43769,-1.87062,-9.577854,0.044291,-0.045764,-1.448905,1,WALK
1759737534.87712,0.595408,-1.897704,-9.619304,0.032743,-0.010736,-1.454147,1,WALK
1759737534.89709,0.677709,-1.933767,-9.628432,0.056538,-0.067983,-1.42138,1,WALK
1759737534.91711,0.547973,-1.988085,-9.595062,0.047446,-0.05267,-1.418824,1,WALK
1759737534.93711,0.393846,-2.031031,-9.6826,0.084515,-0.031609,-1.472328,1,WALK
1759737534.95709,0.507122,-2.070835,-9.581894,0.122367,-0.026404,-1.501918,1,WALK
1759737534.97711,0.56982,-2.2504,-9.470115,0.085965,-0.026291,-1.476416,1,WALK
1759737534.99711,0.577152,-2.255338,-9.547178,0.024058,-0.057966,-1.420226,1,WALK
1759737535.01711,0.429161,-2.197428,-9.758167,0.017142,-0.144104,-1.405313,1,WALK
1759737535.03710,0.270545,-2.043002,-9.983821,0.053936,-0.204196,-1.426436,1,WALK
1759737535.05708,0.203956,-1.940351,-10.102334,0.119842,-0.259691,-1.460172,1,WALK
1759737535.07712,0.206799,-1.856105,-10.121338,0.187837,-0.263108,-1.481862,1,WALK
1759737535.09711,0.180164,-1.854459,-10.093805,0.241205,-0.281905,-1.491049,1,WALK
1759737535.11711,0.140809,-1.816002,-10.014197,0.304261,-0.382751,-1.496595,1,WALK
1759737535.13711,-0.085443,-1.972523,-9.683947,0.332371,-0.538358,-1.541858,1,WALK
1759737535.15708,-0.34671,-2.251298,-9.427917,0.273127,-0.521358,-1.575172,1,WALK
1759737535.17669,-0.338031,-2.273294,-9.493309,0.232484,-0.426769,-1.556108,1,WALK
1759737535.19709,0.022895,-2.11408,-9.595362,0.118491,-0.288477,-1.391299,1,WALK
1759737535.21709,-0.033519,-1.864634,-9.700856,0.001208,-0.315209,-1.313883,1,WALK
1759737535.23710,-0.131681,-1.480215,-9.825055,-0.062597,-0.430209,-1.346943,1,WALK
1759737535.25708,-0.328455,-1.200542,-9.952247,-0.060372,-0.483178,-1.386571,1,WALK
1759737535.27711,-0.401328,-1.084873,-9.971551,0.013953,-0.485383,-1.482468,1,WALK
1759737535.29709,-0.50368,-0.931045,-9.66629,0.137174,-0.486268,-1.586169,1,WALK
1759737535.31695,-0.73891,-1.008258,-9.242067,0.235167,-0.492984,-1.693717,1,WALK
1759737535.33711,-0.945859,-1.195604,-8.915558,0.287788,-0.355285,-1.8107,1,WALK
1759737535.35708,-0.999729,-1.450587,-9.07597,0.310791,0.025936,-1.855489,1,WALK
1759737535.37713,-0.659902,-1.628506,-9.724349,0.347478,0.367308,-1.788492,1,WALK
1759737535.39711,-0.0826,-1.629404,-10.070611,0.369151,0.404396,-1.688459,1,WALK
1759737535.41710,0.378583,-1.694347,-10.270527,0.264232,0.264794,-1.54217,1,WALK
1759737535.43711,0.555455,-1.611447,-10.350134,0.145756,-0.067587,-1.382032,1,WALK
1759737535.45708,0.414945,-1.414075,-10.006416,0.08618,-0.488873,-1.310343,1,WALK
1759737535.47709,-0.125247,-1.455824,-9.490915,0.061188,-0.668403,-1.328167,1,WALK
1759737535.49709,-0.489614,-1.575385,-8.851962,0.078419,-0.653247,-1.329437,1,WALK
1759737535.51709,-0.667982,-1.788169,-8.390629,0.111325,-0.518457,-1.330149,1,WALK
1759737535.53709,-0.552761,-2.015469,-8.214057,0.107392,-0.316914,-1.319183,1,WALK
1759737535.55707,-0.346561,-2.210596,-8.227824,0.074553,-0.243209,-1.242364,1,WALK
1759737535.57709,-0.149787,-2.274043,-8.419061,0.047889,-0.237198,-1.14307,1,WALK
1759737535.59716,-0.069581,-2.301426,-8.587253,-0.016188,-0.287445,-1.038733,1,WALK
1759737535.61708,-0.227748,-2.331952,-9.066542,-0.049089,-0.257962,-0.967873,1,WALK
1759737535.63709,-0.272789,-2.23394,-9.608231,0.046501,-0.186662,-0.886007,1,WALK
1759737535.65708,-0.189441,-2.278981,-9.925762,0.127798,-0.091131,-0.789931,1,WALK
1759737535.67717,0.026486,-2.289006,-9.969156,0.143667,-0.1129,-0.671232,1,WALK
1759737535.69710,0.195876,-2.310105,-9.763854,0.065418,-0.291714,-0.581261,1,WALK
1759737535.71709,0.118214,-2.261922,-9.688586,-0.051953,-0.404415,-0.511348,1,WALK
1759737535.73710,0.004639,-2.182315,-9.736919,-0.094701,-0.44061,-0.44885,1,WALK
1759737535.75661,-0.021249,-2.1265,-9.737817,-0.074795,-0.401612,-0.411891,1,WALK
1759737535.77712,-0.299275,-2.56434,-9.591621,-0.134392,-0.353419,-0.409842,1,WALK
1759737535.79689,0.40462,-2.288707,-9.929054,-0.310589,-0.004078,-0.316301,1,WALK
1759737535.81612,0.815525,-2.237232,-10.808773,-0.410046,0.130832,-0.124433,1,WALK
1759737535.83644,1.289577,-1.606958,-11.288212,-0.456661,-0.050271,0.051766,1,WALK
1759737535.85707,1.08188,-1.240196,-11.097574,-0.402375,-0.412889,0.00228,1,WALK
1759737535.87713,0.57805,-1.1148,-10.487202,-0.278955,-0.552865,-0.236977,1,WALK
1759737535.89710,0.395343,-1.225831,-9.679159,-0.140918,-0.455174,-0.434777,1,WALK
1759737535.91710,0.346261,-1.675941,-8.84882,-0.004935,-0.400069,-0.523067,1,WALK
1759737535.93710,0.60678,-1.83336,-8.301745,-0.006343,-0.239291,-0.503631,1,WALK
1759737535.95663,0.754174,-1.93646,-8.546103,-0.059509,0.117552,-0.376169,1,WALK
1759737535.97640,0.905457,-1.756745,-9.271995,-0.004757,0.410843,-0.197134,1,WALK
1759737535.99692,1.223587,-1.479317,-9.662399,0.053792,0.475348,-0.113791,1,WALK
1759737536.01709,1.479617,-1.345242,-9.801413,-0.00583,0.328437,-0.093143,1,WALK
1759737536.03709,1.516128,-1.323245,-9.844957,-0.116258,-0.014995,-0.056942,1,WALK
1759737536.05707,1.168819,-1.358261,-9.72405,-0.193212,-0.329019,-0.083647,1,WALK
1759737536.07710,0.662895,-1.471686,-9.596409,-0.191952,-0.342226,-0.153988,1,WALK
1759737536.09709,0.50787,-1.580472,-9.548974,-0.125761,-0.13352,-0.179307,1,WALK
1759737536.11709,0.640449,-1.777844,-9.409213,-0.060453,-0.024352,-0.171064,1,WALK
1759737536.13709,0.812233,-1.896956,-9.348011,-0.068861,-0.069833,-0.153066,1,WALK
1759737536.15707,0.811485,-2.001104,-9.223063,-0.090765,-0.20162,-0.193218,1,WALK
1759737536.17641,0.670825,-2.086846,-9.114426,-0.091163,-0.204984,-0.233364,1,WALK
1759737536.19707,0.625784,-2.181716,-9.035867,-0.03646,-0.149273,-0.244543,1,WALK
1759737536.21709,0.518045,-2.364424,-8.862287,0.015721,-0.112415,-0.256686,1,WALK
1759737536.23709,0.435445,-2.522291,-8.81979,0.008985,0.004932,-0.230824,1,WALK
1759737536.25674,0.348805,-2.575712,-9.119813,-0.036233,0.105055,-0.142558,1,WALK
1759737536.27647,0.181361,-2.459144,-9.784354,-0.018798,0.11383,-0.103354,1,WALK
1759737536.29709,0.151583,-2.079364,-10.409241,0.078243,0.119135,-0.128812,1,WALK
1759737536.31616,0.19423,-1.852514,-10.640431,0.194061,0.080593,-0.202821,1,WALK
1759737536.33709,0.217872,-1.818695,-10.680683,0.266697,-0.01772,-0.301809,1,WALK
1759737536.35706,-0.014664,-2.414103,-10.548404,0.25662,-0.050046,-0.384415,1,WALK
1759737536.37712,0.474052,-2.335244,-10.857854,0.104752,0.166084,-0.232778,1,WALK
1759737536.39684,0.506673,-2.396147,-11.378443,0.016026,0.063143,-0.081868,1,WALK
1759737536.41708,0.524779,-1.914314,-11.405079,-0.041176,-0.114587,-0.027478,1,WALK
1759737536.43709,0.304213,-1.42859,-11.125705,-0.009882,-0.282248,-0.088268,1,WALK
1759737536.45706,0.000898,-1.068712,-10.329783,0.146028,-0.458176,-0.247697,1,WALK
1759737536.47641,-0.420182,-1.169717,-9.022399,0.329227,-0.583574,-0.474856,1,WALK
1759737536.49651,-0.860416,-1.611148,-8.024317,0.374834,-0.358072,-0.643598,1,WALK
1759737536.51709,-0.865205,-2.041805,-7.741651,0.297605,0.095078,-0.651329,1,WALK
1759737536.53708,-0.476895,-2.173037,-8.094497,0.199608,0.440482,-0.518576,1,WALK
1759737536.55674,0.062249,-1.999907,-8.665065,0.151681,0.555986,-0.409603,1,WALK
1759737536.57712,0.562338,-1.683872,-9.037064,0.09415,0.514276,-0.292504,1,WALK
1759737536.59705,0.650924,-1.480365,-9.463232,-0.037829,0.442511,-0.13502,1,WALK
1759737536.61622,0.526425,-1.161637,-9.610625,-0.12027,0.215238,-0.060194,1,WALK
1759737536.63708,0.126593,-0.956484,-9.726594,-0.110108,0.040451,-0.111207,1,WALK
1759737536.65706,-0.119112,-0.874781,-9.556007,-0.025643,-0.026289,-0.232582,1,WALK
1759737536.67709,-0.022296,-0.984466,-9.307908,0.049951,-0.001169,-0.303268,1,WALK
1759737536.69708,0.126144,-1.318906,-9.207651,0.111674,0.057218,-0.33968,1,WALK
1759737536.71708,0.379631,-1.58137,-8.871714,0.169098,-0.016339,-0.320105,1,WALK
1759737536.73708,0.524031,-1.848174,-8.512584,0.130898,-0.100568,-0.251521,1,WALK
1759737536.75706,0.483629,-2.078616,-8.398859,0.043282,-0.13284,-0.139324,1,WALK
1759737536.77710,0.323367,-2.216432,-8.541165,-0.018541,-0.139898,-0.017335,1,WALK
1759737536.79708,0.298677,-2.21718,-8.761431,-0.022822,-0.150133,0.079857,1,WALK
1759737536.81608,0.174926,-2.292598,-8.851513,-0.080183,-0.122124,0.170095,1,WALK
1759737536.83708,0.087987,-2.321179,-9.144653,-0.183485,-0.048674,0.234295,1,WALK
1759737536.85705,0.286406,-2.125004,-9.694871,-0.259359,0.001745,0.301148,1,WALK
1759737536.87711,0.541838,-1.836502,-10.320356,-0.264522,-0.015471,0.389124,1,WALK
1759737536.89707,0.456245,-1.710059,-10.68218,-0.209368,-0.158061,0.410777,1,WALK
1759737536.91609,0.213234,-1.882441,-10.722133,-0.255028,-0.14592,0.349078,1,WALK
1759737536.93708,0.581192,-1.720832,-10.964396,-0.442105,0.14633,0.380895,1,WALK
1759737536.95680,1.20982,-1.515979,-11.650036,-0.519829,0.236421,0.503402,1,WALK
1759737536.97708,1.529296,-1.025018,-11.859079,-0.437359,0.021226,0.649452,1,WALK
1759737536.99708,1.206079,-0.683395,-11.259033,-0.222471,-0.317033,0.599585,1,WALK
1759737537.01610,0.643741,-0.683545,-10.051906,0.010138,-0.546172,0.340151,1,WALK
1759737537.03708,0.208744,-1.141436,-8.865878,0.142184,-0.607732,0.07296,1,WALK
1759737537.05705,0.365415,-1.595586,-8.381801,0.209959,-0.335883,-0.045952,1,WALK
1759737537.07708,0.777068,-1.872415,-8.643218,0.23358,0.102309,0.093605,1,WALK
1759737537.09708,1.267879,-1.923292,-8.995465,0.260497,0.365226,0.391026,1,WALK
1759737537.11613,1.553089,-1.795053,-9.045892,0.248324,0.410273,0.522542,1,WALK
1759737537.13713,1.969979,-1.594838,-9.151686,0.068769,0.240289,0.77027,1,WALK
1759737537.15705,1.768417,-1.324891,-9.000253,-0.119747,-0.143827,0.910728,1,WALK
1759737537.17707,1.419462,-1.335965,-8.950274,-0.230008,-0.295049,0.915948,1,WALK
1759737537.19705,0.435894,-1.36679,-9.292495,-0.465004,-0.321676,0.788005,1,WALK
1759737537.21615,0.265008,-1.368885,-9.647735,-0.435396,-0.246758,0.745526,1,WALK
1759737537.23707,0.203058,-1.257854,-10.064476,-0.267369,-0.145789,0.660743,1,WALK
1759737537.25705,0.113575,-1.302745,-10.035745,-0.065401,-0.096588,0.513257,1,WALK
1759737537.27707,-0.038008,-1.404349,-9.746047,0.082291,-0.126014,0.331328,1,WALK
1759737537.29705,-0.032771,-1.653795,-9.271845,0.167751,-0.153982,0.114649,1,WALK
1759737537.31617,0.141707,-2.003797,-8.903886,0.169147,-0.101339,-0.013098,1,WALK
1759737537.33707,0.270844,-2.239925,-8.910021,0.20875,-0.072461,-0.060365,1,WALK
1759737537.35704,0.342969,-2.408268,-8.885631,0.24757,-0.025961,-0.052347,1,WALK
1759737537.37711,0.224456,-2.553715,-8.991125,0.247949,0.0766,0.013492,1,WALK
1759737537.39708,0.177171,-2.518102,-9.395596,0.234749,0.253144,0.088972,1,WALK
1759737537.41619,0.148441,-2.317438,-10.019285,0.283165,0.321696,0.131374,1,WALK
1759737537.43707,0.060603,-2.117222,-10.287286,0.384295,0.222366,0.089865,1,WALK
1759737537.45617,-0.174926,-2.195633,-9.96347,0.404972,0.020475,-0.040914,1,WALK
1759737537.47710,-0.374543,-2.658611,-9.766397,0.284927,-0.009209,-0.175885,1,WALK
1759737537.49614,0.052224,-2.849848,-9.762058,0.023036,0.21266,-0.09539,1,WALK
1759737537.51620,0.405368,-2.928408,-10.71525,-0.293524,0.57164,0.18984,1,WALK
1759737537.53707,0.687286,-2.170194,-11.629386,-0.346672,0.524052,0.501948,1,WALK
1759737537.55704,0.477045,-1.402404,-11.676521,-0.194579,0.062131,0.561583,1,WALK
1759737537.57639,-0.233135,-1.000477,-10.684424,0.007034,-0.340594,0.245852,1,WALK
1759737537.59628,-0.863858,-1.200243,-9.232939,0.054305,-0.499332,-0.137504,1,WALK
1759737537.61622,-1.181987,-1.806126,-8.445846,0.024412,-0.412857,-0.360886,1,WALK
1759737537.63706,-0.827496,-2.051232,-8.315212,-0.050368,-0.114153,-0.347339,1,WALK
1759737537.65695,-0.613664,-2.232743,-9.079411,-0.062566,0.311036,-0.184301,1,WALK
1759737537.67639,-0.277428,-1.855506,-10.062381,0.117633,0.585909,-0.036518,1,WALK
1759737537.69707,0.104896,-1.476624,-10.271574,0.326648,0.549171,-0.021426,1,WALK
1759737537.71623,0.362871,-1.49877,-9.632472,0.322639,0.230896,-0.094287,1,WALK
1759737537.73708,0.373495,-1.805827,-9.086594,0.088185,-0.053369,-0.091694,1,WALK
1759737537.75694,0.291494,-1.93646,-9.248502,-0.092979,-0.093495,0.011399,1,WALK
1759737537.77703,0.055516,-1.869871,-9.632023,-0.082208,-0.022527,0.143163,1,WALK
1759737537.79706,-0.235829,-1.714847,-9.627683,0.034219,-0.045484,0.182662,1,WALK
1759737537.81624,-0.468366,-1.657236,-9.27379,0.125264,-0.097275,0.054941,1,WALK
1759737537.83700,-0.385018,-1.82498,-8.929474,0.114269,-0.069339,-0.072072,1,WALK
1759737537.85696,-0.23942,-2.094627,-9.070583,0.059615,0.074773,-0.091617,1,WALK
1759737537.87707,0.033369,-2.261772,-9.389909,0.105135,0.1313,-0.03403,1,WALK
1759737537.89707,0.218321,-2.280178,-9.610475,0.159026,0.16838,0.031808,1,WALK
1759737537.91625,0.291943,-2.388515,-9.992051,0.274581,0.171229,0.021175,1,WALK
1759737537.93673,0.641945,-2.314744,-9.96751,0.393438,0.147772,0.056298,1,WALK
1759737537.95703,0.612018,-2.56404,-10.012102,0.355027,0.258916,0.165636,1,WALK
1759737537.97703,0.708085,-2.561197,-10.355221,0.275917,0.229547,0.302848,1,WALK
1759737537.99607,0.666785,-2.516904,-10.308086,0.285254,-0.066693,0.403306,1,WALK
1759737538.01627,0.259921,-2.517054,-9.945065,0.275519,-0.222262,0.483287,1,WALK
1759737538.03706,-0.451906,-2.746897,-9.554361,0.261596,-0.144598,0.464992,1,WALK
1759737538.05703,-0.438588,-2.824859,-9.35669,0.112018,0.166496,0.480421,1,WALK
1759737538.07706,0.164751,-2.767547,-9.34412,-0.115985,0.323998,0.576902,1,WALK
1759737538.09705,0.835876,-2.214337,-9.865906,-0.356472,0.353876,0.800005,1,WALK
1759737538.11629,1.085621,-1.514183,-10.404752,-0.450856,0.140652,0.944408,1,WALK
1759737538.13706,0.548721,-0.908749,-10.72348,-0.232011,-0.136219,0.826572,1,WALK
1759737538.15702,-0.215628,-0.671125,-10.200047,0.213447,-0.308014,0.404638,1,WALK
1759737538.17704,-0.782305,-1.191415,-8.784625,0.514132,-0.387339,-0.055228,1,WALK
1759737538.19706,-0.641496,-1.864933,-7.892037,0.484905,-0.078263,-0.293916,1,WALK
1759737538.21630,-0.111031,-2.384924,-7.92795,0.312304,0.387012,-0.247509,1,WALK
1759737538.23706,0.838419,-2.42802,-8.463952,0.188602,0.579555,0.024464,1,WALK
1759737538.25703,1.575834,-2.167351,-8.788815,0.078555,0.421658,0.250095,1,WALK
1759737538.27607,1.541567,-2.056021,-8.683021,-0.086938,-0.034116,0.372246,1,WALK
1759737538.29706,0.789488,-2.033725,-8.626159,-0.259716,-0.306636,0.375664,1,WALK
1759737538.31631,0.20231,-1.96145,-8.784326,-0.303525,-0.279001,0.276783,1,WALK
1759737538.33706,-0.046537,-1.97791,-8.974216,-0.212943,-0.164497,0.166419,1,WALK
1759737538.35703,0.07826,-2.14281,-8.908525,-0.094693,-0.134677,0.061134,1,WALK
1759737538.37693,0.209493,-2.437597,-8.533683,-0.060807,-0.152621,-0.029085,1,WALK
1759737538.39671,0.311994,-2.795679,-8.383896,-0.131318,-0.130793,-0.073926,1,WALK
1759737538.41633,0.506224,-2.864064,-8.652645,-0.141204,-0.101232,-0.107603,1,WALK
1759737538.43706,0.667833,-2.945766,-8.888324,-0.081055,-0.144828,-0.12016,1,WALK
1759737538.45703,0.773327,-3.000384,-8.930522,-0.047241,-0.193048,-0.107542,1,WALK
1759737538.47700,0.628777,-3.137452,-9.020903,-0.084679,-0.202599,-0.069873,1,WALK
1759737538.49688,0.440234,-3.083732,-9.50109,-0.086376,-0.125075,-0.048018,1,WALK
1759737538.51634,0.302118,-2.850746,-9.966613,0.028076,-0.081905,-0.062732,1,WALK
1759737538.53705,0.039654,-2.924966,-9.846603,0.099796,-0.179562,-0.143248,1,WALK
1759737538.55702,-0.017208,-3.006369,-9.695769,0.046692,-0.13872,-0.284522,1,WALK
1759737538.57705,-0.028282,-3.346346,-9.833435,0.003443,-0.125999,-0.369468,1,WALK
1759737538.59706,0.332794,-3.363255,-10.135105,-0.029736,0.093808,-0.325975,1,WALK
1759737538.61636,0.774824,-3.420416,-10.477924,-0.163662,0.432805,-0.113591,1,WALK
1759737538.63695,0.871789,-2.939481,-11.298238,-0.235528,0.623965,0.193443,1,WALK
1759737538.65703,0.698808,-2.227954,-11.176882,-0.169255,0.209018,0.320701,1,WALK
1759737538.67708,0.062549,-1.816601,-10.446051,-0.13928,-0.26719,0.142632,1,WALK
1759737538.69705,-0.59062,-1.649904,-9.649381,-0.20323,-0.401378,-0.180074,1,WALK
1759737538.71637,-0.835726,-1.668759,-9.256732,-0.148291,-0.316664,-0.385946,1,WALK
1759737538.73705,-0.909946,-1.859098,-8.86947,0.025663,-0.249319,-0.469481,1,WALK
1759737538.75661,-1.055244,-2.105401,-8.391527,0.11097,-0.101299,-0.506996,1,WALK
1759737538.77707,-1.096993,-2.258331,-8.369231,0.088172,0.275367,-0.484115,1,WALK
1759737538.79686,-1.020229,-2.252345,-8.699332,0.032442,0.612914,-0.412238,1,WALK
1759737538.81642,-0.534805,-2.059013,-9.031976,-0.026373,0.663495,-0.387852,1,WALK
1759737538.83678,0.026486,-1.892616,-9.279626,-0.109799,0.463722,-0.343198,1,WALK
1759737538.85702,0.2273,-1.838298,-9.58788,-0.200158,0.260794,-0.213436,1,WALK
1759737538.87705,-0.043545,-1.835754,-9.763854,-0.240561,0.058737,-0.083758,1,WALK
1759737538.89697,-0.467618,-1.693149,-9.629329,-0.209262,-0.128604,-0.07027,1,WALK
1759737538.91639,-0.820463,-1.745373,-9.445724,-0.106635,-0.196337,-0.168587,1,WALK
1759737538.93705,-0.825251,-1.871966,-9.009231,0.001794,-0.137502,-0.283145,1,WALK
1759737538.95702,-0.516549,-2.252495,-8.821586,-0.011081,0.037544,-0.309663,1,WALK
1759737538.97705,-0.142006,-2.437297,-8.843283,-0.032279,0.063293,-0.236298,1,WALK
1759737538.99704,0.1239,-2.436848,-8.935909,-0.034098,-0.041601,-0.131669,1,WALK
1759737539.01641,0.011821,-2.399289,-9.037513,-0.037378,-0.036429,-0.089908,1,WALK
1759737539.03705,-0.08275,-2.378041,-9.375843,-0.00437,0.094342,-0.058973,1,WALK
1759737539.05702,0.018405,-2.343624,-9.729587,0.074591,0.183755,-0.031732,1,WALK
1759737539.07705,0.299874,-2.397793,-9.706094,0.102987,0.113609,-0.001556,1,WALK
1759737539.09704,0.504428,-2.406173,-9.869647,0.04354,0.102526,0.052169,1,WALK
1759737539.11644,0.583138,-2.422334,-9.917831,0.031618,0.051364,0.081862,1,WALK
1759737539.13702,0.700454,-2.310854,-9.814581,-0.006461,-0.086243,0.202163,1,WALK
1759737539.15702,0.351199,-2.62629,-9.622147,-0.115207,-0.196225,0.259281,1,WALK
1759737539.17704,0.30975,-2.75842,-9.701754,-0.209196,-0.141173,0.273006,1,WALK
1759737539.19702,0.845602,-2.546533,-10.733655,-0.452571,0.30501,0.412038,1,WALK
1759737539.21646,1.167473,-2.436848,-11.046846,-0.449131,0.339595,0.488562,1,WALK
1759737539.23705,2.065298,-1.599177,-10.907683,-0.480768,0.269569,0.725889,1,WALK
1759737539.25701,2.148048,-1.099088,-10.766426,-0.591303,0.0309,0.869496,1,WALK
1759737539.27704,1.605611,-0.550517,-10.619781,-0.539028,-0.41684,0.819557,1,WALK
1759737539.29659,0.737414,-0.381875,-9.79842,-0.241466,-0.900753,0.44805,1,WALK
1759737539.31647,0.100706,-0.943615,-8.576629,-0.018009,-0.957481,0.014612,1,WALK
1759737539.33666,-0.064943,-1.5073,-8.326136,0.080992,-0.359765,-0.147072,1,WALK
1759737539.35701,0.43365,-1.853262,-8.628703,0.115907,0.357905,0.014893,1,WALK
1759737539.37703,1.393874,-1.766771,-9.449465,0.133108,0.863233,0.408655,1,WALK
1759737539.39704,2.230947,-1.443105,-9.867702,0.066705,0.868802,0.794986,1,WALK
1759737539.41649,2.236035,-1.111508,-10.057143,-0.043744,0.356461,1.03882,1,WALK
1759737539.43703,1.42455,-0.935235,-9.788394,-0.118473,-0.272308,0.986594,1,WALK
1759737539.45701,0.505925,-0.911592,-9.336638,-0.162437,-0.495094,0.665997,1,WALK
1759737539.47703,0.11582,-1.1561,-9.241469,-0.078204,-0.348786,0.475225,1,WALK
1759737539.49703,0.215478,-1.508347,-9.20391,0.038134,-0.07492,0.459438,1,WALK
1759737539.51650,0.607678,-1.737891,-8.974964,0.132641,-0.02091,0.503282,1,WALK
1759737539.53703,0.68115,-1.970877,-8.741978,0.139666,-0.056434,0.517957,1,WALK
1759737539.55701,0.815375,-2.149993,-8.733299,0.037738,0.000694,0.520438,1,WALK
1759737539.57703,1.091307,-2.08924,-9.203311,-0.010036,0.022338,0.594816,1,WALK
1759737539.59703,1.188871,-1.963694,-9.61661,0.070802,-0.035808,0.672313,1,WALK
1759737539.61652,0.949451,-1.873164,-9.498247,0.128242,-0.150492,0.709704,1,WALK
1759737539.63703,0.460285,-1.949778,-9.330054,0.087598,-0.236162,0.646534,1,WALK
1759737539.65700,0.184802,-1.89516,-9.647286,0.063811,-0.16863,0.533679,1,WALK
1759737539.67703,-0.017208,-1.929278,-10.012851,0.160458,-0.09102,0.421577,1,WALK
1759737539.69703,-0.006734,-1.995567,-10.151864,0.253056,0.095434,0.323666,1,WALK
1759737539.71654,0.129287,-2.30412,-10.115203,0.291543,0.183477,0.241154,1,WALK
1759737539.73703,0.358382,-2.722207,-10.173412,0.215445,0.421952,0.240895,1,WALK
1759737539.75701,0.865055,-2.808997,-10.976666,-0.069655,0.932823,0.472833,1,WALK
1759737539.77703,1.540669,-2.333748,-12.183344,-0.209139,0.999927,0.879048,1,WALK
1759737539.79703,1.768417,-1.398214,-12.384307,-0.15736,0.418285,1.163672,1,WALK
1759737539.81654,0.944513,-0.761805,-11.580005,-0.010347,-0.154038,1.020111,1,WALK
1759737539.83703,-0.186598,-0.667533,-10.162787,0.203512,-0.46304,0.590233,1,WALK
1759737539.85700,-0.787992,-0.991499,-8.805126,0.375988,-0.519558,0.234025,1,WALK
1759737539.87701,-0.913687,-1.595286,-7.972243,0.468328,-0.26334,-0.006431,1,WALK
1759737539.89703,-0.64419,-1.975067,-7.744345,0.404974,0.249532,-0.000694,1,WALK
1759737539.91656,-0.056862,-2.226159,-8.395867,0.267162,0.777175,0.24235,1,WALK
1759737539.93703,0.862212,-1.931073,-8.988132,0.209783,0.907248,0.565749,1,WALK
1759737539.95700,1.637784,-1.509095,-9.474903,0.118562,0.820769,0.807686,1,WALK
1759737539.97701,1.850868,-1.189918,-9.572168,-0.094101,0.460634,1.073641,1,WALK
1759737539.99703,1.473033,-0.905607,-9.518897,-0.382589,0.035427,1.268116,1,WALK
1759737540.01659,0.726341,-0.571466,-9.759963,-0.589109,-0.186913,1.264129,1,WALK
1759737540.03704,-0.006285,-0.360627,-9.952247,-0.522433,-0.345397,1.129283,1,WALK
1759737540.05700,-0.368109,-0.280271,-9.490166,-0.323837,-0.457468,0.885855,1,WALK
1759737540.07706,-0.413598,-0.617405,-8.969727,-0.157803,-0.303466,0.622207,1,WALK
1759737540.09649,-0.080355,-1.076792,-8.691551,-0.04113,0.009714,0.494192,1,WALK
1759737540.11664,0.299275,-1.405995,-8.662521,0.076629,0.26443,0.505742,1,WALK
1759737540.13702,0.774375,-1.672948,-8.442703,0.11054,0.317936,0.608966,1,WALK
1759737540.15700,0.994791,-1.942296,-8.392275,0.027402,0.30651,0.741739,1,WALK
1759737540.17707,0.993743,-2.010531,-8.694244,-0.075302,0.346363,0.900049,1,WALK
1759737540.19702,0.865205,-1.993023,-9.33185,-0.09124,0.427587,1.061744,1,WALK
1759737540.21660,0.893785,-1.827225,-9.863512,-0.019453,0.422301,1.180092,1,WALK
1759737540.23703,0.868646,-1.753753,-10.122834,-0.004672,0.362755,1.298748,1,WALK
1759737540.25699,0.790087,-1.666514,-10.154707,-0.079959,0.256209,1.394755,1,WALK
1759737540.27701,0.480337,-1.625364,-10.367941,-0.118391,0.219122,1.479449,1,WALK
1759737540.29705,0.141856,-1.678335,-10.797849,-0.183411,0.444165,1.540455,1,WALK
1759737540.31662,0.569371,-1.091457,-11.370812,-0.360609,0.756223,1.672477,1,WALK
1759737540.33702,0.792481,-0.878223,-11.54095,-0.416938,0.462672,1.732775,1,WALK
1759737540.35699,0.836474,-0.579546,-11.332505,-0.356857,0.080309,1.628685,1,WALK
1759737540.37673,0.672621,-0.570867,-10.823737,-0.325574,-0.007012,1.455742,1,WALK
1759737540.39639,0.723498,-0.810138,-10.538378,-0.290738,0.043986,1.378786,1,WALK
1759737540.41664,0.789488,-0.752827,-10.28145,-0.026087,-0.027611,1.312705,1,WALK
1759737540.43700,0.633715,-0.980126,-9.629629,0.328133,-0.047103,1.192084,1,WALK
1759737540.45699,0.702399,-1.319504,-8.855254,0.493317,0.135867,1.159999,1,WALK
1759737540.47700,0.870592,-1.587356,-8.665663,0.339498,0.542665,1.312976,1,WALK
1759737540.49661,1.317409,-1.539771,-9.136423,0.119819,0.80147,1.563295,1,WALK
1759737540.51664,2.091934,-0.931943,-9.658509,-0.053127,0.786442,1.797865,1,WALK
1759737540.53702,2.235287,-0.618452,-9.984419,-0.179618,0.487404,1.99383,1,WALK
1759737540.55700,1.987187,-0.200664,-9.729138,-0.267613,0.00338,2.116953,1,WALK
1759737540.57702,1.121833,-0.110582,-9.363723,-0.325543,-0.246652,2.023655,1,WALK
1759737540.59662,0.377835,-0.251391,-9.248951,-0.331611,-0.211958,1.843076,1,WALK
1759737540.61671,0.246752,-0.434997,-8.995465,-0.278489,-0.225511,1.696747,1,WALK
1759737540.63701,0.176423,-0.754323,-8.917503,-0.214507,-0.148525,1.546379,1,WALK
1759737540.65634,0.337582,-0.883161,-8.905682,-0.149677,-0.004881,1.469868,1,WALK
1759737540.67702,0.37978,-1.072303,-9.145551,-0.060984,0.040798,1.425739,1,WALK
1759737540.69702,0.451307,-1.049558,-9.115324,0.027037,0.003928,1.339197,1,WALK
1759737540.71669,0.368258,-1.262343,-9.023596,0.108579,-0.029445,1.189584,1,WALK
1759737540.73700,0.477494,-1.473033,-9.025242,0.152177,-0.001863,1.125517,1,WALK
1759737540.75699,0.373645,-1.667861,-9.222614,0.154483,0.086446,1.103,1,WALK
1759737540.77703,0.316484,-1.699734,-9.616461,0.176412,0.205472,1.094725,1,WALK
1759737540.79702,0.211438,-1.678784,-9.858724,0.251442,0.205899,1.056642,1,WALK
1759737540.81670,0.136918,-1.743577,-9.761908,0.243645,0.257761,0.998321,1,WALK
1759737540.83702,0.201861,-1.769764,-9.884462,0.148172,0.409186,0.998299,1,WALK
1759737540.85698,0.343119,-1.642722,-10.149769,0.102524,0.332463,1.020475,1,WALK
1759737540.87702,-0.220566,-2.100762,-10.362703,0.067803,0.202644,0.950868,1,WALK
1759737540.89701,0.026336,-1.948282,-10.597036,-0.117161,0.51432,0.991461,1,WALK
1759737540.91671,0.285509,-1.897255,-11.144859,-0.259944,0.569895,1.11453,1,WALK
1759737540.93628,0.482881,-1.273715,-11.539005,-0.202258,0.282887,1.175203,1,WALK
1759737540.95699,0.180014,-1.054795,-11.075727,0.012584,-0.128459,1.032178,1,WALK
1759737540.97702,-0.25603,-1.121683,-9.984569,0.155718,-0.252709,0.791225,1,WALK
1759737540.99664,-0.613664,-1.508048,-9.129839,0.258482,-0.217968,0.635721,1,WALK
1759737541.01679,-0.70599,-1.773655,-8.683021,0.336971,-0.042002,0.554547,1,WALK
1759737541.03702,-0.801908,-2.033276,-8.729559,0.364268,0.297228,0.574896,1,WALK
1759737541.05671,-0.599748,-2.061108,-8.986486,0.351704,0.541554,0.703868,1,WALK
1759737541.07701,-0.386963,-1.860444,-9.38557,0.359226,0.650779,0.775203,1,WALK
1759737541.09677,0.140061,-1.497424,-9.810092,0.240853,0.904384,0.859099,1,WALK
1759737541.11673,0.702848,-1.280748,-10.452187,0.027923,0.982115,1.050593,1,WALK
1759737541.13699,1.055095,-0.761057,-10.797401,-0.139301,0.576325,1.273482,1,WALK
1759737541.15671,0.791134,-0.319476,-11.091588,-0.176111,0.135488,1.313519,1,WALK
1759737541.17700,0.213234,-0.045939,-10.922498,-0.06969,-0.114966,1.157616,1,WALK
1759737541.19670,-0.065841,-0.048782,-10.689362,0.006971,-0.158437,1.06711,1,WALK
1759737541.21676,-0.302567,-0.352397,-10.07929,0.190615,-0.164572,0.874122,1,WALK
1759737541.23700,0.08245,-0.99913,-8.946832,0.353522,-0.038349,0.737516,1,WALK
1759737541.25614,0.155623,-1.252916,-8.673444,0.361366,0.0307,0.740271,1,WALK
1759737541.27702,0.426168,-1.591546,-8.358906,0.292566,0.164019,0.841708,1,WALK
1759737541.29684,0.731578,-1.848024,-8.318504,0.164852,0.192829,1.035046,1,WALK
1759737541.31678,0.882114,-1.868525,-8.529343,0.042098,0.207089,1.233941,1,WALK
1759737541.33700,0.779163,-1.82109,-8.858696,-0.011643,0.143888,1.353808,1,WALK
1759737541.35698,0.514903,-1.739836,-8.995614,0.014311,0.024205,1.404978,1,WALK
1759737541.37703,0.204255,-1.840393,-8.883236,0.001522,0.058267,1.414133,1,WALK
1759737541.39701,0.159364,-1.937508,-9.093926,-0.032363,0.1824,1.45385,1,WALK
1759737541.41679,0.460884,-1.73849,-9.387515,-0.077732,0.262494,1.564376,1,WALK
1759737541.43700,0.564882,-1.59813,-9.823409,-0.091912,0.225913,1.661807,1,WALK
1759737541.45646,0.568324,-1.392827,-10.263194,-0.047913,0.214412,1.685611,1,WALK
1759737541.47702,0.450858,-1.367239,-10.72348,0.092847,0.275153,1.596671,1,WALK
1759737541.49680,0.452803,-1.388487,-10.831817,0.274934,0.37036,1.510838,1,WALK
1759737541.51681,0.333991,-1.839196,-10.737546,0.378468,0.531135,1.44765,1,WALK
1759737541.53700,1.002123,-1.859547,-10.445902,0.207185,0.801849,1.539882,1,WALK
1759737541.55672,1.415572,-1.978359,-10.672603,0.002494,0.736127,1.761334,1,WALK
1759737541.57701,1.420809,-1.518522,-10.540922,-0.06955,0.438224,1.933189,1,WALK
1759737541.59700,1.070507,-1.228674,-10.18239,-0.090653,0.393715,1.959487,1,WALK
1759737541.61682,0.841113,-0.961272,-9.917083,-0.069882,0.521025,2.012393,1,WALK
1759737541.63700,0.688632,-0.690278,-9.506178,0.008867,0.440786,2.056594,1,WALK
1759737541.65697,0.407912,-0.547524,-8.921095,0.09104,0.294626,1.98816,1,WALK
1759737541.67699,0.138864,-0.627281,-8.438962,0.105978,0.26803,1.897035,1,WALK
1759737541.69679,0.117017,-0.798466,-8.22109,0.028058,0.387158,1.866113,1,WALK
1759737541.71684,0.358382,-0.933589,-8.761132,-0.070863,0.711206,1.930696,1,WALK
1759737541.73702,0.706888,-0.75163,-9.647286,-0.079223,0.903081,2.087531,1,WALK
1759737541.75697,1.023222,-0.524929,-9.957185,-0.082249,0.735797,2.165632,1,WALK
1759737541.77701,1.065869,-0.542885,-9.89763,-0.163568,0.452432,2.136734,1,WALK
1759737541.79700,0.973991,-0.644489,-9.789891,-0.237301,0.199489,2.109538,1,WALK
1759737541.81686,0.769437,-0.803105,-9.643695,-0.267414,0.066324,2.089789,1,WALK
1759737541.83699,0.422427,-1.058686,-9.420435,-0.239982,0.028673,2.050164,1,WALK
1759737541.85697,0.27653,-1.16433,-9.305514,-0.215526,0.139984,2.007,1,WALK
1759737541.87703,0.34686,-1.281646,-9.341127,-0.238275,0.234059,1.96362,1,WALK
1759737541.89681,0.54513,-1.26773,-9.670779,-0.252169,0.317356,1.893608,1,WALK
1759737541.91687,0.805499,-1.203386,-9.998635,-0.208424,0.285623,1.849614,1,WALK
1759737541.93699,0.975787,-1.1353,-10.30614,-0.095678,0.117229,1.805619,1,WALK
1759737541.95697,0.852934,-1.130811,-9.993547,0.006948,-0.024166,1.711035,1,WALK
1759737541.97700,0.485574,-1.40405,-9.684695,0.041006,-0.012356,1.616811,1,WALK
1759737541.99680,0.225205,-1.534384,-9.654917,0.037313,0.128082,1.542263,1,WALK
1759737542.01689,0.194828,-1.591396,-9.870994,0.022255,0.282261,1.465356,1,WALK
1759737542.03700,0.134524,-1.525855,-10.168025,0.074973,0.309664,1.391186,1,WALK
1759737542.05697,0.164302,-1.363049,-10.169521,0.142911,0.091032,1.262893,1,WALK
1759737542.07699,-0.457592,-1.671302,-10.032752,0.225055,-0.174023,0.999247,1,WALK
1759737542.09687,-1.050606,-1.972972,-9.50932,0.255891,-0.003299,0.783042,1,WALK
1759737542.11690,-0.898574,-2.21314,-9.545532,0.186733,0.603832,0.729396,1,WALK
1759737542.13699,0.037709,-2.019958,-10.194361,0.081772,1.06915,0.937684,1,WALK
1759737542.15697,0.64,-1.512836,-10.779444,0.098497,0.91915,1.213072,1,WALK
1759737542.17700,0.616208,-1.14383,-10.425252,0.197352,0.399601,1.267985,1,WALK
1759737542.19700,-0.00823,-1.118541,-9.716867,0.190519,0.160764,1.173621,1,WALK
1759737542.21692,-0.453701,-1.300201,-9.498995,0.110512,0.279356,1.145882,1,WALK
1759737542.23699,-0.496946,-1.460313,-9.678111,0.130961,0.322092,1.168313,1,WALK
1759737542.25696,-0.433949,-1.417218,-9.442731,0.199883,0.217162,1.181661,1,WALK
1759737542.27699,-0.64434,-1.529596,-9.11727,0.166719,0.252681,1.197329,1,WALK
1759737542.29699,-0.782455,-1.533337,-9.006388,0.07897,0.40835,1.224695,1,WALK
1759737542.31693,-0.761057,-1.499818,-9.392752,-0.014334,0.602277,1.243051,1,WALK
1759737542.33699,-0.541239,-1.322647,-9.833734,0.012965,0.58481,1.207163,1,WALK
1759737542.35696,-0.296582,-1.369633,-9.792135,0.080157,0.41704,1.138045,1,WALK
1759737542.37697,-0.208445,-1.611298,-9.46802,0.065557,0.352706,1.125849,1,WALK
1759737542.39699,-0.278625,-1.832163,-9.269002,-0.03059,0.422782,1.195853,1,WALK
1759737542.41695,-0.296881,-1.814805,-9.311649,-0.126021,0.455905,1.24987,1,WALK
1759737542.43699,-0.287005,-1.749563,-9.497648,-0.167661,0.30363,1.244168,1,WALK
1759737542.45696,-0.380678,-1.720982,-9.524583,-0.143049,0.126898,1.160093,1,WALK
1759737542.47697,-0.570568,-1.8995,-9.416245,-0.079128,0.158313,1.045391,1,WALK
1759737542.49690,-0.470311,-2.167501,-9.18745,-0.029767,0.246771,0.976408,1,WALK
1759737542.51696,-0.349254,-2.401384,-8.920496,-0.03163,0.265467,0.92459,1,WALK
1759737542.53698,-0.174029,-2.525135,-8.800337,-0.081382,0.22081,0.929113,1,WALK
1759737542.55695,-0.105943,-2.511368,-8.889671,-0.098221,0.131297,0.964912,1,WALK
1759737542.57697,-0.485724,-2.536657,-8.990826,-0.06677,0.162058,0.947438,1,WALK
1759737542.59613,-0.788889,-2.555212,-8.975563,-0.041592,0.282216,0.898023,1,WALK
1759737542.61699,-0.765097,-2.608632,-9.023896,-0.068971,0.368417,0.862484,1,WALK
1759737542.63698,-0.636708,-2.622399,-9.24491,-0.132833,0.368113,0.851295,1,WALK
1759737542.65696,-0.577601,-2.499696,-9.626037,-0.199191,0.331655,0.872175,1,WALK
1759737542.67698,-0.616657,-2.284667,-9.863063,-0.241046,0.261581,0.877277,1,WALK
1759737542.69654,-0.670376,-2.060659,-10.224887,-0.245527,0.255612,0.857473,1,WALK
1759737542.71647,-0.653767,-1.768716,-10.499921,-0.120931,0.215815,0.779453,1,WALK
1759737542.73698,-0.872537,-1.845481,-10.134057,0.069211,0.067408,0.612374,1,WALK
1759737542.75696,-1.489193,-2.702605,-9.406669,0.093712,0.120968,0.411859,1,WALK
1759737542.77698,-1.019182,-2.822764,-8.98065,-0.141269,0.538215,0.401741,1,WALK
1759737542.79698,-0.035464,-2.887407,-9.347711,-0.603253,0.762122,0.659819,1,WALK
1759737542.81648,0.620697,-1.941698,-10.816853,-0.865749,0.669156,0.981286,1,WALK
1759737542.83698,0.816722,-0.763152,-11.725303,-0.694564,0.151525,1.124044,1,WALK
1759737542.85695,0.039953,-0.289848,-11.541249,-0.272526,-0.371858,0.871621,1,WALK
1759737542.87702,-0.960374,-0.380528,-10.183437,0.118162,-0.609142,0.326792,1,WALK
1759737542.89698,-1.523161,-0.95394,-9.185654,0.276264,-0.398559,-0.093779,1,WALK
1759737542.91652,-1.196652,-1.35003,-9.036914,0.268845,0.048133,-0.259452,1,WALK
1759737542.93698,-0.516699,-1.526154,-9.383924,0.249728,0.30485,-0.213374,1,WALK
1759737542.95695,0.149937,-1.382801,-9.652224,0.288353,0.297844,-0.151536,1,WALK
1759737542.97698,0.618751,-1.367089,-9.730784,0.228817,0.188204,-0.142454,1,WALK
1759737542.99618,0.701651,-1.42455,-9.751434,0.142772,0.001677,-0.121858,1,WALK
1759737543.01650,0.418237,-1.541417,-9.590274,0.087861,-0.22832,-0.132211,1,WALK
1759737543.03698,0.111779,-1.632995,-9.120412,0.022066,-0.360668,-0.188797,1,WALK
1759737543.05695,-0.302418,-1.837849,-8.81979,-0.056818,-0.287367,-0.217548,1,WALK
1759737543.07698,-0.537947,-1.868375,-8.604312,-0.107337,-0.222186,-0.247656,1,WALK
1759737543.09696,-0.76794,-1.915661,-8.744822,-0.119391,-0.169761,-0.36822,1,WALK
1759737543.11654,-0.79712,-1.94065,-8.841338,-0.11226,-0.149275,-0.444748,1,WALK
1759737543.13695,-0.666187,-1.937807,-9.48059,-0.032091,-0.031545,-0.652428,1,WALK
1759737543.15689,-0.534057,-1.924938,-9.668983,0.020738,-0.002495,-0.699275,1,WALK
1759737543.17700,0.089334,-1.923142,-10.006267,0.180054,-0.017355,-0.755067,1,WALK
1759737543.19695,0.340575,-1.872116,-10.032004,0.245164,-0.127863,-0.759502,1,WALK
1759737543.21654,0.234482,-1.864185,-10.120141,0.279429,-0.148301,-0.763094,1,WALK
1759737543.23698,-0.011971,-1.747917,-10.066571,0.332994,-0.135067,-0.795382,1,WALK
1759737543.25695,-0.06195,-1.719785,-9.883414,0.342071,-0.170402,-0.886041,1,WALK
1759737543.27698,-0.114622,-1.64347,-9.886407,0.36638,-0.187016,-0.98247,1,WALK
1759737543.29698,-0.096367,-1.68043,-9.74874,0.398058,-0.181781,-1.069666,1,WALK
1759737543.31657,-0.010026,-1.713799,-9.580996,0.381292,-0.07642,-1.108473,1,WALK
1759737543.33697,-0.108188,-1.967435,-9.357737,0.315532,-0.131078,-1.148485,1,WALK
1759737543.35695,-0.172682,-2.046594,-9.349208,0.200851,-0.118992,-1.173836,1,WALK
1759737543.37698,-0.141856,-1.947833,-9.893141,-0.026114,0.207187,-1.090514,1,WALK
1759737543.39698,-0.115071,-1.753902,-10.912622,-0.09573,0.395147,-0.986593,1,WALK
1759737543.41658,0.097863,-1.080533,-11.273547,0.0449,0.242689,-0.972532,1,WALK
1759737543.43698,0.027833,-0.73098,-10.613346,0.196709,-0.166344,-1.135225,1,WALK
1759737543.45695,-0.072125,-0.694917,-9.357288,0.201589,-0.530375,-1.452004,1,WALK
1759737543.47700,-0.250942,-1.029956,-8.607454,0.132583,-0.592397,-1.689424,1,WALK
1759737543.49697,-0.442329,-1.350629,-8.304288,0.195102,-0.459335,-1.780961,1,WALK
1759737543.51659,-0.506523,-1.740285,-8.329876,0.241313,-0.08304,-1.725787,1,WALK
1759737543.53697,-0.395642,-1.980603,-8.542811,0.249595,0.258273,-1.568819,1,WALK
1759737543.55694,0.029479,-1.953968,-8.789862,0.165435,0.420489,-1.398992,1,WALK
1759737543.57697,0.278326,-1.886781,-9.178621,-0.009358,0.416254,-1.278784,1,WALK
1759737543.59697,0.48722,-1.682226,-9.766547,-0.131973,0.26017,-1.1722,1,WALK
1759737543.61663,0.527173,-1.600823,-10.134356,-0.132819,-0.0001,-1.08302,1,WALK
1759737543.63697,0.238672,-1.65185,-10.411036,-0.052015,-0.159889,-1.009683,1,WALK
1759737543.65694,-0.05776,-1.604414,-10.313921,0.047759,-0.229013,-0.983472,1,WALK
1759737543.67697,-0.252439,-1.653047,-9.946711,0.106094,-0.247916,-1.048041,1,WALK
1759737543.69698,-0.240617,-1.656937,-9.719262,0.1736,-0.296555,-1.105433,1,WALK
1759737543.71663,-0.01257,-1.758391,-9.260024,0.236782,-0.421326,-1.129931,1,WALK
1759737543.73697,0.050428,-1.940052,-8.911219,0.225236,-0.435573,-1.135006,1,WALK
1759737543.75694,0.001496,-2.153135,-8.970475,0.260123,-0.314517,-1.124476,1,WALK
1759737543.77696,0.23942,-2.234688,-8.981698,0.318618,-0.209214,-1.082305,1,WALK
1759737543.79695,0.493954,-2.420388,-8.955362,0.324103,-0.113051,-1.021813,1,WALK
1759737543.81665,0.815076,-2.525583,-9.169643,0.301739,-0.054697,-0.899347,1,WALK
1759737543.83697,1.03235,-2.547131,-9.373449,0.271283,-0.066613,-0.738328,1,WALK
1759737543.85694,1.279701,-2.447024,-9.650428,0.226984,-0.025619,-0.58722,1,WALK
1759737543.87697,1.398513,-2.335544,-9.859622,0.188531,-0.063262,-0.425534,1,WALK
1759737543.89697,1.453879,-2.135029,-9.76116,0.125676,-0.204724,-0.306435,1,WALK
1759737543.91666,1.081581,-2.416947,-9.745149,0.025612,-0.258235,-0.275354,1,WALK
1759737543.93696,1.18094,-2.417096,-9.97185,-0.131907,-0.018149,-0.204966,1,WALK
1759737543.95694,1.358859,-2.521244,-10.387244,-0.270457,0.131672,-0.09527,1,WALK
1759737543.97697,2.197877,-2.041506,-10.71076,-0.471786,0.164589,0.084317,1,WALK
1759737543.99695,2.333598,-1.807622,-11.215338,-0.665514,-0.01091,0.248375,1,WALK
1759737544.01667,1.87466,-1.22643,-11.535563,-0.536347,-0.451402,0.272088,1,WALK
1759737544.03696,1.106869,-0.833332,-10.915914,-0.177072,-0.79948,-0.01564,1,WALK
1759737544.05694,0.478391,-1.108665,-9.594015,0.152477,-0.920235,-0.473297,1,WALK
1759737544.07696,0.451606,-1.624466,-8.54715,0.305497,-0.748878,-0.71393,1,WALK
1759737544.09696,0.703147,-2.023998,-8.232911,0.382342,-0.356142,-0.726366,1,WALK
1759737544.11668,1.038036,-2.239177,-8.326734,0.438683,0.119453,-0.52329,1,WALK
1759737544.13696,1.662923,-2.239027,-8.445097,0.369225,0.410777,-0.167754,1,WALK
1759737544.15694,2.087893,-2.114828,-8.504952,0.154007,0.327468,0.139886,1,WALK
1759737544.17697,1.865981,-1.869273,-8.704569,-0.10868,0.031647,0.306829,1,WALK
1759737544.19696,1.402853,-1.525406,-9.025093,-0.292314,-0.189106,0.348548,1,WALK
1759737544.21670,0.733524,-1.423503,-9.434052,-0.291893,-0.278595,0.249312,1,WALK
1759737544.23696,0.371251,-1.348833,-9.586982,-0.112798,-0.283974,0.073276,1,WALK
1759737544.25675,0.325013,-1.526752,-9.373898,0.036393,-0.207223,-0.099898,1,WALK
1759737544.27697,0.56563,-1.906233,-9.143307,0.057832,-0.095546,-0.196147,1,WALK
1759737544.29659,0.893187,-2.236334,-9.033323,-0.007431,-0.104949,-0.201049,1,WALK
1759737544.31672,0.974889,-2.444779,-9.099163,-0.079677,-0.169942,-0.184748,1,WALK
1759737544.33696,0.926406,-2.522291,-9.250447,-0.0979,-0.266315,-0.154192,1,WALK
1759737544.35694,0.71018,-2.538003,-9.428067,-0.026083,-0.320924,-0.126702,1,WALK
1759737544.37696,0.35943,-2.532168,-9.494955,0.025917,-0.161086,-0.127355,1,WALK
1759737544.39696,0.162058,-2.577208,-9.771635,0.019249,-0.002861,-0.136106,1,WALK
1759737544.41674,0.178817,-2.400038,-10.165182,0.003001,-0.039537,-0.146999,1,WALK
1759737544.43696,0.015263,-2.261323,-10.675745,0.033819,-0.13059,-0.239476,1,WALK
1759737544.45693,-0.104148,-2.007538,-11.141717,0.178699,-0.110564,-0.393242,1,WALK
1759737544.47695,0.018555,-1.914613,-11.266814,0.368437,-0.077672,-0.530924,1,WALK
1759737544.49696,0.202909,-2.25863,-11.186458,0.45468,0.043473,-0.612233,1,WALK
1759737544.51675,0.594959,-2.374449,-10.884639,0.413044,0.154588,-0.53211,1,WALK
1759737544.53696,0.758363,-2.477101,-10.786327,0.273067,0.093567,-0.384105,1,WALK
1759737544.55602,0.877325,-1.980603,-10.822689,0.145919,-0.057101,-0.264702,1,WALK
1759737544.57696,0.662895,-1.464204,-10.557382,0.180976,-0.326129,-0.31068,1,WALK
1759737544.59696,0.197821,-1.286883,-9.794829,0.360858,-0.538351,-0.505792,1,WALK
1759737544.61676,-0.112976,-1.547253,-8.55149,0.464929,-0.60292,-0.717508,1,WALK
1759737544.63695,-0.364368,-2.011578,-7.693917,0.440927,-0.424764,-0.843534,1,WALK
1759737544.65693,-0.392499,-2.423082,-7.570017,0.297453,-0.048006,-0.789694,1,WALK
1759737544.67700,-0.204704,-2.645742,-7.820061,0.147607,0.213465,-0.617885,1,WALK
1759737544.69695,0.212186,-2.601899,-8.18787,0.045019,0.26819,-0.432371,1,WALK
1759737544.71678,0.392649,-2.3948,-8.45243,-0.047947,0.224856,-0.292515,1,WALK
1759737544.73695,0.273089,-2.26671,-8.652645,-0.129858,0.169031,-0.207656,1,WALK
1759737544.75693,0.146196,-2.137872,-8.958205,-0.165542,0.116756,-0.183926,1,WALK
1759737544.77698,0.031274,-2.05213,-9.049035,-0.160226,0.041562,-0.191065,1,WALK
1759737544.79695,-0.140061,-2.121412,-9.066842,-0.138056,-0.031919,-0.213297,1,WALK
1759737544.81679,-0.121805,-2.079215,-9.198822,-0.07608,-0.064493,-0.22788,1,WALK
1759737544.83696,-0.23119,-2.164508,-9.138069,0.00355,-0.051449,-0.259176,1,WALK
1759737544.85692,-0.122104,-2.350657,-9.011326,0.045713,-0.040474,-0.300863,1,WALK
1759737544.87695,0.069581,-2.548328,-8.923339,0.040512,-0.068933,-0.288289,1,WALK
1759737544.89696,0.179864,-2.736273,-8.974665,0.043313,-0.074696,-0.239086,1,WALK
1759737544.91682,0.208894,-2.843563,-9.181763,0.073617,-0.002777,-0.166338,1,WALK
1759737544.93695,0.346411,-2.835333,-9.233987,0.110801,-0.010477,-0.081214,1,WALK
1759737544.95693,0.304662,-2.925116,-9.245359,0.084319,0.005827,-0.015566,1,WALK
1759737544.97697,0.314389,-2.848352,-9.351153,0.014581,0.064668,0.066188,1,WALK
1759737544.99695,0.430956,-2.835633,-9.447969,-0.066485,0.028618,0.140239,1,WALK
1759737545.01683,0.626682,-2.657713,-9.602544,-0.161267,-0.028308,0.221331,1,WALK
1759737545.03699,0.572962,-2.690634,-9.750835,-0.21511,-0.13642,0.260551,1,WALK
1759737545.05604,0.261866,-2.825457,-9.805603,-0.243371,-0.154929,0.257986,1,WALK
1759737545.07695,0.516549,-2.709787,-9.894188,-0.43642,0.132658,0.328739,1,WALK
1759737545.09700,0.836474,-2.574066,-10.559028,-0.593971,0.275188,0.457557,1,WALK
1759737545.11682,1.248875,-1.943493,-11.091738,-0.637242,0.272744,0.583959,1,WALK
1759737545.13693,1.167622,-1.561768,-11.264868,-0.48736,-0.000081,0.575414,1,WALK
1759737545.15692,0.880917,-1.115548,-10.678588,-0.144632,-0.378979,0.350801,1,WALK
1759737545.17692,0.126144,-1.327286,-9.192388,0.166124,-0.686543,-0.028165,1,WALK
1759737545.19695,-0.149338,-1.63943,-8.466645,0.217354,-0.728427,-0.181511,1,WALK
1759737545.21687,-0.03292,-2.058864,-7.823952,0.173052,-0.479264,-0.357066,1,WALK
1759737545.23695,0.206799,-2.379388,-8.220192,0.088801,0.009886,-0.282075,1,WALK
1759737545.25692,0.779612,-2.41156,-8.952668,0.121133,0.366437,0.002298,1,WALK
1759737545.27694,1.515979,-2.129044,-9.303568,0.11091,0.491388,0.303138,1,WALK
1759737545.29596,1.671901,-1.994819,-9.339781,-0.073463,0.287241,0.473829,1,WALK
1759737545.31687,1.33791,-1.679832,-9.409961,-0.268614,-0.076239,0.549235,1,WALK
1759737545.33692,0.714071,-1.56476,-9.45964,-0.32165,-0.368694,0.445926,1,WALK
1759737545.35692,0.162955,-1.537377,-9.515306,-0.221805,-0.338132,0.237862,1,WALK
1759737545.37693,0.129137,-1.823484,-9.242067,-0.061444,-0.215839,0.080645,1,WALK
1759737545.39693,0.24376,-2.194735,-9.051728,0.014902,-0.082433,0.037657,1,WALK
1759737545.41688,0.51191,-2.358588,-9.149891,-0.016397,0.011979,0.06297,1,WALK
1759737545.43692,0.571017,-2.461987,-9.471611,-0.054104,-0.003569,0.063741,1,WALK
1759737545.45613,0.620996,-2.418144,-9.721057,-0.025855,-0.111569,0.00182,1,WALK
1759737545.47693,0.702549,-2.441487,-9.79034,0.054786,-0.238357,-0.062442,1,WALK
1759737545.49694,0.683096,-2.626589,-9.510667,0.115826,-0.359454,-0.063521,1,WALK
1759737545.51690,0.431854,-2.720711,-9.351602,0.110897,-0.270805,-0.016995,1,WALK
1759737545.53694,0.220117,-2.650381,-9.60015,0.071522,-0.097847,0.044345,1,WALK
1759737545.55658,0.261267,-2.310854,-9.874735,0.059625,-0.134711,0.047632,1,WALK
1759737545.57695,0.009726,-2.098667,-10.179697,0.125035,-0.231102,-0.072385,1,WALK
1759737545.59694,-0.616806,-2.482937,-10.078542,0.209296,-0.23481,-0.237707,1,WALK
1759737545.61692,-0.139313,-2.417395,-10.199,0.073311,0.371311,-0.222615,1,WALK
1759737545.63694,0.442029,-2.467075,-11.524789,-0.14644,1.007799,0.024118,1,WALK
1759737545.65691,1.355866,-1.522712,-12.359019,-0.118374,0.760703,0.352499,1,WALK
1759737545.67694,1.114501,-0.934786,-11.906963,0.141289,-0.111955,0.383738,1,WALK
1759737545.69694,0.104597,-0.764648,-9.704597,0.225271,-0.855811,-0.0144,1,WALK
1759737545.71693,-0.865055,-1.222689,-8.359654,0.161276,-0.943147,-0.487633,1,WALK
1759737545.73693,-1.224933,-1.66816,-7.807941,0.194653,-0.609267,-0.72059,1,WALK
1759737545.75691,-1.108515,-2.428319,-7.804349,0.214229,-0.169206,-0.701179,1,WALK
1759737545.77694,-0.445172,-2.685396,-7.921515,0.155655,0.142364,-0.430575,1,WALK
1759737545.79694,0.234183,-2.589479,-8.334665,0.003078,0.402433,-0.036463,1,WALK
1759737545.81695,0.587477,-2.163161,-8.698135,-0.156944,0.449773,0.283607,1,WALK
1759737545.83695,0.560692,-1.616685,-9.078813,-0.254436,0.32404,0.443559,1,WALK
1759737545.85691,0.111181,-1.489642,-9.2081,-0.290185,0.034659,0.424799,1,WALK
1759737545.87694,-0.334739,-1.455824,-9.19149,-0.296764,-0.172668,0.244259,1,WALK
1759737545.89608,-0.596007,-1.495777,-9.314043,-0.215684,-0.159574,0.068309,1,WALK
1759737545.91693,-0.559196,-1.637933,-9.1665,-0.083133,-0.016311,0.01301,1,WALK
1759737545.93693,-0.449362,-1.857302,-9.264812,-0.003568,0.244934,0.026933,1,WALK
1759737545.95691,-0.181211,-1.920748,-9.277681,0.010572,0.28555,0.072151,1,WALK
1759737545.97693,-0.135123,-2.150592,-9.261969,-0.02236,0.125488,0.035144,1,WALK
1759737545.99694,-0.046537,-2.242619,-9.267805,-0.045,0.020412,0.001157,1,WALK
1759737546.01693,-0.03696,-2.422184,-9.272893,-0.024366,0.041839,0.046512,1,WALK
1759737546.03694,-0.135871,-2.544737,-9.435399,0.005669,0.139168,0.118602,1,WALK
1759737546.05691,-0.162656,-2.59741,-9.392453,0.013672,0.067282,0.21306,1,WALK
1759737546.07700,-0.323816,-2.668188,-9.492261,-0.042188,-0.021515,0.2524,1,WALK
1759737546.09694,-0.308253,-2.563442,-9.711181,-0.115803,-0.096727,0.280182,1,WALK
1759737546.11693,-0.282366,-2.410213,-9.993547,-0.106122,-0.121986,0.31757,1,WALK
1759737546.13693,-0.30152,-2.34138,-10.200047,-0.088654,-0.072276,0.376428,1,WALK
1759737546.15620,-0.323367,-2.22556,-10.251822,-0.06953,-0.102415,0.415729,1,WALK
1759737546.17693,-0.795922,-2.482039,-10.295366,-0.083865,-0.084483,0.368495,1,WALK
1759737546.19694,0.047585,-1.94903,-10.497228,-0.261938,0.253996,0.434178,1,WALK
1759737546.21693,0.453252,-1.902193,-11.091289,-0.473344,0.357845,0.632356,1,WALK
1759737546.23693,0.746093,-1.026364,-11.327866,-0.489637,0.049256,0.800436,1,WALK
1759737546.25606,0.143353,-0.537947,-10.922198,-0.28218,-0.271947,0.702656,1,WALK
1759737546.27693,-0.574608,-0.422876,-9.875783,0.041881,-0.359272,0.324292,1,WALK
1759737546.29655,-0.886004,-0.816572,-8.569446,0.275378,-0.297982,-0.062281,1,WALK
1759737546.31693,-0.709282,-1.421258,-7.938425,0.371514,-0.083252,-0.323817,1,WALK
1759737546.33693,-0.121506,-1.94499,-8.048857,0.233961,0.276511,-0.320836,1,WALK
1759737546.35625,0.514155,-2.309806,-8.45662,0.011091,0.449796,-0.0749,1,WALK
1759737546.37693,1.207575,-2.114978,-9.458443,-0.206831,0.549915,0.304027,1,WALK
1759737546.39693,1.291821,-1.621024,-10.140641,-0.312542,0.3413,0.602816,1,WALK
1759737546.41681,0.739359,-1.217003,-10.105925,-0.305525,-0.099057,0.646256,1,WALK
1759737546.43694,-0.171335,-1.149666,-9.747094,-0.272906,-0.292191,0.399247,1,WALK
1759737546.45691,-0.636558,-1.211616,-9.511415,-0.260737,-0.176035,0.126942,1,WALK
1759737546.47697,-0.531363,-1.49054,-9.648034,-0.193149,0.002173,-0.01691,1,WALK
1759737546.49693,-0.15263,-1.594688,-9.896582,-0.049407,0.107493,-0.070375,1,WALK
1759737546.51694,0.040253,-1.774103,-9.847202,0.060387,0.106467,-0.09379,1,WALK
1759737546.53694,0.177021,-1.919701,-9.706393,0.073576,0.081857,-0.111834,1,WALK
1759737546.55691,0.25618,-2.000206,-9.766397,0.040695,0.072296,-0.129721,1,WALK
1759737546.57696,0.502633,-1.989582,-9.896732,0.032055,-0.004507,-0.113024,1,WALK
1759737546.59694,0.575805,-1.91985,-10.033052,0.061554,-0.094964,-0.085521,1,WALK
1759737546.61694,0.377236,-1.923891,-10.019884,0.104919,-0.15899,-0.083348,1,WALK
1759737546.63694,0.115969,-1.910723,-9.914389,0.137705,-0.210121,-0.112479,1,WALK
1759737546.65690,-0.062848,-1.828123,-9.969755,0.153667,-0.201534,-0.196331,1,WALK
1759737546.67691,-0.137667,-1.697938,-10.006267,0.225282,-0.230335,-0.298587,1,WALK
1759737546.69693,-0.374992,-1.767819,-9.921422,0.328881,-0.227702,-0.430632,1,WALK
1759737546.71695,-0.530166,-2.024447,-9.43929,0.364363,-0.20322,-0.588902,1,WALK
1759737546.73695,-0.505775,-2.352004,-9.083751,0.282401,0.000696,-0.701718,1,WALK
1759737546.75690,-0.125247,-2.519598,-9.186252,0.050482,0.290214,-0.609214,1,WALK
1759737546.77693,0.027833,-2.536657,-10.140342,-0.162325,0.452593,-0.384249,1,WALK
1759737546.79693,0.131831,-2.022203,-10.908132,-0.194111,0.292686,-0.244195,1,WALK
1759737546.81693,-0.268899,-1.541267,-11.007342,-0.074085,-0.076639,-0.311785,1,WALK
1759737546.83693,-0.789937,-1.163432,-10.543166,0.075508,-0.145645,-0.579473,1,WALK
1759737546.85690,-0.909198,-1.175703,-9.969007,0.203143,-0.025748,-0.837176,1,WALK
1759737546.87693,-0.531662,-1.578228,-9.52997,0.303345,0.066558,-0.94036,1,WALK
1759737546.89693,-0.277877,-1.882291,-9.32347,0.336429,0.147403,-0.879839,1,WALK
1759737546.91665,-0.189441,-2.095375,-9.355044,0.306572,0.229929,-0.736797,1,WALK
1759737546.93692,-0.144999,-1.949179,-9.712977,0.265896,0.358706,-0.618905,1,WALK
1759737546.95690,0.054767,-1.687463,-9.69502,0.215454,0.247012,-0.549597,1,WALK
1759737546.97693,0.050129,-1.577779,-9.815628,0.176305,0.112843,-0.514024,1,WALK
1759737546.99693,0.049081,-1.405546,-9.578153,0.18742,-0.088873,-0.459233,1,WALK
1759737547.01692,-0.240019,-1.497872,-9.048137,0.177786,-0.254224,-0.450271,1,WALK
1759737547.03692,-0.54917,-1.564162,-8.432528,0.079704,-0.350169,-0.463831,1,WALK
1759737547.05689,-0.786795,-1.656339,-8.134599,-0.002731,-0.420588,-0.534473,1,WALK
1759737547.07692,-0.837971,-1.716942,-8.125023,-0.037408,-0.343539,-0.611732,1,WALK
1759737547.09682,-0.795174,-1.871368,-8.506898,0.010515,-0.131555,-0.640769,1,WALK
1759737547.11692,-0.615459,-1.943942,-8.842685,0.123727,0.007155,-0.624518,1,WALK
1759737547.13689,-0.476296,-2.117821,-9.006987,0.197008,0.066181,-0.620278,1,WALK
1759737547.15689,-0.368857,-2.195932,-9.330653,0.15839,0.108593,-0.591112,1,WALK
1759737547.17693,-0.288801,-2.240225,-9.64968,0.146399,0.048095,-0.5917,1,WALK
1759737547.19614,-0.239121,-2.236633,-9.714024,0.135876,-0.183778,-0.618365,1,WALK
1759737547.21691,-0.381875,-2.44448,-9.785252,0.138287,-0.287712,-0.631437,1,WALK
1759737547.23690,-0.506523,-2.55177,-9.670031,0.139946,-0.253575,-0.591536,1,WALK
1759737547.25689,-0.594361,-2.634071,-9.91813,0.144818,-0.159834,-0.588099,1,WALK
1759737547.27690,-0.530016,-2.529025,-10.017639,0.191865,-0.191976,-0.584397,1,WALK
1759737547.29692,-0.680103,-2.554015,-9.855731,0.211892,-0.279335,-0.618852,1,WALK
1759737547.31692,-1.195754,-2.802563,-9.608231,0.14951,-0.277534,-0.725263,1,WALK
1759737547.33691,-0.97863,-2.806304,-9.721207,0.037135,-0.008567,-0.816585,1,WALK
1759737547.35684,-0.103998,-2.597709,-10.373178,-0.232159,0.382748,-0.642537,1,WALK
1759737547.37690,0.23523,-2.125752,-11.535413,-0.314572,0.35282,-0.376021,1,WALK
1759737547.39691,0.246004,-1.203984,-11.787553,-0.119719,-0.146462,-0.355874,1,WALK
1759737547.41649,-0.383671,-0.708235,-11.00809,0.209927,-0.660557,-0.739546,1,WALK
1759737547.43693,-1.279551,-0.9291,-9.58354,0.387884,-0.803747,-1.270587,1,WALK
1759737547.45642,-1.552341,-1.515081,-8.851812,0.465717,-0.539814,-1.603797,1,WALK
1759737547.47691,-1.237204,-1.879149,-8.616133,0.476258,-0.215481,-1.681881,1,WALK
1759737547.49691,-0.759261,-2.129942,-8.64621,0.445007,-0.03977,-1.610561,1,WALK
1759737547.51691,-0.26022,-2.116474,-8.940398,0.364189,0.096462,-1.506533,1,WALK
1759737547.53691,0.212186,-1.94469,-9.027038,0.244934,0.020008,-1.44193,1,WALK
1759737547.55646,0.25588,-1.875558,-9.312996,0.18974,-0.170022,-1.445573,1,WALK
1759737547.57691,0.246154,-1.859397,-9.042151,0.143611,-0.521041,-1.423606,1,WALK
1759737547.59692,-0.121805,-1.926734,-8.869919,-0.001573,-0.600793,-1.414054,1,WALK
1759737547.61691,-0.469264,-1.832163,-8.930223,-0.069506,-0.554003,-1.431403,1,WALK
1759737547.63690,-0.570568,-1.595586,-9.147646,-0.021286,-0.484252,-1.488844,1,WALK
1759737547.65688,-0.698808,-1.608455,-9.144803,0.042112,-0.462735,-1.600306,1,WALK
1759737547.67691,-0.643442,-1.68477,-9.007735,0.030567,-0.464728,-1.705344,1,WALK
1759737547.69691,-0.455647,-1.846678,-9.107543,-0.042757,-0.393019,-1.767851,1,WALK
1759737547.71691,-0.225803,-1.905336,-9.693374,-0.049278,-0.300084,-1.759837,1,WALK
1759737547.73590,-0.021099,-1.835904,-10.150368,0.018479,-0.312185,-1.724837,1,WALK
1759737547.75688,0.167594,-1.813608,-10.398766,0.092841,-0.486996,-1.701603,1,WALK
1759737547.77691,0.21877,-1.672948,-10.340407,0.094111,-0.666531,-1.666671,1,WALK
1759737547.79691,-0.136918,-1.553238,-10.191368,0.086471,-0.756174,-1.671122,1,WALK
1759737547.81699,-0.493206,-1.312621,-10.094702,0.19802,-0.698771,-1.717897,1,WALK
1759737547.83592,-0.881216,-1.240346,-9.754127,0.282614,-0.597414,-1.812326,1,WALK
1759737547.85617,-1.170016,-1.547402,-9.725995,0.270563,-0.366608,-1.956175,1,WALK
1759737547.87691,-0.714968,-1.43278,-10.142138,0.224508,-0.119488,-1.978777,1,WALK
1759737547.89691,-0.412701,-1.389086,-10.536433,0.227586,-0.18938,-1.94239,1,WALK
1759737547.91635,-0.333542,-1.110461,-10.411336,0.200186,-0.48613,-1.959358,1,WALK
1759737547.93594,-0.593612,-1.076493,-9.950302,0.1335,-0.803032,-2.081687,1,WALK
1759737547.95688,-0.787543,-0.998083,-9.785701,0.084818,-0.748321,-2.208839,1,WALK
1759737547.97693,-0.871789,-1.158195,-9.831639,0.156677,-0.557652,-2.22437,1,WALK
1759737547.99691,-0.652869,-1.209371,-9.537452,0.240137,-0.542503,-2.171738,1,WALK
1759737548.01698,-0.761506,-1.373972,-9.036914,0.189262,-0.593055,-2.138892,1,WALK
1759737548.03595,-0.928202,-1.442207,-8.801534,0.081015,-0.546855,-2.124815,1,WALK
1759737548.05650,-0.95394,-1.447445,-9.110536,0.010382,-0.375717,-2.079828,1,WALK
1759737548.07691,-0.756418,-1.371728,-9.585186,0.003327,-0.313248,-2.007277,1,WALK
1759737548.09690,-0.542436,-1.269974,-9.693075,0.006285,-0.467056,-1.96715,1,WALK
1759737548.11693,-0.541389,-1.277905,-9.766397,-0.017047,-0.554564,-1.944067,1,WALK
1759737548.13598,-0.652719,-1.194108,-9.939379,0.015112,-0.559154,-1.913703,1,WALK
1759737548.15688,-0.749834,-1.274015,-9.902119,0.088479,-0.582182,-1.911939,1,WALK
1759737548.17690,-0.784101,-1.377115,-9.664345,0.136695,-0.54301,-1.924261,1,WALK
1759737548.19696,-0.633266,-1.539621,-9.299079,0.148756,-0.483543,-1.904821,1,WALK
1759737548.21690,-0.419883,-1.780089,-9.362226,0.122598,-0.34434,-1.846893,1,WALK
1759737548.23598,-0.060304,-1.874959,-9.524733,0.140084,-0.336049,-1.736284,1,WALK
1759737548.25688,0.127791,-2.004545,-9.6621,0.167766,-0.430629,-1.637313,1,WALK
1759737548.27592,0.12794,-2.173187,-9.733028,0.196256,-0.53587,-1.542,1,WALK
1759737548.29690,0.072574,-2.26267,-9.735871,0.204209,-0.525476,-1.442594,1,WALK
1759737548.31690,0.143652,-2.420837,-9.825504,0.147317,-0.464081,-1.294324,1,WALK
1759737548.33599,0.191985,-2.399589,-10.208726,0.159633,-0.467976,-1.124892,1,WALK
1759737548.35688,0.154426,-2.25863,-10.19062,0.177744,-0.559679,-1.006452,1,WALK
1759737548.37695,-0.062698,-2.231097,-9.989806,0.17517,-0.633068,-0.968367,1,WALK
1759737548.39690,-0.335787,-2.337339,-9.845556,0.212845,-0.655653,-0.961179,1,WALK
1759737548.41675,-0.336834,-2.435502,-9.462783,0.182769,-0.621291,-0.918518,1,WALK
1759737548.43603,-0.278027,-2.601001,-9.434352,0.071378,-0.534778,-0.837961,1,WALK
1759737548.45687,-0.356137,-2.557905,-9.748291,-0.021455,-0.425156,-0.724349,1,WALK
1759737548.47656,-0.189441,-2.249203,-10.013748,-0.088808,-0.408848,-0.649091,1,WALK
1759737548.49690,-0.170886,-1.834407,-10.275914,-0.082678,-0.488442,-0.694375,1,WALK
1759737548.51690,-0.096217,-1.620875,-10.155455,-0.004727,-0.632627,-0.793303,1,WALK
1759737548.53603,-0.303166,-1.765873,-9.693973,0.058137,-0.660327,-0.895816,1,WALK
1759737548.55646,-0.415244,-1.972074,-9.269002,0.087693,-0.535517,-0.974375,1,WALK
1759737548.57689,-0.28506,-2.149993,-9.049633,0.04442,-0.43362,-0.992878,1,WALK
1759737548.59690,0.031424,-2.106449,-9.231443,-0.057833,-0.298323,-0.978576,1,WALK
1759737548.61690,0.10325,-2.000804,-9.519645,-0.052146,-0.257203,-0.955982,1,WALK
1759737548.63604,0.196474,-1.836053,-9.610475,-0.072757,-0.220572,-0.929363,1,WALK
1759737548.65687,0.191835,-1.646612,-9.685743,-0.130009,-0.184123,-0.956,1,WALK
1759737548.67694,0.091279,-1.433977,-9.6829,-0.140296,-0.206008,-0.999139,1,WALK
1759737548.69691,-0.244508,-1.320552,-9.833884,-0.096556,-0.141709,-1.11905,1,WALK
1759737548.71689,-0.303764,-1.208024,-9.865458,0.018952,-0.097719,-1.285541,1,WALK
1759737548.73606,-0.184354,-1.359009,-9.63726,0.093505,-0.111903,-1.415585,1,WALK
1759737548.75626,-0.009427,-1.567454,-9.412505,0.089529,-0.092932,-1.47961,1,WALK
1759737548.77691,0.116867,-1.83321,-9.370905,0.098133,-0.052193,-1.471279,1,WALK
1759737548.79690,0.283114,-2.016816,-9.216479,0.097051,-0.074987,-1.425777,1,WALK
1759737548.81689,0.402675,-2.163012,-9.008782,0.046697,-0.149854,-1.38291,1,WALK
1759737548.83612,0.36332,-2.28332,-8.924536,-0.01029,-0.230404,-1.326783,1,WALK
1759737548.85687,0.259921,-2.352004,-9.005041,-0.015734,-0.240039,-1.260539,1,WALK
1759737548.87689,0.159514,-2.384176,-8.996512,-0.005719,-0.222018,-1.19287,1,WALK
1759737548.89690,-0.027833,-2.447173,-9.030779,-0.022168,-0.160284,-1.171203,1,WALK
1759737548.91690,0.037858,-2.389413,-9.242516,-0.057741,-0.144065,-1.148035,1,WALK
1759737548.93689,0.154426,-2.375647,-9.565733,-0.054675,-0.258694,-1.147299,1,WALK
1759737548.95687,0.173131,-2.318635,-9.791237,-0.046468,-0.330692,-1.140408,1,WALK
