SamplingTime, AccelerationX, AccelerationY, AccelerationZ, GyroX, GyroY, GyroZ, MagneticFieldX, MagneticFieldY, MagneticFieldZ
1759223389.020662, 0.953341, 4.770896, -9.640253, 0.410376, 0.480973, 0.009540, -46.652008, -54.795227, -148.176437
1759223389.040745, 0.529418, 4.283676, -8.720580, 0.521337, 0.337544, -0.069327, -46.242996, -55.315002, -147.607376
1759223389.060586, -0.044592, 4.318242, -8.715044, 0.674511, 0.195277, -0.238011, -46.535187, -55.247009, -146.991058
1759223389.080342, -0.778864, 4.835390, -8.085818, 0.583470, -0.027219, -0.552676, -45.839706, -55.412933, -146.410431
1759223389.100695, -1.324592, 5.454740, -8.539519, 0.285937, -0.457977, -1.223350, -45.584793, -55.219330, -146.781525
1759223389.120688, -1.864185, 6.357503, -10.600178, 0.572424, -0.972872, -2.229462, -44.872223, -55.702301, -146.208496
1759223389.139762, 0.044442, 4.760720, -12.816311, 1.628490, -0.986293, -2.257257, -43.735596, -55.965210, -145.676666
1759223389.160725, 0.671274, 4.720169, -9.531466, 1.685953, -0.754850, -1.931184, -43.239746, -56.149017, -145.194580
1759223389.180678, -0.110732, 2.780566, -7.038654, 0.790796, -1.379293, -1.762246, -42.256241, -56.083023, -144.505219
1759223389.199711, 2.234538, 2.853140, -5.614403, -0.307031, -1.323532, -1.298232, -42.527802, -55.625488, -145.033981
1759223389.220726, -3.492991, 2.077718, -7.703045, -0.445293, -1.200343, -1.520819, -42.344086, -54.806961, -145.733078
1759223389.240858, -3.083432, 0.382324, -7.902811, -0.536875, -0.512855, -1.927621, -41.258377, -54.239563, -145.793976
1759223389.260772, 0.944662, 1.915212, -8.739884, -0.240698, -0.190727, -1.180849, -40.647766, -53.712448, -146.487259
1759223389.280718, -3.416077, 3.541174, -10.735750, -0.171859, -0.346008, -1.260175, -40.278687, -53.227585, -147.046295
1759223389.300700, -3.900005, 4.789900, -11.344925, -0.441269, -1.436359, -1.575706, -40.353058, -52.406876, -147.282379
1759223389.320685, -2.380435, 2.644695, -9.062951, -0.518192, -1.607705, -1.427943, -40.249313, -51.835190, -147.617798
1759223389.340723, -1.072752, 1.039832, -7.035362, -0.041135, -0.508899, -0.996412, -40.018143, -51.268433, -148.506134
1759223389.360781, -0.072874, 0.895731, -5.957073, 0.010437, 0.519652, -0.296178, -39.950912, -51.423813, -148.483932
1759223389.380491, 0.344765, 4.305223, -8.987983, 0.131061, 0.583250, 0.810431, -39.458862, -51.412186, -148.016891
1759223389.400710, -8.976012, 6.503699, -9.127744, -0.259030, -0.585822, -0.323725, -39.983627, -51.494110, -147.961182
1759223389.420703, 0.080655, 3.798999, -7.879767, -0.868678, -1.450499, -0.188920, -40.353622, -50.998352, -148.821426
1759223389.440703, -0.178518, -2.252196, -4.991910, -1.573642, -1.973716, -0.016796, -41.302124, -49.988632, -150.233200
1759223389.460886, 1.163432, 3.531148, -9.935338, -0.648654, -0.958846, 1.427796, -42.897812, -49.861343, -151.297058
1759223389.480675, -6.947075, 3.393631, -10.193164, -0.150313, -0.025773, 0.973537, -43.283386, -49.449432, -151.247894
1759223389.500690, -8.090307, 6.651541, -11.259182, -0.021777, -0.686516, 0.113622, -43.853638, -49.758499, -151.230026
1759223389.520681, -5.801600, 3.606715, -11.366323, 0.360366, -0.692167, -0.389449, -44.537201, -50.032196, -151.364410
1759223389.540709, -0.775422, -0.250643, -9.527426, 0.380655, -0.755510, 0.092491, -44.905609, -50.326157, -151.589539
1759223389.560779, 0.512658, -0.465971, -6.538565, -0.284437, -1.221387, 0.863609, -45.840073, -50.245651, -151.278595
1759223389.580530, -0.934337, 0.505625, -6.057330, -0.832099, -1.626320, 1.298251, -47.344009, -50.136887, -151.876251
1759223389.600684, -4.106654, 3.448847, -6.077980, -1.282755, -1.641597, 1.361089, -48.969894, -49.790863, -153.167938
1759223389.620674, -7.472303, 6.173748, -6.996157, -1.403402, -0.860537, 0.633909, -50.454178, -48.810684, -153.911377
1759223389.640706, -7.384915, 6.575525, -7.844153, -1.330015, -0.397188, -0.088764, -51.066757, -47.968033, -154.378891
1759223389.660688, -4.721964, 3.651606, -6.740575, -1.890754, -1.014254, -0.182096, -51.236938, -46.847900, -155.537186
1759223389.680692, -0.605583, 4.489427, -6.423493, -2.293094, -1.618971, 0.611917, -52.364594, -45.474991, -156.382660
1759223389.700873, -0.088885, 5.256470, -5.884199, -2.988415, -2.301047, 1.461808, -53.995728, -43.130783, -157.447250
1759223389.720714, -0.263362, 2.339434, -5.640141, -4.269417, -3.821901, 2.341082, -57.468765, -40.516037, -159.160904
1759223389.740712, -0.352097, 3.120243, -10.403405, -3.912941, -4.689232, 3.880533, -61.962448, -36.366730, -159.408539
1759223389.760691, -6.705860, 6.303334, -11.331756, -2.050338, -4.144869, 3.645289, -66.393173, -33.599457, -159.632263
1759223389.780100, -6.050447, 5.743989, -4.677821, -1.492232, -3.798902, 2.559955, -70.114761, -31.585114, -159.005859
1759223389.800683, -4.881628, 9.150190, -1.694646, -1.032900, -2.179312, 2.814110, -72.874084, -29.826782, -158.209549
1759223389.820697, -6.225972, 5.778256, 1.922095, -1.212071, -0.378942, 3.189366, -74.227509, -27.784409, -157.420624
1759223389.840684, -6.205771, 6.637475, -0.414197, -1.461041, 3.330349, 1.527305, -72.919296, -25.863663, -158.310776
1759223389.860681, -4.739771, 8.427440, -1.591994, -2.379746, 3.472965, 0.167398, -69.979172, -24.182510, -159.545258
1759223389.880420, -3.132364, 7.753921, -1.879149, -2.117072, 2.562298, 0.089601, -67.555725, -22.249252, -160.370804
1759223389.900685, 1.028010, 9.412953, -14.372692, 1.602794, -0.550216, 0.442330, -66.414841, -21.891144, -160.196304
1759223389.920676, 0.544681, 9.804705, -7.488165, 2.307186, 1.998341, 1.794546, -66.518677, -23.382736, -160.274933
1759223389.940680, -0.921319, 9.621548, -5.844396, 2.083210, 1.768681, 1.879351, -64.115295, -24.768631, -160.884003
1759223389.960688, -0.915333, 7.160010, -4.990863, 1.898905, -0.616192, 1.357327, -63.578369, -26.829880, -161.039886
1759223389.980700, 0.568773, 8.237999, -4.037821, 0.723838, -0.817913, 1.683891, -64.117767, -27.690292, -160.724030
1759223390.000678, -0.835427, 13.394810, -8.645761, -0.326994, -0.882312, 1.840598, -64.929596, -27.552750, -161.051697
1759223390.020708, -6.877195, 12.728923, -3.894169, -1.202934, -1.084739, 0.911343, -66.038345, -26.708221, -161.157181
1759223390.040669, -8.911967, 10.816554, 2.158672, -1.563855, -1.985513, -0.367403, -66.748077, -25.443924, -160.595093
1759223390.060696, -5.884648, 9.156475, 3.174262, -1.553779, -2.373758, -0.562220, -68.400803, -24.417587, -160.297272
1759223390.080671, -0.225055, 7.949647, -2.026243, -1.090384, -0.945196, 0.336814, -69.672501, -23.426086, -159.742447
1759223390.100711, 2.527080, 6.947824, -4.931008, -0.735811, 1.143366, 1.780000, -69.246765, -22.359695, -159.730606
1759223390.120687, 0.620547, 3.986046, 2.083704, -1.545545, 1.134106, 2.073685, -67.743423, -21.016663, -159.961807
1759223390.140691, -0.835726, 3.790769, 5.111770, -2.505207, -0.083409, 1.573213, -67.380936, -19.088593, -159.628281
1759223390.160703, -1.480814, 5.025729, 4.304475, -2.906986, -1.920282, 0.915849, -68.599731, -16.957764, -159.483765
1759223390.180681, -1.050755, 5.159804, 2.777573, -2.698680, -3.197271, 0.614868, -72.075241, -12.506622, -157.223892
1759223390.200689, 0.710928, 7.229142, 4.684704, -3.025950, -3.179820, 1.152264, -74.084778, -9.701324, -154.958252
1759223390.220698, 5.153070, 17.031602, 5.547665, -2.613156, -2.796068, 3.397691, -74.696899, -6.872269, -153.430450
1759223390.240676, 7.550414, 28.556541, 5.593154, -0.899796, -1.782285, 5.639570, -73.697281, -4.283768, -153.251984
1759223390.260691, 0.322319, 22.479908, -3.731962, 2.086815, 0.010827, 4.373011, -72.179474, -5.275299, -154.568787
1759223390.280673, -2.073828, 12.434885, -1.251120, 3.137816, 0.469657, 2.174780, -71.137634, -6.074020, -155.044846
1759223390.300795, -2.362329, 6.573730, -4.110844, 1.463690, -0.250881, 0.569596, -71.165924, -7.155197, -155.393982
1759223390.320658, 0.225205, 7.112275, 0.615459, -1.778164, 1.460821, 0.175174, -69.852173, -5.914429, -155.091370
1759223390.340611, 0.731878, 9.607782, 1.234211, -1.962986, 2.488199, -0.528392, -68.049301, -4.892105, -154.654831
1759223390.360674, 1.341800, 8.896704, 0.534206, -1.697822, 2.613137, -0.701857, -66.418900, -4.009460, -154.638428
1759223390.380679, 2.694824, 8.130858, -1.897554, -1.193162, 0.782613, -0.198530, -66.225357, -2.923126, -154.811432
1759223390.400683, 2.217031, 8.789862, -0.287903, -1.100076, -0.846151, 0.080753, -66.907410, -2.152435, -153.753082
1759223390.420687, 1.444901, 9.000702, 0.521487, -1.219102, -1.147241, -0.158317, -67.696747, -1.590240, -153.191544
1759223390.440677, 2.324919, 9.130438, 0.463128, -1.369494, -0.786196, -0.244478, -68.453247, -0.423309, -152.304321
1759223390.460682, 2.794333, 8.715493, 0.452055, -1.466758, -0.471580, -0.101939, -68.748291, 0.005249, -151.706177
1759223390.480668, 2.378789, 8.160487, 0.830040, -1.477949, -0.364673, 0.127357, -68.749283, 1.355820, -150.800827
1759223390.500697, 1.960402, 8.672696, 0.412701, -1.272226, -0.286153, 0.228433, -69.242065, 1.642319, -150.371704
1759223390.520688, 1.821987, 11.149348, -0.263961, -1.091475, -0.417320, 0.136591, -69.256088, 2.295044, -149.187485
1759223390.540671, 1.251719, 12.765883, -0.552761, -1.055908, -0.875556, 0.092661, -69.623978, 2.963943, -148.258698
1759223390.560699, 0.613215, 12.252327, 0.263811, -0.719702, -0.964215, 0.069696, -70.392578, 3.333984, -148.060913
1759223390.580694, 1.126023, 13.206416, 0.516100, -0.554793, -1.038684, 0.189140, -70.684128, 3.910309, -146.808899
1759223390.599987, 0.644190, 13.569288, -0.171335, -0.815095, -0.922225, 0.426591, -71.324265, 4.264938, -145.880936
1759223390.620699, -0.464625, 12.505663, -1.474529, -0.788266, -0.626126, 0.575725, -71.169861, 4.858582, -145.241623
1759223390.640665, -0.658256, 11.632079, -4.139425, -0.111658, -0.599062, 0.480675, -71.547714, 4.987991, -144.948975
1759223390.660686, -2.570475, 13.474268, -2.555062, 0.978782, -0.618642, -0.042465, -71.617157, 4.461166, -145.647354
1759223390.680695, -3.301604, 13.449577, 1.212214, 1.521943, 0.103803, -0.609531, -72.272659, 3.723953, -145.833389
1759223390.700416, -1.532888, 11.798027, -1.344943, 2.225087, 0.707767, -0.914493, -72.296982, 2.041321, -147.034637
1759223390.720751, -0.379930, 12.821997, 0.733972, 2.386967, 0.723499, -1.319858, -72.987061, 0.428329, -148.239700
1759223390.740719, 1.065270, 12.092065, 3.952228, 2.049752, 0.807380, -1.623784, -73.402069, -1.194443, -148.809814
1759223390.760730, 3.930381, 13.973309, 3.501819, 1.867329, 1.661802, -1.372554, -72.945084, -2.984833, -150.324768
1759223390.780697, 6.804171, 16.740108, 4.859930, 1.423116, 1.734259, -0.431580, -72.102051, -4.213623, -151.201645
1759223390.800698, 7.768287, 16.656910, 4.650886, 1.307348, 0.978673, 0.415991, -71.331863, -4.755157, -152.192551
1759223390.820696, 6.409427, 14.671817, -3.672556, 3.099472, -1.137213, 0.552089, -71.396652, -5.802704, -152.515381
1759223390.840691, 6.578668, 11.031135, 3.321207, 3.233319, -0.786216, 0.406523, -72.333618, -8.146088, -153.336807
1759223390.860694, 4.045453, 8.580071, 5.058948, 3.317530, 0.949276, -0.300282, -71.944458, -10.148148, -154.536194
1759223390.880684, 3.514987, 7.688679, 2.025195, 4.254587, 0.621604, -0.659602, -71.455414, -12.607864, -155.521957
1759223390.900792, 3.258508, 7.653066, 2.773832, 4.679996, 0.042142, -0.749861, -71.038925, -16.350357, -156.680695
1759223390.920041, 3.129820, 6.715436, 2.218976, 4.579863, 0.136950, -0.680749, -71.401398, -20.084549, -157.359329
1759223390.940707, 2.989759, 4.812345, 0.553509, 3.769475, 1.036255, -0.614437, -70.938599, -23.239777, -157.640671
1759223390.960628, 3.111415, 3.603124, 1.833510, 2.409621, 1.256141, -0.385308, -70.016510, -25.589645, -157.661865
1759223390.980694, 3.501221, 2.442086, 2.183662, 1.444658, 0.852814, -0.079161, -69.377258, -26.774750, -158.365845
1759223391.000783, 2.959832, 1.510442, 1.872266, 1.016683, 0.754181, 0.073642, -68.958481, -27.254349, -158.222336
1759223391.020421, 1.347936, 1.252616, 1.885284, 0.560374, 0.608210, 0.003034, -68.548981, -28.177460, -158.498718
1759223391.040666, 0.624138, 1.359009, 0.679355, -0.218849, 0.439646, -0.192775, -67.975571, -28.071259, -158.556778
1759223391.059967, 0.550816, 2.096572, -2.947412, -1.136849, 0.851176, -0.161175, -67.605438, -27.515564, -158.813065
1759223391.080396, -1.151761, 5.510704, -8.169615, -1.784753, 1.204575, -0.280945, -66.862030, -26.114609, -159.054214
1759223391.100797, 0.227898, 10.889877, -17.510742, -0.851641, 1.374844, -0.219346, -66.029190, -25.229813, -159.606613
1759223391.120689, 3.260903, 19.736302, -18.029985, -0.620247, 0.951260, 0.311231, -64.783508, -24.343216, -160.194733
1759223391.140556, -0.369605, 16.795325, -6.335955, -0.909488, -0.984807, -0.344481, -64.899338, -23.886353, -160.022934
1759223391.160693, 0.383072, 10.437073, -8.298902, 0.646299, -0.152115, -0.805407, -65.439560, -23.951660, -159.866608
1759223391.180693, 0.488268, 5.105934, -5.707029, 1.232352, 1.207001, -0.996817, -64.825821, -24.707428, -160.721375
1759223391.200689, 5.097555, 4.298789, 6.735189, -0.604710, -0.428834, -0.075751, -64.719040, -25.510880, -160.504333
1759223391.220732, 15.764770, 13.984382, -2.732832, -0.375141, 0.696952, 2.988267, -64.955719, -24.394638, -160.710678
1759223391.240724, 8.027758, 19.155409, 10.062231, -1.736490, -0.178834, 2.537744, -64.269333, -23.129745, -160.867615
1759223391.260763, 1.317559, 8.404546, 9.364621, -2.014084, 0.188936, -0.746082, -64.375381, -21.093643, -160.035645
1759223391.280759, 2.800917, 3.233968, 1.699584, -1.679863, -1.316995, -1.426704, -64.991440, -19.845932, -160.556061
1759223391.300828, 5.260660, 5.508609, 2.459444, -2.162636, -1.826534, -0.482202, -66.599472, -18.770142, -159.509369
1759223391.320729, 4.022857, 9.927557, 2.981080, -2.868244, -0.927092, 0.113049, -67.716721, -16.584671, -159.683884
1759223391.340681, 3.278410, 11.871948, 0.774375, -2.990493, -0.714448, 0.148757, -68.060822, -14.435349, -159.170013
1759223391.360691, 3.742885, 12.837410, 1.491887, -2.994860, -0.424445, 0.010009, -68.650543, -12.157516, -158.103210
1759223391.379920, 4.232350, 11.162816, -0.365714, -2.342656, -0.293522, 0.060003, -68.841995, -10.060989, -156.996216
1759223391.400712, 3.778050, 8.909573, 0.000449, -1.707857, 0.005713, 0.180052, -68.895782, -8.373917, -156.641434
1759223391.419985, 1.922095, 7.426065, 0.883161, -1.443869, 0.260234, 0.106003, -68.854660, -6.945206, -156.147049
1759223391.439782, 1.074548, 7.013963, 1.291821, -1.489694, 0.124146, -0.100106, -68.707855, -6.256073, -155.989243
1759223391.460693, -0.010774, 8.394969, 0.901866, -1.547001, -0.152619, -0.109606, -69.143799, -4.937607, -155.805283
1759223391.480697, 0.092177, 9.182960, -0.079757, -1.584409, -0.396475, 0.263373, -68.935394, -3.984344, -155.173965
1759223391.500692, -0.293290, 8.839841, 0.056114, -1.626398, -0.198710, 0.598182, -69.143326, -2.854019, -153.956451
1759223391.520313, -0.656610, 8.188469, -0.347608, -1.582913, 0.256336, 0.480395, -68.792282, -1.259720, -153.577240
1759223391.540723, 0.401777, 8.627206, 0.197222, -1.535509, 0.409428, 0.160358, -68.454102, -0.083115, -152.454346
1759223391.560695, 1.947085, 9.727043, 0.393098, -1.532538, 0.059953, 0.268940, -68.298279, 0.827713, -152.552536
1759223391.580693, 2.547131, 10.145579, -0.009427, -1.522577, -0.295808, 0.409609, -68.315277, 1.758743, -151.504181
1759223391.600682, 3.065775, 10.090363, -0.736367, -1.616183, -0.367352, 0.376659, -68.019440, 3.996887, -149.600189
1759223391.619810, 2.412906, 10.865186, -4.042610, -1.765760, -0.392816, 0.430634, -68.274139, 4.427521, -149.468399
1759223391.640692, 0.495300, 11.163265, -4.496760, -1.090362, -1.125993, 0.470655, -68.777054, 5.770660, -148.576279
1759223391.659932, -0.280720, 11.374403, -4.164265, -0.232740, -1.330944, 0.469873, -69.158600, 5.803955, -148.588654
1759223391.680621, -1.240795, 11.107150, -3.517980, 0.209909, -0.525684, 0.357990, -69.393219, 6.283966, -148.202606
1759223391.700690, -1.802684, 11.314698, -2.812439, 0.518403, -0.154902, 0.156288, -69.465576, 5.230789, -148.470383
1759223391.720246, -2.490269, 11.676821, -3.553444, 1.170440, -0.794051, -0.263275, -70.085678, 4.525436, -148.844223
1759223391.740692, -2.801216, 13.887267, -0.280870, 1.980100, -0.747578, -0.896098, -71.266922, 3.033325, -150.691528
1759223391.760699, -2.090138, 15.896601, 2.893991, 2.332613, 0.875298, -1.454340, -71.320450, 0.964615, -152.133377
1759223391.780697, 0.390255, 15.515474, 1.753005, 2.710115, 0.963302, -1.702639, -72.016602, -1.114243, -153.526688
1759223391.800694, 3.053505, 16.271294, 3.675399, 2.579465, 0.686897, -1.739040, -71.708496, -3.805756, -155.039825
1759223391.820632, 6.939444, 18.747497, 3.564068, 2.278511, 1.192820, -1.129092, -71.189911, -5.770386, -156.601349
1759223391.840687, 12.649016, 21.860857, 4.763863, 1.707672, 1.225466, 0.570881, -70.318222, -7.149384, -157.401154
1759223391.860694, 13.258041, 16.664990, -2.291700, 2.938559, -0.005249, 1.543315, -69.857971, -9.665985, -158.376373
1759223391.880700, 7.301717, 10.678289, 0.823605, 3.560352, -1.332842, 0.632331, -70.668594, -12.111191, -158.705093
1759223391.900692, 5.761796, 6.607099, 3.319112, 3.233373, -0.922916, -0.436496, -70.912460, -15.612152, -159.549515
1759223391.920614, 5.377975, 6.460604, 1.414075, 3.240259, 0.279060, -0.845011, -70.590149, -18.202988, -160.116241
1759223391.940698, 4.724508, 8.035240, 2.254739, 3.148278, 0.631264, -0.602421, -70.105408, -21.344543, -160.716599
1759223391.960706, 3.250428, 7.287800, 2.840421, 3.081065, 0.697530, -0.440477, -69.645248, -24.131073, -160.748779
1759223391.980702, 2.132186, 5.144242, 2.231994, 3.091036, 0.528046, -0.367721, -68.876022, -26.776352, -160.791779
1759223392.000711, 1.817349, 2.785354, 1.756297, 2.725082, 0.325700, -0.218698, -68.396393, -29.201553, -160.681870
1759223392.020699, 1.610699, 1.020379, 1.985841, 1.832039, 0.564133, -0.067115, -67.884705, -30.982773, -160.649399
1759223392.040672, 2.222567, 0.719158, 2.091036, 0.788305, 0.525020, 0.273326, -67.316910, -31.609421, -160.348892
1759223392.060702, 2.234239, 1.044620, 2.136226, -0.068462, 0.482123, 0.527384, -67.050812, -31.761810, -160.580032
1759223392.080702, 2.214936, 1.107318, 1.769016, -0.701889, 0.880203, 0.606005, -66.557922, -31.249557, -160.978271
1759223392.100818, 1.854459, 1.838298, 0.613963, -1.227843, 1.612751, 0.564417, -65.350296, -30.364059, -161.211273
1759223392.120713, 1.678934, 3.390040, -1.172560, -1.585295, 1.848954, 0.468402, -63.900574, -28.795593, -161.711243
1759223392.140668, 2.131288, 7.613861, -11.452813, -0.593938, 1.513346, 0.259544, -62.238922, -27.992126, -162.472916
1759223392.160706, 7.306655, 17.847576, -26.018238, 0.887686, 1.343021, 0.051698, -61.503647, -29.200424, -162.139572
1759223392.180409, 6.502801, 20.446033, -15.695638, -0.497016, 1.370718, -0.382300, -60.108719, -29.031189, -162.781204
1759223392.200707, 0.442628, 12.421118, -6.287922, -1.535183, -1.769015, -1.422879, -60.800415, -28.298737, -162.095413
1759223392.220779, 2.580800, 6.097732, -4.907066, -0.291756, -1.947302, -1.138194, -62.539658, -27.851395, -161.881958
1759223392.239845, 7.128287, 5.386804, -4.213496, 0.308912, -0.651688, 0.087775, -63.371567, -28.504913, -161.688217
1759223392.260690, 14.902110, 12.122741, 3.448099, 0.213553, -0.190144, 2.624144, -63.730209, -28.093826, -161.580841
1759223392.280151, 9.738565, 19.514838, 1.918055, -0.325666, -0.540766, 1.636918, -63.875107, -28.205826, -161.230255
1759223392.300775, -0.362572, 7.078756, 12.362311, -2.319010, 0.727355, -0.736462, -63.785599, -26.610733, -161.420853
1759223392.320703, -1.303493, 1.844583, 2.655469, -2.437439, -0.289332, -1.645853, -63.598328, -24.795532, -161.304840
1759223392.340251, 0.773626, 4.192546, 1.875408, -2.660121, -1.989383, -1.318957, -64.917007, -22.912033, -161.248886
1759223392.360706, 6.312163, 11.792491, 5.643433, -3.725037, -1.997009, 0.104917, -66.340347, -20.222702, -161.016678
1759223392.380692, 3.881151, 14.138509, -0.253935, -3.159593, -2.590056, 0.426871, -68.573517, -17.542130, -159.815582
1759223392.400701, 3.429095, 13.379547, 0.795025, -2.618555, -1.778640, 0.100530, -69.827789, -15.355469, -158.557098
1759223392.420187, 4.725855, 10.780192, 1.203086, -2.341726, -0.782341, 0.057515, -70.950424, -13.466385, -158.009491
1759223392.440669, 3.315969, 8.346486, -0.282665, -1.775960, -0.094576, -0.077263, -70.862808, -11.991638, -157.014481
1759223392.460681, 1.919850, 5.882254, -0.234632, -1.379501, 0.086812, -0.125589, -70.921021, -11.037079, -156.877945
1759223392.480492, 1.680730, 6.707057, 1.054496, -1.413817, 0.143130, 0.020831, -70.627136, -10.055817, -156.417267
1759223392.500229, 1.042226, 8.431032, 1.111059, -1.504575, 0.243130, 0.083160, -70.021088, -9.019348, -156.289734
1759223392.520681, 0.091429, 9.062353, -0.099210, -1.420500, 0.091781, 0.116635, -70.293777, -8.127548, -155.685989
1759223392.539833, -0.529717, 8.983793, -0.478541, -1.489084, -0.319984, 0.250946, -70.310944, -7.158356, -155.435852
1759223392.559994, -0.811784, 8.969577, 0.373944, -1.637972, -0.445931, 0.344535, -70.450760, -6.134338, -154.673080
1759223392.580694, -0.363919, 8.895058, 0.500239, -1.491164, -0.248990, 0.334560, -70.778244, -4.815125, -154.119141
1759223392.600688, 1.722778, 8.947281, -0.622492, -1.288512, -0.136674, 0.316557, -70.458969, -3.700882, -153.999588
1759223392.620688, 2.970755, 9.721656, -0.765995, -1.470861, -0.124430, 0.325719, -70.313141, -2.618591, -153.443375
1759223392.640564, 2.393453, 10.292374, -0.522235, -1.491182, -0.461710, 0.419108, -70.396744, -1.933487, -152.372131
1759223392.660389, 1.630900, 10.524312, -1.048361, -1.396227, -0.925367, 0.515786, -70.537201, -0.960205, -151.801987
1759223392.680691, 0.792032, 10.301053, -3.678990, -1.460941, -1.163482, 0.587423, -71.327637, 0.301971, -151.169586
1759223392.700683, 0.328006, 11.587337, -4.889109, -0.969028, -1.113036, 0.408396, -71.561966, 0.985535, -150.189850
1759223392.720685, -0.207847, 13.811850, -2.646191, 0.036770, -0.769174, 0.179713, -71.837921, 1.186615, -149.510056
1759223392.740744, -0.679504, 12.903101, -1.250671, 0.343866, -0.432800, 0.055140, -72.180008, 0.856674, -149.296799
1759223392.760686, -1.825130, 13.455713, -1.290175, 0.728156, -0.138806, -0.193601, -72.332581, 0.569489, -149.153671
1759223392.780687, -3.341557, 14.678102, 0.745794, 1.357856, 0.597560, -0.670220, -72.269028, -0.117859, -150.135483
1759223392.800688, -1.813757, 15.067010, -0.543633, 2.156148, 1.091552, -1.175781, -71.754181, -1.719055, -151.067719
1759223392.820686, 3.291878, 12.688371, -3.621380, 3.196799, 1.026021, -0.963448, -72.231827, -3.702332, -152.434814
1759223392.840683, 5.176563, 13.235895, -0.514604, 3.392104, 0.328556, -0.718845, -72.054626, -6.346329, -154.384598
1759223392.860694, 4.790648, 13.708002, 4.060716, 2.791791, 0.352264, -0.710091, -71.276657, -8.779968, -155.399017
1759223392.880710, 6.485294, 14.021043, 3.936516, 2.218010, 0.625689, -0.460887, -70.851120, -11.017807, -155.648560
1759223392.900694, 7.338228, 14.443919, 3.993828, 1.756838, 0.254990, -0.199081, -70.652908, -12.572571, -156.860123
1759223392.920704, 7.932140, 14.203452, 4.196437, 1.354190, -0.394202, -0.048741, -70.404251, -13.828201, -156.545639
1759223392.940691, 8.077139, 12.281806, 3.076100, 1.599341, -0.666167, -0.043685, -70.541702, -14.935181, -156.529434
1759223392.959822, 4.447230, 10.869376, -3.162740, 3.388156, -1.050938, -0.581922, -71.321182, -16.704742, -156.306625
1759223392.980698, 3.568258, 9.554511, 1.748815, 3.987010, 0.089997, -0.728211, -71.751480, -21.148148, -156.938263
1759223393.000702, 2.498200, 7.425916, 1.695993, 4.242983, 0.535401, -0.661307, -71.066788, -24.596542, -157.862549
1759223393.020707, 2.574814, 5.760449, 1.368137, 4.120212, 0.730083, -0.496885, -70.620865, -27.842575, -157.383377
1759223393.040678, 2.736423, 4.690989, 0.900968, 3.286931, 1.281958, -0.406409, -69.432922, -30.709732, -157.224548
1759223393.059893, 2.466926, 4.459350, 1.051952, 2.697746, 1.619785, -0.391709, -69.139694, -32.120956, -156.904617
1759223393.080373, 2.322076, 3.392584, 2.199673, 1.158910, 1.036598, -0.264435, -67.248337, -33.675919, -157.788101
1759223393.100702, 2.954744, 2.211195, 1.949479, 0.670492, 0.476196, -0.050819, -66.531448, -34.169815, -157.528214
1759223393.120700, 3.239355, 1.258452, 1.203685, 0.424589, 0.555616, 0.158459, -66.365524, -34.721481, -157.400116
1759223393.140684, 2.757522, 1.066168, 0.882263, -0.181165, 0.611634, 0.205126, -65.729355, -34.874588, -158.111633
1759223393.160220, 2.174384, 1.673697, 0.593463, -0.610749, 0.553238, 0.201342, -65.071686, -34.360245, -158.007294
1759223393.180705, 2.223764, 2.676119, -1.590049, -1.421514, 0.536313, 0.300255, -65.032837, -32.833298, -158.448669
1759223393.200713, 0.925359, 4.944326, -5.461623, -1.897485, 0.436777, 0.139447, -64.253952, -31.753098, -158.673737
1759223393.220707, 1.802684, 8.832958, -13.002011, -1.467680, 0.765203, -0.056603, -63.502899, -30.877899, -159.506363
1759223393.240311, 3.405303, 15.898995, -22.338650, 0.188603, 1.383192, -0.055576, -62.664993, -30.679611, -159.264359
1759223393.260624, 1.836802, 20.352061, -13.916148, -0.359345, 0.756176, -0.331158, -61.927170, -30.907913, -158.986053
1759223393.280716, -0.388160, 15.021221, -5.251681, -0.998057, -1.806306, -1.093251, -63.167419, -30.268112, -159.483231
1759223393.300706, 1.366341, 8.384195, -6.385037, -0.175662, -1.086938, -1.215431, -63.794205, -30.342896, -159.308929
1759223393.320765, 7.053617, 7.557597, -4.738424, -0.342508, 0.132090, -0.239258, -63.330002, -30.023605, -159.230057
1759223393.340754, 11.216087, 9.631275, 4.587141, -1.196776, -0.896352, 1.848999, -64.952148, -29.190826, -158.926620
1759223393.360729, 10.740838, 15.254506, -8.532635, 0.701910, -1.538988, 1.903316, -65.840073, -29.071060, -159.288635
1759223393.379960, 3.962404, 7.294684, 12.054057, -1.549132, -0.664419, 0.095576, -66.347534, -27.794815, -158.859146
1759223393.400702, 1.135450, 2.749441, 6.034286, -2.597157, -0.588908, -0.645699, -66.954712, -26.052444, -159.519760
1759223393.420701, 2.365920, 4.549432, 5.453393, -3.691452, -0.390844, -0.298313, -67.121368, -23.083954, -159.044296
1759223393.440681, 5.163844, 9.008932, 4.858583, -4.336652, -0.203352, 0.528175, -67.385284, -19.512772, -159.169296
1759223393.460721, 1.695095, 12.746131, -2.908506, -2.860541, -2.305089, 0.228265, -68.877228, -17.744247, -157.954254
1759223393.480732, 3.612252, 13.096582, 3.130568, -2.583406, -2.152736, 0.128159, -70.755783, -15.805939, -156.594788
1759223393.500723, 3.662979, 11.111789, 1.037438, -2.119121, -1.652639, 0.270323, -71.626205, -14.074997, -155.753128
1759223393.520122, 3.874417, 8.935460, -0.690578, -1.338327, -1.190806, 0.476289, -72.140350, -12.500427, -154.864868
1759223393.540694, 2.109741, 7.881263, 0.580145, -1.041401, -0.488234, 0.318155, -73.028656, -12.054337, -154.689301
1759223393.560716, 0.489165, 7.266552, 1.525555, -1.316925, -0.390101, 0.083683, -72.697495, -11.033401, -154.503220
1759223393.580713, 0.537049, 8.825925, 1.424700, -1.703480, -0.502779, 0.122440, -73.143112, -10.032028, -153.776718
1759223393.600792, 0.268151, 9.165154, 1.179444, -1.831331, -0.496581, 0.135994, -73.494675, -8.976074, -153.392990
1759223393.620708, -0.162955, 8.987983, 0.320823, -1.712749, -0.593391, 0.164270, -73.799454, -7.291641, -152.686951
1759223393.640036, -0.591218, 9.110686, -0.408511, -1.493383, -0.821291, 0.381454, -74.407516, -6.327454, -151.795746
1759223393.660707, -0.611120, 9.282619, -0.835427, -1.220178, -0.796757, 0.614023, -74.262146, -5.582047, -151.419998
1759223393.680712, -0.100706, 8.818443, -0.791882, -0.973883, -0.138555, 0.478030, -74.198837, -4.434662, -150.606628
1759223393.700748, 2.167501, 8.989329, -0.388459, -1.163523, 0.478030, 0.294406, -73.701065, -4.003479, -150.049179
1759223393.720723, 3.274520, 9.641300, -0.210690, -1.515030, 0.547707, 0.411118, -73.629074, -2.390823, -150.296600
1759223393.740730, 2.831892, 9.568277, -0.214580, -1.437482, -0.062833, 0.537559, -73.442429, -1.669174, -149.471786
1759223393.760724, 2.351106, 9.671228, -0.820762, -1.105675, -0.665200, 0.517472, -73.346741, -0.808594, -149.128510
1759223393.780702, 1.903540, 10.630704, -2.121861, -0.910758, -0.656207, 0.563836, -73.483627, -0.274643, -147.475266
1759223393.800709, 0.552761, 12.311733, -3.066224, -0.772417, -0.574782, 0.508658, -73.194244, 0.738815, -146.997787
1759223393.820712, -0.847547, 12.533047, -1.407940, -0.169721, -0.597706, 0.344504, -73.658203, 0.837265, -146.746323
1759223393.840683, 0.043694, 11.215189, -1.955315, -0.126640, -0.453945, 0.132362, -73.568542, 0.901367, -146.786377
1759223393.860707, 0.800561, 11.521347, -3.374627, 0.110470, -0.489027, -0.010767, -73.859695, 0.883469, -146.470108
1759223393.879929, -1.611447, 17.225533, -1.480963, 1.200659, -0.557719, -0.422395, -74.147705, 0.332870, -146.607697
1759223393.900731, -3.814562, 16.185252, -1.282993, 2.266934, -0.351026, -0.935335, -74.787827, -1.088242, -146.864685
1759223393.919702, -1.969081, 11.966070, -2.952051, 3.003006, 0.603758, -1.287029, -74.989319, -3.021866, -148.912033
1759223393.939803, 3.559430, 13.354558, -0.968006, 3.012350, 0.560724, -1.247081, -75.130463, -5.221817, -149.935349
1759223393.960703, 3.705476, 14.900913, 4.039916, 2.501835, 0.503105, -1.262717, -75.501099, -7.311646, -151.173004
1759223393.980342, 5.503073, 15.967081, 4.324078, 2.169131, 1.107153, -1.150425, -74.996002, -9.051804, -151.876724
1759223394.000746, 7.936479, 16.344317, 4.568436, 1.758704, 1.202829, -0.479686, -74.308624, -10.615372, -152.717667
1759223394.020026, 8.898649, 15.106515, 4.094234, 1.423537, 0.811640, 0.272828, -73.791656, -11.289413, -153.622406
1759223394.040425, 7.116914, 11.574618, -1.968333, 2.678205, -0.600544, 0.253618, -73.725037, -12.550980, -154.391052
1759223394.060226, 6.306327, 9.708937, -0.921917, 3.832715, -0.994035, -0.185035, -74.719986, -15.079468, -154.728043
1759223394.079894, 3.813814, 8.450185, 4.424634, 3.487567, 0.221687, -0.715157, -75.295776, -17.479858, -154.904694
1759223394.100711, 2.548029, 8.432229, 1.642572, 3.469340, 0.718234, -0.955522, -75.021683, -20.312836, -155.258072
1759223394.120696, 2.479944, 7.295881, 0.965163, 3.339989, 1.050934, -0.849173, -74.656616, -22.769562, -155.332504
1759223394.140717, 2.690334, 5.565471, 1.657386, 2.865593, 1.300729, -0.650185, -73.431396, -25.076126, -155.939514
1759223394.160732, 2.689736, 3.887136, 1.867028, 2.249788, 1.371684, -0.435680, -72.480774, -27.159409, -156.439911
1759223394.180801, 2.275539, 2.790592, 2.140267, 1.661397, 1.412920, -0.274025, -71.604614, -28.949036, -156.642624
1759223394.199982, 2.599654, 2.212542, 2.392556, 1.097209, 0.951262, -0.072490, -70.544495, -29.912399, -156.522034
1759223394.220827, 3.166182, 1.750910, 2.437746, 0.416062, 0.502276, 0.023716, -70.352509, -30.094742, -156.813095
1759223394.240768, 4.208857, 1.413028, 1.922993, -0.386066, 0.438444, 0.079471, -69.930328, -30.413574, -157.238647
1759223394.260738, 3.687819, 1.908777, 0.836923, -1.248338, 0.682105, 0.167790, -69.492554, -29.995468, -157.115219
1759223394.280842, 2.195483, 3.390040, -0.658106, -2.076491, 0.891696, 0.144297, -69.133636, -28.738052, -157.654755
1759223394.300440, 0.961871, 6.966528, -7.111826, -2.022983, 0.584686, -0.127166, -68.471008, -26.789154, -158.397736
1759223394.320731, 3.531447, 13.621661, -20.862924, 0.019786, 0.451345, -0.228356, -68.190842, -25.625595, -158.415802
1759223394.340762, 1.458817, 20.595372, -22.953810, 0.772185, 2.254570, -0.020949, -67.215103, -26.453125, -158.768005
1759223394.360753, -3.385850, 15.443349, -4.265270, -1.079314, -0.156280, -0.759359, -66.217590, -26.542603, -159.174805
1759223394.380716, -0.701202, 8.960150, -4.912154, -0.334891, -1.453436, -1.091551, -67.488647, -25.701385, -158.600769
1759223394.400732, 5.335628, 6.992565, -5.107580, 0.434350, -0.681411, -0.276949, -67.969025, -25.988678, -159.220322
1759223394.420761, 14.261062, 13.276297, -0.955735, 0.432267, -0.092341, 2.064957, -68.117233, -26.165222, -158.914215
1759223394.440689, 12.831873, 20.021062, -1.833510, 0.274596, -0.941493, 1.807991, -69.346695, -25.766159, -158.388611
1759223394.460767, 3.100790, 6.358850, 12.891130, -1.260421, -0.941033, -0.473087, -70.433380, -24.673553, -158.799820
1759223394.480779, 2.087893, 2.370110, 6.121225, -2.024909, -0.163962, -1.128454, -70.560791, -23.644012, -158.444275
1759223394.500698, 3.013103, 4.413561, 7.127838, -3.576198, -0.152247, -0.490556, -70.767822, -21.267517, -158.957275
1759223394.520775, 7.253832, 9.977686, 6.179135, -4.731129, 0.230097, 0.887232, -70.739136, -17.801697, -158.065796
1759223394.540731, 3.258808, 11.339388, 0.419135, -3.411639, -1.124937, 0.506550, -71.334961, -14.595840, -157.416611
1759223394.560810, 2.302923, 12.231228, -1.046565, -1.770501, -2.567792, -0.190252, -72.816757, -13.314590, -156.591827
1759223394.580719, 5.138855, 11.030087, 3.044078, -1.871565, -1.923493, 0.097643, -74.164749, -11.643509, -154.875214
1759223394.600776, 3.954473, 8.957906, 0.797419, -1.658226, -1.029079, 0.270897, -75.129547, -10.734665, -153.696518
1759223394.620795, 2.073977, 6.868665, -0.937629, -1.252304, -0.537741, 0.126760, -75.931458, -9.624680, -153.235992
1759223394.640714, 0.840514, 6.804620, -0.170587, -1.424823, -0.624333, 0.125587, -76.116531, -8.676056, -152.662003
1759223394.660791, 1.301099, 9.593117, 1.725022, -1.989450, -0.762100, 0.370522, -76.994629, -7.381760, -152.265762
1759223394.680771, 0.889147, 9.409811, 1.952023, -2.171476, -0.719242, 0.223817, -77.425797, -5.977142, -150.684555
1759223394.699955, -0.050877, 9.335591, 1.945887, -2.129009, -0.682126, 0.119547, -78.082397, -4.847412, -149.558075
1759223394.720792, -0.697012, 9.244162, 0.081104, -1.599174, -0.763835, 0.075118, -78.142914, -3.828186, -148.924423
1759223394.740762, -1.295263, 9.229049, -0.659453, -1.052897, -1.038909, 0.178435, -78.749878, -2.866425, -148.092087
1759223394.760777, -1.400458, 9.519944, -0.124498, -1.010050, -1.117463, 0.438937, -79.424606, -2.271088, -146.677505
1759223394.780713, -0.938078, 9.080908, -0.793229, -1.331157, -0.695299, 0.492726, -79.655930, -1.134216, -146.064941
1759223394.800524, 1.862390, 9.791088, -1.605911, -1.601813, 0.298091, 0.236814, -79.168594, 0.002762, -144.929672
1759223394.820707, 2.523788, 10.414179, -1.104326, -1.454583, 0.236132, 0.441220, -78.967300, 0.951767, -144.688416
1759223394.840758, 1.914763, 9.741857, -1.426645, -1.160977, -0.454394, 0.525667, -78.991409, 1.359650, -143.976700
1759223394.860812, 2.031779, 9.791986, -2.331204, -0.880493, -0.657873, 0.631691, -79.275650, 1.958618, -144.022476
1759223394.880812, 0.359729, 12.095357, -2.151639, -0.628335, -0.561275, 0.613279, -79.148849, 2.898438, -142.715088
1759223394.900734, -1.893814, 12.803442, -2.427122, -0.259772, -0.581069, 0.422949, -79.416992, 3.245239, -143.197174
1759223394.920751, -1.511041, 12.365154, -2.412906, 0.079077, -0.249381, 0.059182, -79.396912, 2.996338, -142.590042
1759223394.940658, 1.114052, 11.478850, -3.062334, 0.335088, -0.143823, -0.087347, -80.025818, 2.970062, -142.246521
1759223394.960733, 0.345663, 15.161881, -1.269825, 1.002491, -0.295158, -0.155321, -80.200180, 2.361465, -142.782776
1759223394.980719, -2.383428, 17.204583, 0.691026, 1.711440, -0.132578, -0.713044, -80.596039, 1.261597, -143.819687
1759223395.000731, -1.550994, 13.477111, -2.505532, 2.730129, 0.290633, -1.308143, -81.436691, -0.962143, -145.124283
1759223395.019941, 3.104082, 11.904120, -2.776825, 3.486664, 0.293793, -1.263304, -82.045288, -3.498001, -147.308792
1759223395.040704, 4.758476, 14.308797, 1.246481, 3.215108, -0.325463, -1.049749, -82.964233, -5.624176, -148.182343
1759223395.060741, 5.404461, 15.152154, 5.795464, 2.280443, -0.289826, -0.881035, -83.228073, -7.644409, -149.069534
1759223395.080737, 6.801478, 15.178490, 4.374805, 1.722939, 0.073090, -0.616085, -83.418137, -8.688126, -149.681610
1759223395.100535, 8.014440, 15.023167, 3.327641, 1.429977, 0.403255, -0.192360, -83.548981, -10.080994, -150.177231
1759223395.120381, 8.307880, 12.308291, -3.334225, 2.547049, 0.835715, -0.079769, -83.033142, -11.508041, -152.033020
1759223395.140750, 5.058499, 10.046519, -1.330727, 3.190837, 0.095728, -0.325893, -82.954453, -14.066116, -152.673187
1759223395.160739, 3.031059, 8.867824, 4.038719, 2.539165, 0.520598, -0.757681, -82.898926, -16.402527, -153.327545
1759223395.180719, 0.601992, 9.103653, 2.386720, 2.749082, 1.637359, -1.443253, -82.157730, -18.944016, -154.394135
1759223395.200735, -0.029628, 8.693795, 1.472284, 3.221267, 1.459421, -1.765594, -80.901413, -22.238159, -155.312103
1759223395.220717, 1.251270, 6.761225, 1.885135, 3.305266, 1.219593, -1.498581, -80.119476, -25.292496, -155.870514
1759223395.240704, 2.721459, 4.180276, 1.413028, 2.890019, 1.433200, -0.970289, -79.085556, -28.205292, -157.274094
1759223395.260731, 3.081188, 2.531719, 1.306785, 2.120790, 1.845965, -0.538259, -77.298035, -30.053986, -156.818848
1759223395.280080, 3.079991, 1.848623, 1.307683, 1.357099, 1.751135, -0.294245, -76.108978, -31.820145, -157.951492
1759223395.300767, 3.967342, 1.494730, 1.619378, 0.533263, 1.235370, -0.078816, -74.868088, -32.487259, -158.338074
1759223395.320729, 4.516213, 1.308730, 1.345691, -0.285456, 0.798120, 0.142594, -74.455475, -32.075012, -158.485428
1759223395.340709, 3.661483, 1.285836, 0.970849, -1.061188, 0.710353, 0.300227, -73.621811, -31.856857, -158.844711
1759223395.360717, 2.558803, 2.344821, -0.915483, -1.534956, 0.856202, 0.386539, -72.737823, -30.623856, -159.530304
1759223395.380720, 1.271321, 4.954501, -3.520374, -1.865712, 1.157002, 0.279755, -72.432480, -29.222107, -159.941223
1759223395.400784, 1.534085, 10.565462, -12.419472, -1.448686, 1.349811, 0.353874, -71.086609, -27.872742, -160.585312
1759223395.420094, 3.517531, 22.198739, -29.861381, 1.294587, 1.760795, 0.473447, -70.138718, -27.847626, -160.699188
1759223395.440694, 1.591396, 22.397757, -7.214179, -0.136389, 0.516763, -0.153118, -68.749344, -28.418320, -161.400726
1759223395.460736, -2.206556, 12.394333, -5.543774, -0.222840, -1.542716, -1.173005, -69.444260, -28.430313, -160.905777
1759223395.480720, 2.211345, 5.009867, -6.749554, 0.277060, -0.441448, -1.004601, -70.340210, -29.436264, -160.418701
1759223395.500718, 10.120889, 8.282741, 6.990770, -1.290689, -0.220148, 0.764388, -70.251526, -28.730591, -160.716232
1759223395.519882, 9.762806, 14.581586, -6.225673, 0.618783, -1.619284, 1.600501, -71.397568, -27.668488, -160.035233
1759223395.539821, 6.558915, 13.888764, 2.533814, 0.179748, -0.315844, 0.210357, -71.918533, -28.429855, -159.743668
1759223395.560727, 1.650952, 3.426551, 10.937761, -1.662505, 0.340541, -0.689417, -71.920761, -27.744370, -160.128265
1759223395.580722, 0.918176, 2.524386, 7.028778, -3.038034, 0.047428, -0.687331, -71.509750, -26.123367, -160.360901
1759223395.600718, 4.750395, 6.928520, 5.826888, -4.270708, 0.181008, 0.521106, -71.807007, -23.690643, -160.584824
1759223395.620295, 3.857358, 11.121067, 1.055993, -3.502597, -1.194243, 1.009004, -71.899780, -19.523651, -160.475388
1759223395.640751, 2.655918, 13.992163, 0.164901, -2.253776, -2.060089, 0.711703, -73.404724, -17.143539, -159.809235
1759223395.660722, 4.244471, 13.080122, 3.111415, -2.117977, -0.854764, 0.490365, -74.273041, -15.628510, -158.848312
1759223395.680721, 3.045425, 10.098743, 0.312294, -1.413049, 0.049245, 0.104345, -74.588623, -14.102600, -157.911102
1759223395.700803, 2.764555, 7.298873, -1.360954, -0.688692, 0.513051, 0.039085, -74.289978, -13.450531, -157.788300
1759223395.720713, 2.341080, 6.296900, -0.835876, -0.785228, 0.785029, 0.172892, -73.682755, -12.897247, -158.246597
1759223395.740709, 1.661726, 7.764995, 0.911143, -1.614018, 0.575574, 0.486466, -72.946030, -11.822784, -157.973480
1759223395.760837, 0.911742, 9.654469, 1.804181, -2.066002, 0.101553, 0.516847, -72.484787, -10.258713, -158.026962
1759223395.780659, 0.049829, 9.427319, 0.818817, -1.749785, -0.491226, 0.228100, -72.293243, -8.760590, -157.374939
1759223395.800715, -0.617704, 8.615385, -0.053870, -1.104258, -0.838564, 0.054987, -73.058197, -7.309189, -156.330719
1759223395.820719, -0.096516, 7.880365, 0.460285, -0.965619, -0.785993, 0.196908, -73.824768, -6.493454, -155.687500
1759223395.840708, 0.852186, 7.810784, 0.503082, -1.274947, -0.070842, 0.400169, -73.752167, -5.339233, -155.160294
1759223395.860722, 2.495357, 9.527127, 0.660500, -1.593965, 0.507422, 0.425365, -73.069733, -4.547028, -155.113953
1759223395.880722, 3.327491, 10.297012, 0.475548, -1.883734, 0.838990, 0.424093, -72.256775, -3.175323, -154.912567
1759223395.900733, 3.589357, 8.948029, -3.321057, -2.061361, 0.626698, 0.451184, -71.682526, -1.594330, -154.062759
1759223395.920722, 3.424756, 10.223391, -6.827216, -1.334156, -1.014158, 0.559737, -71.760071, -0.707016, -153.294617
1759223395.940302, 2.164209, 12.862400, -2.830096, -0.606655, -1.376820, 0.532596, -72.580078, -0.097458, -152.067627
1759223395.960719, -0.259921, 11.972654, -1.573888, -0.287220, -0.758954, 0.552653, -72.870407, 0.319153, -152.193390
1759223395.980727, -1.963245, 12.006323, -2.563143, 0.085277, -0.295489, 0.439738, -73.028549, 0.087326, -152.185364
1759223396.000747, -1.686565, 13.589339, -3.296666, 0.511442, -0.092124, 0.024058, -72.959656, -0.278900, -151.907684
1759223396.020724, -3.467851, 18.785056, -0.632668, 1.324315, 0.032507, -0.758793, -73.459656, -1.273941, -152.176483
1759223396.040703, -3.436577, 17.590499, 1.474230, 2.208833, 0.487411, -1.429026, -73.006927, -3.270416, -153.494720
1759223396.060725, 1.675343, 13.137583, 0.632668, 2.882817, 0.895171, -1.459794, -72.966583, -5.884521, -154.960892
1759223396.080724, 4.520851, 12.596045, -1.125724, 3.557238, 0.833281, -1.264052, -72.783813, -9.191086, -155.945557
1759223396.100715, 7.184999, 15.071649, 1.054047, 3.588991, 0.480788, -0.858949, -72.084763, -12.305634, -156.737457
1759223396.120728, 9.037213, 15.632940, 4.406977, 2.769233, 0.364161, -0.175926, -71.943542, -14.601578, -157.886719
1759223396.140721, 10.081834, 14.712369, 4.462642, 2.023721, 0.440275, 0.358671, -71.147476, -16.215134, -157.673401
1759223396.160727, 10.389788, 12.791621, 2.019958, 2.098047, 0.420433, 0.398299, -70.953018, -17.519562, -157.691360
1759223396.180726, 9.256732, 8.680178, -0.368857, 2.850892, -0.435958, 0.211220, -70.581970, -19.131424, -158.040253
1759223396.200713, 5.679645, 6.775142, 2.158522, 2.894537, -1.247586, -0.243499, -71.487976, -21.251099, -157.463303
1759223396.220792, 4.791845, 7.571064, 2.103306, 2.836414, -0.850886, -0.367984, -71.680237, -23.355789, -157.973297
1759223396.240708, 2.322226, 8.261342, 2.045845, 2.932027, 0.289878, -0.679381, -71.617111, -25.998459, -157.633728
1759223396.260817, 0.182109, 8.206425, 1.067215, 3.177767, 0.366761, -0.978844, -71.221252, -28.454468, -157.337234
1759223396.280732, 0.137667, 7.173178, 1.587206, 3.121682, 0.449072, -0.913998, -70.727234, -30.912582, -156.916473
1759223396.300824, 0.980874, 5.516989, 1.521066, 2.746926, 1.063074, -0.610464, -69.593689, -32.940659, -156.691162
1759223396.320725, 1.776049, 4.434061, 1.396268, 2.064828, 1.412478, -0.333749, -68.553497, -34.411331, -156.684250
1759223396.339859, 2.370409, 3.938462, 1.371878, 1.417037, 1.271176, -0.236567, -67.362640, -35.364304, -157.598602
1759223396.360723, 2.414552, 2.658013, 1.130362, 0.767294, 0.684017, -0.331225, -66.915741, -36.166443, -157.095688
1759223396.380730, 2.516156, 1.001076, 1.081281, -0.116339, 0.485228, -0.413520, -66.380753, -35.802368, -157.622086
1759223396.400798, 2.989310, 0.290746, 1.001674, -1.091511, 0.644362, -0.222015, -65.410797, -35.145615, -157.909760
1759223396.420125, 3.439420, 0.953192, 0.689380, -1.928686, 0.898026, 0.080173, -64.640137, -34.047958, -157.941727
1759223396.440250, 3.470246, 2.442984, -0.998681, -2.320584, 1.181903, 0.364486, -63.681000, -31.623062, -158.759949
1759223396.460719, 4.852747, 7.152677, -6.900388, -1.651476, 1.199615, 0.613910, -62.798431, -30.546951, -158.826752
1759223396.480726, 5.105336, 15.446641, -20.516961, 0.458791, 1.638695, 0.166694, -60.969955, -30.590790, -159.240417
1759223396.500738, 4.923975, 22.252309, -26.282798, 2.165301, 2.511100, 0.075077, -59.416077, -32.308151, -159.450623
1759223396.520725, 2.144756, 18.014572, -9.204359, 0.336248, 0.162376, -0.156932, -58.593185, -32.336990, -159.055359
1759223396.540672, 1.597681, 7.562684, -5.994183, -0.336076, -0.573119, -1.003189, -59.062332, -32.185760, -158.486511
1759223396.560736, 1.307833, 0.794127, -4.064307, -0.277824, 1.087229, -1.237071, -57.875702, -32.443420, -158.416489
1759223396.580728, 8.180837, 5.333832, 11.076924, -1.743967, -0.773574, 0.370409, -58.487762, -30.855972, -159.243347
1759223396.600801, 12.027871, 19.038692, -11.138125, 1.903834, -3.995254, 1.770928, -61.437759, -30.790497, -158.986572
1759223396.620722, 7.431901, 18.978238, 8.264934, -0.694293, -0.044935, 0.501887, -61.628494, -30.968994, -158.581406
1759223396.640722, 0.784101, 4.411167, 10.727520, -2.707850, -0.779282, -1.070362, -61.900284, -29.260788, -159.107269
1759223396.660744, 0.585682, 2.528876, 5.473295, -3.498820, -1.179680, -1.326894, -62.651886, -26.737579, -158.832062
1759223396.680728, 5.378873, 6.050447, 4.317793, -4.167398, -1.358832, -0.098112, -63.546967, -23.104126, -159.036636
1759223396.700815, 4.967520, 10.768371, 0.341922, -3.417519, -2.170934, 0.659527, -65.087402, -20.461670, -158.547211
1759223396.720727, 4.042161, 13.140277, 2.927510, -3.027694, -1.948328, 0.448739, -66.740845, -17.915466, -157.750519
1759223396.740707, 1.822436, 12.748226, 3.513790, -2.916305, -1.259858, -0.480388, -67.644394, -15.982956, -157.474213
1759223396.760730, 1.396568, 10.071808, -0.699556, -2.001669, -1.624909, -0.853160, -68.956848, -14.559280, -156.402100
1759223396.780413, 2.928408, 8.467693, 0.545579, -1.564638, -1.329932, -0.344822, -69.955795, -13.290741, -156.125473
1759223396.800747, 2.288707, 7.741352, 0.013617, -1.257958, -0.633293, 0.153191, -70.623199, -12.131348, -155.319656
1759223396.820727, 1.214010, 8.395118, 0.615759, -1.133267, 0.138069, 0.526242, -70.672791, -11.152695, -154.658463
1759223396.840712, 0.491859, 8.510938, 1.068263, -1.050060, 0.525116, 0.694198, -70.068893, -10.345108, -154.283447
1759223396.860734, -0.347907, 7.810634, 0.677110, -0.955101, 0.490956, 0.667650, -69.387405, -9.452240, -155.390488
1759223396.880733, -0.842160, 8.290073, 1.564760, -1.226126, 0.260681, 0.578561, -69.105301, -8.501846, -154.850464
1759223396.900527, -0.240318, 9.805603, 2.776975, -1.599390, 0.095812, 0.421670, -68.586746, -7.138550, -154.641602
1759223396.920461, 0.173879, 9.131186, 1.194407, -1.930476, -0.459343, 0.309751, -68.888351, -6.023987, -153.366791
1759223396.940774, 1.195156, 9.225158, -1.991078, -2.422173, -0.380361, 0.265121, -69.105270, -4.510574, -152.835770
1759223396.960160, 2.641702, 9.572318, -3.361309, -2.183357, -0.009841, 0.229474, -68.784485, -2.449188, -152.029388
1759223396.980734, 4.467880, 10.453833, -4.006098, -0.972429, -0.153015, 0.483294, -68.964432, -1.585983, -151.466431
1759223397.000829, 4.440346, 11.733833, -4.374057, -0.321956, -0.816191, 0.684046, -68.665482, -1.345703, -150.922623
1759223397.020729, 0.081403, 11.491569, -2.191592, -0.509350, -1.723795, 0.676878, -69.404297, -0.711044, -150.165848
1759223397.040621, -2.309806, 12.989442, 0.356586, -0.450602, -1.682716, 0.529858, -69.885773, -0.372543, -149.870636
1759223397.059973, -2.786103, 12.871976, -0.020351, -0.387052, -0.652737, 0.218963, -70.315186, 0.041382, -149.632660
1759223397.080704, -1.181239, 12.985102, -1.590498, -0.118297, 0.594414, -0.016550, -69.894592, 0.299896, -149.287186
1759223397.100721, -0.411054, 18.386571, -0.563236, 1.001415, 1.028484, -0.453106, -69.484192, -0.000595, -149.223206
1759223397.119721, 0.048183, 17.982699, -0.896778, 2.134560, 0.595007, -0.882203, -69.181229, -1.075272, -149.705597
1759223397.140745, 3.120393, 13.249362, -1.729511, 2.712780, 0.368380, -1.125136, -69.193222, -3.201797, -151.821686
1759223397.159924, 5.077503, 10.144831, -3.309685, 3.348699, 0.335705, -1.023322, -69.368225, -5.118271, -152.741989
1759223397.179821, 6.414515, 11.565490, -1.319055, 3.597977, -0.128324, -0.743650, -69.190460, -7.573715, -154.291290
1759223397.200772, 6.822876, 12.848034, 4.978593, 2.642813, -0.615910, -0.484956, -69.561096, -10.530609, -155.694427
1759223397.220717, 7.014712, 13.410672, 4.589535, 1.935454, -0.398655, -0.380553, -69.752243, -12.135712, -155.836899
1759223397.240712, 7.402572, 13.711294, 3.143886, 1.715313, 0.026150, -0.406522, -70.246231, -13.479965, -156.184433
1759223397.260262, 7.341520, 12.343456, 2.650681, 1.647039, -0.021501, -0.268447, -69.996719, -14.763641, -156.395401
1759223397.280729, 5.117007, 9.762507, -0.559046, 2.343702, -1.362921, -0.195785, -70.990952, -16.388123, -156.070786
1759223397.300744, 4.437354, 8.867375, 1.239448, 2.616852, -1.595636, -0.169778, -72.251617, -18.322891, -156.161865
1759223397.320759, 1.108216, 7.816769, 1.693748, 2.932959, -0.336545, -0.815193, -72.434677, -20.561584, -156.682571
1759223397.340720, -0.518195, 7.856124, -0.286107, 3.552398, 0.367628, -1.396613, -72.532562, -23.747421, -156.346954
1759223397.360778, 1.099836, 6.785467, 0.220566, 3.388371, 0.652965, -1.214239, -71.649918, -26.482224, -156.786240
1759223397.380738, 2.772336, 4.914099, 0.779313, 2.544790, 0.968091, -0.598782, -71.192703, -28.757904, -156.733963
1759223397.400814, 3.212570, 3.771167, 1.449390, 1.687928, 0.966276, -0.128486, -69.588394, -30.272568, -156.807343
1759223397.420732, 3.419219, 3.500772, 1.667113, 1.146506, 0.619058, 0.056246, -69.508560, -30.997940, -156.792480
1759223397.440726, 3.680187, 2.809895, 1.806575, 0.682593, 0.258147, -0.043540, -69.193954, -31.680725, -156.254257
1759223397.460731, 4.401590, 2.409165, 1.818546, 0.001070, 0.362159, -0.008592, -68.776199, -31.907379, -157.215485
1759223397.479862, 4.088099, 2.239027, 1.387889, -0.901245, 0.830321, 0.212854, -68.100388, -31.299622, -157.123398
1759223397.500732, 2.987664, 2.382081, 0.291344, -1.669662, 0.945293, 0.356890, -67.107361, -30.254639, -157.485031
1759223397.520734, 2.137723, 2.907309, -1.293019, -2.153188, 1.089249, 0.403822, -66.235397, -28.903580, -158.107651
1759223397.540735, 0.698508, 5.590910, -5.905747, -2.212119, 1.521607, 0.176513, -65.444092, -26.930176, -158.174515
1759223397.560732, -0.574758, 15.790658, -25.094825, 0.216446, 1.153068, -0.203247, -63.698013, -26.345886, -158.939850
1759223397.580734, 3.637541, 29.072491, -26.521470, 0.619703, 2.429520, 0.502957, -62.222900, -27.082733, -158.589554
1759223397.600850, -1.975216, 16.592715, -0.504428, -1.348229, -1.769476, -0.576155, -61.772995, -26.474075, -158.621399
1759223397.620757, -0.174926, 6.925827, -4.979042, 0.297692, -2.557182, -1.497178, -63.842438, -26.434326, -158.147400
1759223397.640720, 4.457255, 2.101511, 0.185551, 0.171118, -1.370602, -0.869514, -65.262985, -26.903412, -157.507935
1759223397.660749, 13.029245, 8.188020, 8.370728, -1.205542, -1.964989, 1.480858, -66.469681, -25.837219, -157.338745
1759223397.680675, 22.607848, 13.208511, -28.407951, 1.766960, 7.592432, 3.233906, -62.823441, -25.710663, -157.736633
1759223397.699821, 8.314314, 15.475820, -15.572935, 0.901499, 4.626858, 2.263586, -59.932388, -26.348694, -158.413681
1759223397.720728, -2.700061, 6.378901, 10.155306, -2.607427, -0.551984, -1.112653, -60.404587, -24.592056, -157.978653
1759223397.740754, -0.684891, 5.470302, 6.861034, -3.651976, -0.291083, -1.493490, -60.705414, -22.438614, -157.335648
1759223397.760780, 0.827346, 6.697779, 6.580463, -4.018471, -0.085270, -1.254227, -60.789490, -19.688980, -157.211884
1759223397.780740, 2.838176, 10.428095, 2.643648, -3.175087, -1.209992, -0.499895, -61.497360, -17.378845, -156.601303
1759223397.800870, 4.711639, 13.550882, 0.939275, -1.711179, -2.571227, 0.521971, -63.311417, -16.068085, -156.191315
1759223397.820730, 5.071368, 12.942456, 3.323451, -1.308780, -1.602291, 0.876711, -64.492676, -15.073242, -156.212082
1759223397.840710, 3.720739, 10.640580, 1.376067, -0.834960, -0.263542, 0.232150, -64.476196, -14.496689, -155.508469
1759223397.860749, 3.267936, 7.905804, -0.471209, -0.441238, 0.172342, -0.217960, -64.370605, -13.923264, -156.007004
1759223397.880341, 4.026748, 5.999271, -2.160168, -0.795371, 0.563142, -0.106099, -63.999619, -13.246796, -155.292374
1759223397.900084, 3.499126, 7.423522, 1.605462, -2.159014, 0.607366, 0.242905, -63.193695, -11.975555, -155.098053
1759223397.920736, 1.303643, 9.046042, 2.409016, -2.691863, -0.176900, 0.091612, -63.295853, -10.022903, -154.615082
1759223397.940724, 0.774225, 9.087492, 0.968006, -2.191845, -1.090031, -0.090394, -63.870850, -8.752106, -153.639099
1759223397.960734, 0.810886, 8.723573, 0.873285, -1.453519, -1.543270, -0.076939, -65.080444, -8.032578, -152.445679
1759223397.979840, 0.636558, 8.943989, 1.546355, -1.032453, -1.456763, 0.039026, -65.848541, -7.120911, -152.320541
1759223398.000740, 0.649726, 9.203012, 1.456273, -1.004189, -1.153397, 0.234246, -66.571213, -6.360870, -151.401260
1759223398.020861, 0.612766, 9.080010, 0.250194, -1.261021, -0.982023, 0.553605, -67.182602, -5.471558, -150.588242
1759223398.040732, 1.836353, 10.175507, -1.481113, -1.647636, -0.596455, 0.505696, -66.885406, -4.697739, -149.893280
1759223398.060747, 2.577358, 9.614665, -2.033276, -1.530696, -0.572612, 0.469103, -67.095505, -3.486298, -149.508484
1759223398.080248, 2.501342, 9.686042, -1.187524, -1.136601, -0.830057, 0.666828, -66.939880, -2.454102, -148.525314
1759223398.100752, 0.334889, 10.326042, -1.355866, -0.998541, -1.012195, 0.736611, -67.071609, -1.717407, -147.624008
1759223398.120737, -1.512238, 10.947038, -2.921375, -1.095081, -1.111580, 0.635955, -67.498093, -1.167114, -146.890015
1759223398.140697, -2.380884, 11.955745, -3.053954, -0.577859, -0.946086, 0.299748, -67.785126, -0.617432, -146.157410
1759223398.160761, -1.647211, 12.626421, -2.052729, 0.215206, -0.341480, 0.033562, -67.875671, -0.838928, -145.884201
1759223398.180651, -0.078410, 12.582428, -1.373972, 0.580585, 0.415072, -0.084820, -67.698929, -0.714813, -145.788742
1759223398.200749, 0.483629, 17.503111, 0.209493, 0.769778, 1.163156, -0.382188, -67.199570, -1.504959, -146.144394
1759223398.220930, 0.354791, 17.011401, -0.070180, 1.223017, 1.040166, -0.828156, -67.206100, -1.959229, -145.824142
1759223398.240742, 2.076371, 12.641834, -3.333776, 2.111156, 0.050508, -1.080801, -67.408066, -3.288910, -146.701782
1759223398.260786, 3.594595, 10.662577, -3.136703, 2.749392, -0.324085, -1.007917, -67.673157, -4.856445, -147.210480
1759223398.280795, 4.998794, 11.927015, -0.797718, 3.064929, -0.287844, -0.798311, -68.424896, -6.460587, -147.758392
1759223398.299922, 6.216994, 13.116335, 2.561347, 2.823933, -0.354767, -0.480693, -69.122009, -8.416794, -148.296860
1759223398.320859, 6.413168, 12.778602, 4.269011, 2.188522, -0.293029, -0.278226, -69.327850, -9.489044, -147.865494
1759223398.340747, 6.714389, 12.720393, 3.364302, 1.742914, -0.048137, -0.255632, -69.636459, -10.744995, -148.103745
1759223398.360906, 8.108263, 12.855815, 2.025495, 1.715262, 0.143404, -0.136640, -69.959290, -11.546448, -148.556076
1759223398.380862, 7.526472, 11.474211, 0.477494, 2.073734, -0.436184, -0.218505, -70.115372, -12.152924, -148.544067
1759223398.400870, 2.944120, 10.164284, 2.134580, 2.294156, -0.907758, -1.089294, -71.138290, -13.944778, -148.790344
1759223398.420874, 0.365565, 10.735002, 1.090708, 2.984902, -0.216957, -1.914650, -72.057114, -15.682770, -148.644882
1759223398.440783, -0.684742, 9.724948, 0.989105, 3.414156, 0.649872, -2.258263, -72.489868, -18.368164, -148.484299
1759223398.460828, -0.702100, 8.012645, 0.839916, 3.315753, 1.903622, -2.019126, -71.938202, -20.881851, -149.905334
1759223398.480924, 1.395221, 6.802226, 0.973093, 2.772830, 2.702154, -1.341163, -70.810104, -22.595917, -150.556763
1759223398.500762, 2.213290, 5.768829, 1.489044, 2.089931, 2.585065, -0.798870, -69.535507, -24.120956, -151.054077
1759223398.520792, 2.868403, 4.937442, 1.559822, 1.635734, 2.183536, -0.492881, -67.991821, -25.134338, -151.780075
1759223398.540787, 3.841646, 3.105130, 1.603816, 1.209722, 1.373181, -0.329642, -67.200974, -26.010468, -151.979568
1759223398.560780, 4.685153, 1.504756, 1.510891, 0.575900, 0.886497, -0.279534, -66.571152, -26.745834, -152.116638
1759223398.580739, 4.758625, 0.512658, 1.220893, -0.344879, 0.640114, -0.239231, -66.515152, -26.635132, -152.546753
1759223398.600768, 4.524143, 1.298854, 0.050578, -1.151142, 0.425797, 0.026831, -65.966049, -25.309265, -152.836716
1759223398.620927, 3.747225, 2.710685, -1.306486, -1.595315, 0.276223, 0.298638, -65.839752, -23.922440, -153.145157
1759223398.640838, 3.140444, 4.627693, -2.792537, -1.784538, 0.429804, 0.496733, -65.547272, -22.642090, -152.816971
1759223398.660740, 2.849399, 6.914604, -6.562806, -1.377857, 0.905517, 0.574940, -64.868622, -21.228760, -153.649551
1759223398.680750, 1.597232, 10.442909, -13.543999, -0.294277, 1.338030, 0.404569, -64.729111, -20.734283, -153.500153
1759223398.700808, 1.534683, 17.302147, -19.439271, 0.854543, 1.523350, 0.390229, -63.491562, -21.098526, -153.661713
1759223398.720816, 2.347066, 22.772898, -11.589732, -0.026285, 0.417284, 0.224521, -63.368744, -20.706528, -153.644424
1759223398.740767, 0.540042, 15.086762, -6.278345, -0.354486, -1.288208, -0.766471, -64.884171, -20.584869, -153.373398
1759223398.760935, 0.506823, 5.768081, -7.615656, 0.094423, -0.152233, -1.139911, -65.048370, -20.676208, -153.447998
1759223398.780755, 4.120122, 3.407099, -0.675315, -0.625771, -0.251540, -0.149619, -65.994064, -20.217133, -154.067322
1759223398.799839, 10.267085, 8.451532, 10.190620, -2.033905, -1.786922, 2.095548, -66.890060, -18.613449, -153.247818
1759223398.820830, 11.747749, 19.285294, -20.157981, 2.152187, -1.019968, 2.575004, -68.108063, -18.140045, -153.242493
1759223398.840792, 2.584690, 12.063335, 13.649344, -0.777033, -0.326359, 0.072349, -67.769669, -18.140930, -153.724121
1759223398.860839, -0.019603, 4.285920, 8.812607, -2.486322, -0.017412, -1.199613, -68.414734, -16.700409, -153.571564
1759223398.880749, 1.295113, 3.828179, 6.487538, -3.588723, 0.425947, -1.036038, -68.584564, -14.229752, -152.585739
1759223398.900217, 3.938162, 6.898742, 6.106112, -4.381670, -0.002205, 0.019136, -68.631851, -11.687744, -152.181641
1759223398.920756, 3.201048, 11.901277, -4.413112, -2.141503, -3.600324, 0.574105, -70.506790, -9.831085, -150.546738
1759223398.940745, 5.312135, 12.863447, 3.097349, -1.752024, -3.437608, 1.070909, -72.474594, -7.982147, -149.279938
1759223398.960758, 4.099621, 11.730241, 1.185878, -1.675547, -2.065742, 0.924461, -73.629501, -6.836212, -148.151428
1759223398.980745, 3.199551, 8.305037, -3.222595, -1.116288, -0.061903, 0.370573, -74.030502, -5.746674, -146.707718
1759223399.000737, 2.818724, 8.246229, -0.595109, -1.394342, 1.561506, 0.139197, -73.284607, -4.906799, -147.088959
1759223399.020757, 1.402404, 9.017461, 2.106598, -1.893470, 1.143166, -0.079458, -72.828735, -3.546997, -146.784363
1759223399.040734, 0.931494, 9.651625, 0.791433, -1.863660, -0.103925, -0.054061, -72.773727, -2.599045, -146.148972
1759223399.060742, 0.758064, 9.417443, 0.034417, -1.478944, -1.242999, 0.191768, -73.288345, -1.733047, -144.962555
1759223399.080766, -0.084994, 8.602067, 0.119860, -1.088044, -1.563390, 0.339081, -74.337891, -0.709320, -144.444534
1759223399.099776, -0.952294, 8.498817, 0.532261, -0.916238, -1.000412, 0.496667, -75.032166, -0.011398, -143.244095
1759223399.119860, -1.535581, 8.725668, 0.688782, -1.118045, -0.187628, 0.662352, -74.924149, 0.442581, -143.116318
1759223399.140731, -0.721104, 8.797793, 0.136619, -1.110643, 0.518864, 0.353855, -74.719986, 1.618195, -143.055771
1759223399.160668, 1.865083, 9.928754, -0.038906, -1.230254, 0.899350, 0.241248, -74.069397, 1.937210, -142.185654
1759223399.180551, 3.533842, 10.351331, -0.634164, -1.611612, 0.865066, 0.358392, -73.855392, 3.228790, -141.890701
1759223399.200743, 3.546262, 9.263316, -1.889624, -1.775586, 0.090108, 0.381636, -73.349762, 4.071243, -141.471420
1759223399.220325, 3.215712, 8.779837, -2.721609, -1.137039, -0.968963, 0.427060, -73.415222, 5.386520, -141.725098
1759223399.240830, 1.735198, 9.966014, -2.206406, -0.539598, -1.207634, 0.425255, -73.862854, 5.981430, -140.757843
1759223399.260933, 1.029507, 10.776002, -1.086668, -0.332821, -0.874537, 0.511385, -74.099014, 6.619843, -139.720978
1759223399.279903, 0.320374, 11.119870, -0.575656, -0.250429, -0.656860, 0.524986, -74.302032, 7.342148, -138.723251
1759223399.300748, -0.536301, 11.339837, -0.307056, -0.247819, -0.196049, 0.460967, -74.647324, 7.477585, -139.578888
1759223399.320680, -0.007632, 11.610382, -1.139790, -0.387889, 0.064557, 0.270174, -74.526016, 8.481720, -139.469543
1759223399.340738, -0.030825, 16.334890, -1.063175, 0.277842, -0.074801, -0.146370, -75.188232, 8.383713, -140.220383
1759223399.360746, -0.594211, 17.896508, -0.158915, 1.117062, 0.048722, -0.649600, -75.461990, 8.098328, -141.431091
1759223399.380748, 0.852635, 13.125462, -3.431789, 1.952413, 0.105181, -1.053369, -76.476074, 6.526291, -143.085892
1759223399.400745, 2.674174, 11.571925, -3.349488, 2.791455, 0.464967, -1.142027, -76.853607, 4.846100, -145.432144
1759223399.420765, 3.330484, 13.071593, 0.096816, 3.156611, 0.148800, -1.087939, -77.177460, 2.800858, -147.838089
1759223399.440736, 4.519654, 13.716980, 1.644068, 3.229881, 0.004731, -1.054018, -78.170624, 0.535843, -150.303070
1759223399.460756, 6.088455, 13.971364, 3.482815, 2.754790, 0.433493, -0.761941, -78.415695, -1.765198, -152.593399
1759223399.480751, 7.669975, 14.108581, 4.100968, 2.134165, 0.453638, -0.105253, -78.352554, -3.365219, -154.117218
1759223399.500781, 9.150639, 13.800627, 3.185485, 1.719388, 0.498652, 0.619874, -77.328568, -4.437988, -155.708542
1759223399.520134, 8.552088, 11.630283, 1.830966, 1.901136, 0.238317, 0.594181, -76.737289, -5.537231, -157.538803
1759223399.540148, 3.909881, 9.397541, -2.294992, 3.313227, -0.367264, -0.642066, -76.910614, -8.809692, -158.201904
1759223399.560799, 1.298555, 10.125228, 0.171634, 3.893814, -0.326514, -1.465033, -77.256805, -12.554214, -158.980118
1759223399.580464, 0.226551, 9.231593, 1.521366, 3.630094, 0.622717, -1.652026, -77.261322, -16.555664, -160.526184
1759223399.600861, 0.649726, 6.799383, 1.073201, 3.118288, 1.647865, -1.303056, -75.878143, -20.172806, -161.322296
1759223399.619803, 1.862988, 4.931756, 1.084424, 2.653360, 1.715756, -0.731585, -74.152802, -22.936157, -162.600693
1759223399.640467, 2.355146, 4.604948, 1.285088, 2.322456, 1.711782, -0.422275, -71.927475, -25.791092, -163.964478
1759223399.660376, 2.715923, 4.544045, 1.348235, 2.040246, 1.286812, -0.350948, -70.710373, -27.884827, -163.925095
1759223399.680750, 3.875913, 3.991284, 1.415422, 1.561834, 0.789433, -0.330283, -69.854202, -29.559906, -164.066711
1759223399.700812, 4.909909, 2.995745, 1.554884, 0.708493, 0.507035, -0.306521, -68.886902, -30.911896, -164.138474
1759223399.720186, 5.215319, 2.354847, 1.654992, -0.331687, 0.333852, -0.220523, -68.360779, -31.106827, -164.447037
1759223399.740728, 4.187010, 2.176778, 1.128268, -1.190899, 0.507100, -0.064803, -67.894424, -30.272583, -164.506851
1759223399.760339, 3.311630, 2.421735, 0.600047, -1.894660, 0.558343, 0.169515, -66.732178, -29.287781, -165.310089
1759223399.780287, 2.420239, 2.445976, -0.543933, -2.381917, 0.620506, 0.260425, -66.432724, -27.022781, -165.557419
1759223399.800754, 1.421557, 4.340239, -4.125060, -2.429719, 1.007017, 0.213118, -64.907227, -24.920776, -166.169388
1759223399.820604, 0.891541, 10.883592, -18.009185, -0.739925, 1.542646, 0.052025, -63.541107, -23.334229, -166.344635
1759223399.840398, 6.224775, 30.226347, -38.159085, 2.214832, 2.967976, 1.039012, -60.709396, -25.653976, -166.977966
1759223399.860759, 2.226907, 24.470986, -3.028665, -0.335977, -0.368804, 0.260142, -59.490631, -26.233231, -167.035034
1759223399.880748, 0.140210, 9.889699, -5.463269, -0.357493, -1.904927, -1.306345, -60.730576, -26.009659, -166.930206
1759223399.900767, 0.334290, -0.381277, -4.351162, -0.017992, -0.636412, -1.812266, -61.134109, -26.458298, -167.361313
1759223399.920521, 9.177873, 2.572420, 9.438392, -1.179111, -1.355383, 0.100062, -61.983063, -26.054443, -166.986755
1759223399.939791, 14.881759, 9.957185, 8.405144, -1.993250, -2.423228, 2.708207, -63.324234, -24.352707, -166.720108
1759223399.960754, 12.235268, 16.838720, -27.356597, 1.244582, 3.337053, 2.067782, -61.815903, -24.555206, -166.995667
1759223399.979917, 0.897526, 7.665037, 14.988301, -1.651197, -0.829127, -0.394135, -60.612411, -24.173187, -167.310120
1759223400.000380, 0.832284, 5.397279, 7.081300, -3.195645, -1.514037, -1.128977, -61.772339, -22.042542, -167.060364
1759223400.020750, 3.511845, 7.398682, 6.706308, -4.568551, -1.288100, -0.616515, -63.397079, -16.603561, -165.917130
1759223400.040111, 2.821267, 8.942044, 3.860650, -4.318283, -1.549282, -0.415199, -64.214661, -14.577667, -165.730148
1759223400.060752, 2.017863, 11.628338, -2.028038, -2.334843, -3.077115, -0.385667, -67.420776, -10.887833, -164.012863
1759223400.080753, 4.804714, 12.466608, 4.950610, -2.251387, -2.344170, 0.248050, -69.585220, -8.580597, -162.708588
1759223400.100749, 2.529175, 11.145458, 2.220323, -1.666343, -1.535590, 0.169266, -70.816223, -7.608444, -162.225266
1759223400.120748, 1.329829, 8.219743, -1.106420, -0.540188, -1.221762, -0.052658, -71.764496, -7.198761, -161.373413
1759223400.140738, 1.595885, 7.711574, -0.207697, -0.303784, -0.779003, 0.121921, -72.387421, -6.619431, -161.508896
1759223400.160881, 0.629974, 9.797223, -0.852037, -0.962211, 0.001354, 0.743692, -71.969330, -5.605301, -161.166519
1759223400.180753, 0.242712, 11.058817, -0.130933, -1.745075, 0.539810, 1.054399, -70.905289, -4.013672, -161.054306
1759223400.200282, 0.070779, 9.554062, -0.156970, -1.683762, 0.618428, 0.590563, -70.266068, -2.334167, -161.008804
1759223400.220750, 0.449362, 8.441805, 0.055964, -1.223309, 0.504928, 0.293689, -69.252762, -1.455887, -160.063171
1759223400.240783, -0.134674, 7.275680, 0.164601, -0.985976, 0.215996, 0.356398, -68.727295, -0.634460, -159.738144
1759223400.260771, -0.400430, 8.137443, 0.016011, -1.081023, 0.055456, 0.625165, -68.567627, 0.343903, -159.621490
1759223400.280361, 0.678158, 9.572916, 0.000599, -1.151010, 0.415646, 0.364727, -68.117310, 1.158768, -159.065323
1759223400.300754, 3.490147, 9.665991, -0.274884, -1.375800, 0.774988, 0.198748, -67.135239, 2.126129, -158.242249
1759223400.320747, 5.341165, 8.749760, -2.138022, -1.421803, 0.317225, 0.468568, -66.303894, 3.326630, -157.814102
1759223400.340757, 3.733009, 8.345140, -3.845686, -0.937337, -0.544466, 0.589300, -66.267624, 4.260635, -157.311401
1759223400.360889, 1.135001, 10.864139, -1.408389, -0.771497, -0.972997, 0.585847, -65.960327, 4.606049, -156.778091
1759223400.380755, -0.184054, 11.178228, -0.773926, -0.697200, -1.017811, 0.462813, -66.466232, 5.401001, -156.105988
1759223400.400774, 0.162207, 11.187506, -2.110189, -0.576800, -0.752287, 0.292704, -66.699112, 5.163132, -155.435822
1759223400.420753, 0.825401, 12.751368, -2.789095, -0.399349, -0.375047, 0.275527, -66.283615, 5.682159, -155.189789
1759223400.439755, 0.498443, 13.939790, -2.387917, 0.243805, -0.298517, 0.139119, -66.248260, 5.693222, -155.274323
1759223400.459829, -1.256208, 18.164958, 0.193481, 1.160320, 0.068553, -0.455371, -66.544601, 4.783051, -155.536331
1759223400.480755, -0.591966, 16.284761, -0.682497, 1.791224, 0.549177, -0.903236, -66.525940, 3.210358, -156.755310
1759223400.500857, 2.161814, 12.569858, -3.990386, 2.780907, 0.592518, -1.204838, -66.340591, 1.103180, -157.277679
1759223400.520750, 4.508132, 12.213122, -0.582689, 3.160263, 0.225455, -1.163691, -66.721146, -1.463379, -158.638565
1759223400.540222, 5.987898, 13.879636, 1.649156, 3.009683, -0.371296, -0.996665, -67.050156, -4.823212, -159.503586
1759223400.560828, 7.065588, 14.519337, 4.123563, 2.396908, -0.350258, -0.704911, -67.843628, -7.607193, -159.924377
1759223400.580759, 8.307880, 13.916148, 4.080617, 1.793054, -0.235477, -0.173858, -68.169296, -9.138809, -160.625443
1759223400.600772, 8.628703, 12.035352, 1.831265, 1.701761, -0.013553, 0.160041, -68.087128, -11.112823, -160.450180
1759223400.620748, 7.317279, 9.857976, -0.909198, 2.269748, -0.692080, -0.023151, -68.476501, -12.828766, -160.630356
1759223400.640581, 4.895544, 9.141511, 0.668730, 2.392213, -1.334337, -0.513256, -69.968552, -14.811966, -160.427338
1759223400.660752, 2.454356, 8.827122, 1.162983, 2.613775, -0.030885, -1.004277, -70.569595, -17.177734, -160.483963
1759223400.680688, 0.346411, 8.434024, 0.434847, 2.974090, 0.454218, -1.334588, -70.226288, -19.939011, -160.051300
1759223400.700756, -0.062698, 7.259968, 0.846799, 3.035057, 0.757416, -1.283122, -70.092468, -23.213104, -160.328049
1759223400.720351, 1.146074, 6.130353, 0.717213, 2.837276, 1.419492, -0.867194, -69.255447, -25.427216, -160.202744
1759223400.740228, 1.483956, 5.188983, 0.969652, 2.303766, 1.535339, -0.523526, -68.264130, -27.575500, -160.109009
1759223400.759847, 1.379958, 4.680664, 1.005864, 2.019904, 1.436068, -0.414048, -67.292130, -29.626968, -159.971893
1759223400.779940, 2.209698, 4.027795, 1.046416, 1.512637, 1.184999, -0.220139, -66.380417, -30.297836, -159.388901
1759223400.800765, 3.866336, 2.631826, 1.203685, 0.694434, 0.658285, -0.128941, -65.854584, -31.414627, -159.535065
1759223400.820800, 3.974824, 2.040458, 1.060631, -0.045537, 0.505527, -0.141519, -65.568497, -31.412247, -159.664062
1759223400.840818, 3.500173, 1.993472, 0.945410, -0.482477, 0.521214, -0.122139, -65.374588, -31.078522, -159.492798
1759223400.860320, 2.333598, 2.857629, -0.257676, -1.191694, 0.909197, -0.017363, -64.272202, -30.118973, -159.946732
1759223400.880760, 1.499818, 4.298789, -1.211765, -1.696212, 0.869198, 0.039730, -64.012848, -28.785675, -159.692902
1759223400.900771, 1.619827, 5.995829, -3.596689, -1.752759, 0.714371, 0.174791, -63.395172, -27.365097, -159.774994
1759223400.920778, 2.050634, 9.114277, -9.138219, -1.058731, 0.712358, 0.283988, -62.981476, -26.099106, -159.802368
1759223400.940744, 1.905635, 16.213234, -20.485687, 0.561190, 1.499996, 0.032518, -62.003998, -26.371185, -160.435867
1759223400.960669, 1.926734, 22.318000, -17.105374, 0.277329, 1.383119, -0.337856, -60.822769, -27.034637, -160.177948
1759223400.980761, 1.785626, 16.491261, -6.416012, -0.395560, -0.866612, -1.007237, -61.719635, -26.736298, -160.019577
1759223401.000602, 2.482787, 8.046164, -7.497143, 0.763418, -0.358262, -1.256062, -62.386429, -27.621613, -159.434341
1759223401.020758, 7.539940, 5.111321, -4.598064, 0.525297, 0.769252, -0.165575, -61.861862, -27.946671, -159.426697
1759223401.040746, 11.537957, 9.334693, 7.680898, -0.929784, -0.601427, 1.851406, -61.927460, -27.561630, -159.336395
1759223401.060783, 5.082591, 16.848745, -10.553940, 1.348699, -3.222845, 0.962243, -64.723953, -27.999832, -158.404572
1759223401.080761, 4.928763, 6.211906, 10.145729, -0.802319, -0.322496, -0.183047, -65.356598, -27.642975, -158.167953
1759223401.100839, 1.055544, 1.313968, 8.212112, -1.997222, -0.152126, -0.667742, -65.555481, -26.571686, -157.762070
1759223401.119898, 3.043479, 3.951929, 6.703765, -3.230578, 0.084003, 0.080932, -65.666229, -24.215485, -157.201492
1759223401.140827, 6.900688, 9.506776, 7.328801, -4.463572, -0.117094, 1.507474, -65.401382, -20.693649, -156.944595
1759223401.160380, 3.448847, 13.682563, -0.997634, -2.753247, -2.561024, 1.041527, -66.633682, -17.313217, -156.328278
1759223401.180204, 3.700089, 15.249867, -0.107739, -1.482070, -2.681798, 0.232300, -68.803970, -16.416580, -155.522278
1759223401.200842, 4.365228, 12.009316, 1.439514, -1.761637, -0.950727, 0.221830, -70.115433, -15.626633, -154.767624
1759223401.220761, 2.967613, 8.069956, -1.692252, -1.745810, 0.580140, 0.199285, -69.773773, -13.830368, -154.544846
1759223401.240747, 2.415151, 7.355137, -0.684442, -1.880092, 1.156732, 0.191729, -69.233887, -12.543839, -154.579361
1759223401.259780, 2.259677, 8.381950, 0.894234, -2.060328, 0.710830, 0.283967, -68.227402, -11.354462, -153.690216
1759223401.280762, 1.641375, 9.264663, 1.250372, -1.969879, 0.023332, 0.329715, -68.481049, -9.851730, -153.023407
1759223401.300699, 0.900519, 8.997559, 0.574309, -1.591436, -0.540861, 0.376147, -67.960022, -8.614960, -152.585968
1759223401.320751, 0.170587, 8.181286, -0.256329, -1.167495, -0.707650, 0.495122, -68.464523, -7.626144, -152.706543
1759223401.340764, -0.803105, 8.105719, 0.051924, -1.198635, -0.565490, 0.601989, -69.140289, -6.779282, -151.392776
1759223401.360168, -0.888249, 9.237578, 0.621146, -1.240167, 0.213948, 0.535401, -68.915146, -5.549240, -150.499023
1759223401.380766, 0.373495, 9.169194, 0.242413, -1.133392, 0.543740, 0.356807, -68.581696, -4.935150, -150.820480
1759223401.400823, 2.610278, 8.510489, -0.706589, -1.254767, 0.840933, 0.366489, -68.219437, -4.291977, -150.401550
1759223401.420758, 4.355651, 9.208249, -0.928801, -1.534684, 0.959786, 0.382646, -67.316376, -2.721115, -149.819107
1759223401.440748, 4.372261, 9.449315, -1.713799, -1.490304, -0.122626, 0.554524, -67.420364, -1.546402, -148.813217
1759223401.460573, 2.569577, 9.705196, -3.013851, -1.002273, -1.369169, 0.675103, -68.026672, -0.995544, -148.016891
1759223401.480761, 1.618181, 11.498602, -1.710208, -0.859551, -1.292720, 0.621273, -68.574188, -0.513611, -147.537994
1759223401.500757, -0.066439, 12.554296, -1.807922, -0.708097, -0.973570, 0.574097, -68.882126, 0.003571, -146.595078
1759223401.520760, -1.619528, 13.383887, -1.456423, -0.378452, -0.626415, 0.410719, -69.096542, -0.003677, -145.548904
1759223401.540748, -1.495777, 12.984953, -2.974197, -0.186021, -0.273156, 0.201111, -69.273026, 0.872131, -145.844482
1759223401.560760, -1.194407, 16.527324, -2.557157, 0.745201, -0.160307, -0.233239, -69.611206, 0.030991, -145.813843
1759223401.579821, -0.806846, 17.241993, -1.234510, 1.613390, 0.614407, -0.749037, -69.741699, -0.883118, -146.706223
1759223401.600762, 0.832733, 13.370569, -2.787749, 2.547884, 1.040014, -1.009788, -69.793579, -2.625870, -147.983322
1759223401.620754, 3.165883, 10.239851, -1.214309, 2.893389, 0.362003, -1.123708, -70.332535, -4.480576, -148.427689
1759223401.640736, 4.991462, 12.418724, 1.323395, 2.821831, -0.922452, -1.129689, -71.364044, -6.454254, -149.511612
1759223401.660765, 5.810727, 14.072070, 3.433584, 2.558175, -0.846450, -1.191427, -72.924103, -8.745651, -149.508118
1759223401.680767, 6.553678, 14.186543, 4.444686, 2.160167, -0.037069, -1.160186, -73.161407, -9.806992, -149.475098
1759223401.700886, 7.885902, 14.005182, 3.469497, 1.833026, 0.477589, -0.765674, -73.625702, -11.698044, -150.992065
1759223401.720757, 8.788965, 13.027300, 2.669984, 1.652356, 0.644135, -0.195632, -73.390884, -12.680237, -151.038666
1759223401.740749, 5.581632, 10.544663, -2.395848, 2.624715, -0.465751, -0.347246, -73.249908, -13.742340, -151.220123
1759223401.760757, 4.998943, 10.197653, 0.774674, 2.878545, -1.161354, -0.790980, -74.649399, -16.435074, -151.357681
1759223401.780560, 1.969381, 9.623344, 1.393874, 3.027151, 0.337198, -1.446010, -74.692276, -18.542297, -152.267166
1759223401.800831, 1.603217, 8.339304, 0.632668, 3.301643, 1.403079, -1.611450, -74.340866, -21.300629, -152.459946
1759223401.820802, 1.678784, 6.706009, 1.520318, 3.137594, 1.756537, -1.301804, -73.547974, -23.865555, -152.700012
1759223401.840554, 2.254889, 5.511452, 1.999907, 2.630016, 1.773468, -0.866780, -72.197922, -26.027802, -152.977173
1759223401.860857, 2.044349, 4.464737, 1.356465, 2.207399, 1.820632, -0.609217, -71.131058, -27.589035, -154.012421
1759223401.880817, 2.273444, 3.917064, 1.648707, 1.741793, 1.599582, -0.430243, -69.905716, -29.160370, -154.315491
1759223401.900763, 3.047370, 2.920627, 1.848324, 1.127421, 1.115371, -0.292581, -68.929901, -30.347305, -154.258942
1759223401.920832, 4.056825, 1.682076, 1.798345, 0.269468, 0.703225, -0.220606, -68.294250, -30.707932, -154.364334
1759223401.940751, 4.413561, 0.816872, 1.485004, -0.629762, 0.705071, -0.080968, -67.646515, -30.509491, -155.038239
1759223401.960907, 4.013879, 1.080084, 0.589871, -1.363016, 0.866887, 0.235175, -67.454391, -29.718079, -155.515381
1759223401.980767, 2.736124, 2.863914, -1.694796, -1.739224, 1.170538, 0.355998, -66.701004, -28.356781, -155.826462
1759223402.000868, 3.024176, 6.861034, -6.021567, -1.547643, 1.034760, 0.465174, -66.210129, -27.216568, -156.337112
1759223402.020764, 3.605668, 13.538911, -17.479168, -0.179124, 1.127178, 0.322413, -65.393250, -26.274597, -156.499924
1759223402.040752, 2.662352, 20.383485, -21.809232, 0.614360, 1.889439, -0.096306, -64.594971, -26.884537, -156.765945
1759223402.060857, -0.632668, 16.725743, -5.427206, -0.929045, -0.443308, -0.842563, -63.810837, -26.871994, -156.862030
1759223402.079791, -0.687734, 10.106075, -6.459706, -0.082718, -1.253758, -1.173132, -64.607437, -26.375656, -156.308975
1759223402.100781, 2.059612, 4.909759, -6.638373, 0.506605, 0.013630, -0.618073, -65.095169, -26.942200, -156.765259
1759223402.120762, 11.491569, 9.499294, 6.403143, -1.233222, 0.077176, 1.435127, -65.002991, -26.341904, -156.791794
1759223402.140752, 9.312098, 19.903747, -14.087632, 1.342075, -2.655567, 1.797618, -65.814758, -25.685226, -156.755264
1759223402.160757, 6.724415, 14.908544, 6.848763, -0.027167, -0.796443, -0.383707, -67.296829, -26.384964, -156.152954
1759223402.180152, 2.446874, 3.721338, 10.430190, -1.467301, -0.060538, -1.178911, -67.429001, -25.850189, -156.066833
1759223402.200563, 1.109264, 2.016816, 6.614132, -2.602061, -0.068345, -1.105338, -67.618896, -24.771240, -156.392761
1759223402.220760, 3.747075, 4.770596, 5.796661, -3.791717, -0.181959, 0.021712, -67.615082, -22.404068, -156.613602
1759223402.240754, 4.288165, 9.751583, 0.745794, -3.162966, -1.850739, 0.949533, -67.857086, -19.310349, -155.538345
1759223402.260764, 3.955371, 13.230658, 1.131260, -2.268815, -2.927584, 1.232167, -70.331299, -17.358551, -154.197678
1759223402.280604, 4.374057, 13.506739, 3.466355, -2.300099, -1.722514, 0.878876, -71.206772, -15.093674, -153.498230
1759223402.300587, 1.848473, 10.880898, -0.650774, -1.728813, -0.804775, -0.086965, -72.307388, -14.039703, -153.314392
1759223402.320760, 3.450494, 8.406641, -0.764648, -1.422361, 0.217576, -0.159350, -72.661316, -13.005783, -152.851761
1759223402.339888, 3.600430, 8.101679, -0.082899, -1.454207, 0.643386, 0.004108, -72.456909, -12.186478, -152.631439
1759223402.360807, 2.137872, 8.895956, 1.205331, -1.614223, 0.299019, 0.418112, -72.069687, -10.956161, -152.426346
1759223402.380776, 1.414225, 9.400085, 1.268029, -1.604794, -0.103860, 0.435514, -72.055054, -9.827133, -152.289398
1759223402.400778, 0.546776, 9.029283, 0.696264, -1.500315, -0.743468, 0.413958, -72.444687, -8.861572, -151.681061
1759223402.420791, 0.008529, 8.234108, -0.020500, -1.345877, -0.972417, 0.438849, -72.833130, -7.802246, -150.382568
1759223402.440755, -0.159214, 8.717438, 0.258574, -1.308269, -0.605708, 0.483239, -73.007614, -6.770645, -150.062561
1759223402.460852, -0.096367, 9.322722, 0.746243, -1.254141, 0.085422, 0.490140, -73.119019, -5.640411, -149.674591
1759223402.480950, -0.082301, 8.559271, 0.176423, -1.100200, 0.221097, 0.470114, -72.315125, -4.758362, -149.279449
1759223402.500351, 0.914136, 8.656086, -0.958429, -1.025550, 0.216094, 0.425328, -72.683014, -4.406235, -149.045578
1759223402.520836, 3.122937, 9.623643, -1.247529, -1.244105, 0.526407, 0.351062, -71.887085, -3.621201, -148.817596
1759223402.540818, 3.994725, 9.114875, -1.559074, -1.491304, 0.279041, 0.483668, -71.671738, -2.535980, -148.508087
1759223402.560811, 2.316989, 9.409063, -1.492635, -1.320329, -0.389681, 0.602052, -71.742111, -1.545654, -148.233139
1759223402.580128, 1.076343, 10.938210, -1.486650, -0.987652, -0.906974, 0.645516, -71.665924, -0.718353, -147.464401
1759223402.600885, -0.029628, 11.931953, -1.999757, -0.802681, -0.948685, 0.530151, -71.935913, -0.126465, -146.888367
1759223402.620790, -0.697760, 11.695376, -1.995866, -0.426747, -0.697685, 0.315323, -72.170486, 0.144104, -146.610245
1759223402.640932, -0.158317, 11.510424, -2.396596, -0.303100, -0.513725, 0.081674, -72.424652, 0.197098, -146.237549
1759223402.660873, 0.954688, 11.421988, -3.579930, -0.069334, -0.664682, -0.096238, -72.678802, 0.330765, -146.214951
1759223402.680956, 0.495151, 15.580417, -2.289755, 0.802555, -0.706479, -0.287021, -73.072357, -0.048691, -146.471527
1759223402.700820, -1.407192, 15.911864, -2.314744, 1.696623, -0.326326, -0.633128, -73.185654, -1.042084, -147.088898
1759223402.720837, -1.443554, 13.746309, -3.824288, 2.768102, 0.281985, -1.286306, -73.593735, -2.910400, -148.653412
1759223402.740804, 2.737620, 12.392986, -0.767042, 3.074183, 0.444299, -1.525488, -74.380646, -5.093628, -150.059326
1759223402.760920, 5.342511, 14.711471, 0.619799, 3.057203, -0.072425, -1.502365, -74.100540, -7.823013, -151.196503
1759223402.780804, 6.558018, 15.457714, 3.533692, 2.723535, 0.327788, -1.324395, -73.859421, -10.360229, -152.318237
1759223402.800526, 7.710227, 15.408334, 4.022857, 2.294850, 0.677481, -0.841282, -73.499786, -12.158600, -153.638809
1759223402.820790, 9.616610, 15.109058, 4.034828, 1.829922, 0.367462, 0.008016, -72.935303, -14.073135, -154.303482
1759223402.840947, 9.740959, 12.840403, 3.286940, 1.677783, -0.193685, 0.476513, -72.709259, -15.834595, -154.913025
1759223402.860907, 6.068403, 9.801413, -4.760421, 3.492201, -0.473571, -0.266714, -73.201996, -18.418274, -154.634750
1759223402.880858, 4.004901, 10.612598, 0.621744, 4.132650, 0.015645, -0.781308, -72.627716, -21.597275, -155.263611
1759223402.899985, 1.587356, 9.717616, 3.055151, 3.746491, 0.527809, -1.026389, -72.189972, -23.113312, -155.685745
1759223402.920082, -0.395791, 7.683891, 2.496703, 3.141595, 0.466786, -1.199948, -71.459274, -27.684616, -155.397934
1759223402.940771, 1.538275, 5.062240, 1.073201, 2.712960, 1.108110, -0.889878, -70.515427, -30.079651, -155.415924
1759223402.960778, 2.258780, 3.558831, 1.080383, 2.416399, 1.591873, -0.647428, -69.461731, -31.703674, -155.453445
1759223402.980781, 2.095375, 2.128146, 1.939453, 1.955654, 1.505718, -0.543731, -67.737076, -33.443069, -155.504745
1759223403.000263, 2.706495, 1.853411, 2.097021, 1.424106, 1.096671, -0.393430, -67.036453, -34.715530, -155.682632
1759223403.020772, 3.301903, 1.523610, 2.215834, 0.654838, 0.800502, -0.273968, -65.900421, -35.500946, -155.271683
1759223403.040772, 4.286220, 1.465551, 2.147000, -0.399562, 0.683891, 0.022448, -65.460907, -34.850189, -155.580246
1759223403.060771, 3.752612, 1.111508, 1.441010, -1.503140, 0.547773, 0.343073, -64.872849, -33.932343, -155.785675
1759223403.080773, 2.611326, 2.067842, 0.172682, -2.235920, 1.213434, 0.559620, -63.982086, -32.458313, -156.825867
1759223403.100680, 2.341679, 4.580706, -1.936460, -2.659160, 1.735039, 0.817206, -62.777817, -30.153290, -156.950287
1759223403.120771, 3.020585, 10.039037, -12.197260, -1.443118, 1.481237, 0.825534, -61.492920, -29.220688, -157.311279
1759223403.140762, 7.240664, 22.998252, -33.227030, 2.532646, 1.994458, 0.567605, -59.836533, -30.708221, -157.043304
1759223403.160811, 6.443096, 22.637027, -8.623615, 0.573922, 1.508046, 0.097581, -58.401138, -31.405426, -156.964676
1759223403.180774, 0.947954, 12.981960, -5.661090, -0.702046, -2.738947, -1.365628, -59.852600, -30.865982, -157.005692
1759223403.200869, 4.680365, 4.009989, -8.129811, -0.036232, -2.014767, -1.512027, -60.866806, -30.860825, -156.583191
1759223403.220015, 11.564144, 3.719991, -2.621950, -0.615523, 0.537925, 0.034548, -60.942139, -30.736115, -157.087189
1759223403.240761, 10.267384, 13.946973, -4.813692, 0.445773, -2.076209, 1.572927, -61.550964, -30.551666, -156.319336
1759223403.260772, 1.927482, 13.113192, 7.417536, 0.130000, -2.270479, 0.892949, -64.083054, -30.835785, -155.488358
1759223403.280775, 1.627159, 5.241955, 9.330952, -1.209239, 0.342660, 0.429029, -64.125473, -29.868179, -155.412445
1759223403.300752, -0.957381, 2.195333, 6.271761, -2.289126, 0.458139, -0.111837, -63.767548, -28.604141, -155.324341
1759223403.320377, 1.125275, 5.677550, 4.124761, -3.114851, -1.311119, 0.183476, -63.849228, -25.984940, -155.848267
1759223403.340371, 4.563797, 15.502156, 1.373673, -3.317847, -2.654066, 0.946682, -65.760559, -23.685699, -155.174118
1759223403.360245, 3.100342, 16.196774, -1.415272, -2.420382, -1.936576, 0.607790, -67.436310, -21.522156, -154.754211
1759223403.379901, 3.780594, 12.597691, -0.013318, -1.907708, -0.756486, 0.207127, -68.144516, -19.838486, -154.173477
1759223403.400828, 3.962254, 8.764125, 1.555184, -2.095172, -0.389914, 0.297040, -68.644989, -18.521149, -153.802429
1759223403.420784, 2.941576, 7.201759, 0.706738, -2.197062, 0.060114, 0.157586, -68.929916, -17.012009, -153.767914
1759223403.440785, 3.144185, 7.219715, 0.071826, -2.125572, 0.561081, 0.056495, -68.316208, -15.408783, -153.392212
1759223403.460771, 3.609409, 8.194604, 0.358681, -1.993869, 0.603432, 0.124877, -67.700989, -14.089188, -153.093842
1759223403.480779, 2.397344, 8.781483, 0.139612, -1.721324, 0.168651, 0.139598, -67.205215, -12.623032, -152.545273
1759223403.500870, 1.121534, 8.681674, -0.487070, -1.465645, -0.299255, 0.119589, -67.802719, -11.771774, -152.449005
1759223403.520839, 0.357335, 8.201338, -1.052850, -1.541689, -0.338082, 0.230920, -67.888824, -10.594696, -151.663605
1759223403.540336, 0.252439, 8.919898, -0.542885, -1.906067, -0.141549, 0.416946, -67.951645, -9.667374, -151.451416
1759223403.560775, -0.168193, 10.177751, 0.021099, -1.917426, -0.048010, 0.366384, -67.617966, -8.251755, -150.573257
1759223403.580812, -0.135572, 9.924116, -0.135123, -1.383424, -0.070068, 0.145804, -67.397720, -7.292709, -150.189804
1759223403.600962, 0.913538, 8.632743, -0.579995, -0.848942, -0.075309, 0.255006, -67.955383, -6.582642, -149.829300
1759223403.620842, 1.956362, 8.249371, -0.670227, -0.854858, 0.460022, 0.406495, -67.721817, -5.775787, -150.031876
1759223403.640751, 3.795707, 9.089437, -1.385943, -1.509031, 1.267696, 0.396926, -67.121109, -5.204086, -149.651520
1759223403.660778, 2.532616, 9.068787, -3.335572, -1.605552, 0.328892, 0.446289, -66.569626, -4.149704, -149.157822
1759223403.680561, 0.713622, 9.943119, -2.877381, -0.864301, -1.409971, 0.405474, -66.766663, -2.981445, -148.376968
1759223403.700775, 1.516727, 11.746702, -0.538097, -0.568225, -1.507728, 0.253049, -67.425812, -2.391937, -147.645996
1759223403.719929, 2.077868, 12.316522, -0.448165, -0.546177, -0.657846, 0.291984, -68.223969, -1.985794, -147.014801
1759223403.740567, 2.065149, 13.213449, -1.650952, -0.408827, -0.119428, 0.522197, -68.303543, -1.840149, -146.701843
1759223403.760425, -0.301071, 13.207464, -5.216367, 0.164501, -0.862331, 0.460251, -68.483490, -1.563675, -146.408417
1759223403.780101, -1.815852, 17.371579, -2.486528, 0.954299, -1.108201, -0.070883, -69.551147, -1.487518, -146.128815
1759223403.800775, -1.976264, 17.020829, -0.330549, 1.760457, -0.061622, -0.614103, -70.269562, -2.119659, -146.305511
1759223403.820467, -0.323217, 12.769325, -2.935890, 2.709605, 0.707069, -1.063021, -70.876068, -2.959244, -147.168213
1759223403.840752, 3.171569, 10.418668, -1.657236, 3.143576, 0.436109, -1.282629, -71.181107, -5.616318, -148.848877
1759223403.860806, 4.959888, 12.043732, 1.190218, 3.096813, -0.520644, -1.221449, -71.704529, -7.656662, -149.475357
1759223403.880536, 5.457882, 12.804490, 2.389413, 2.915884, -0.801716, -1.163932, -72.734177, -9.628677, -149.731186
1759223403.900896, 6.702867, 14.219014, 4.540603, 2.288881, -0.960757, -1.311692, -74.329376, -11.131897, -150.384506
1759223403.920733, 8.073248, 14.800506, 3.583222, 2.026387, -0.605237, -1.168599, -75.265930, -13.178406, -150.674896
1759223403.940847, 11.948862, 16.115820, 3.501969, 1.747759, -0.606842, -0.275291, -76.096725, -14.174896, -150.844055
1759223403.960797, 10.884639, 11.804312, -1.068861, 2.379778, 0.521328, -0.056160, -76.081070, -15.745453, -151.084290
1759223403.980829, 6.204424, 9.839570, -2.043900, 3.443152, 1.397066, -0.496433, -75.797836, -18.230362, -152.843323
1759223404.000044, 3.672855, 10.070012, 0.454449, 3.869873, 0.928620, -0.596302, -75.557465, -20.995270, -153.467026
1759223404.020780, 0.051026, 8.814553, 1.595885, 3.616209, 0.495503, -1.022284, -75.656982, -23.716019, -153.219070
1759223404.039944, 0.660500, 7.166294, 2.229151, 3.061338, 0.956317, -1.142680, -75.230362, -25.921783, -154.074112
1759223404.060779, 1.737143, 5.360169, 1.650802, 2.607620, 1.470067, -0.894884, -74.730530, -28.136246, -154.506424
1759223404.080785, 2.401384, 3.656844, 1.548151, 2.237159, 1.391290, -0.526766, -73.568542, -30.014114, -154.541245
1759223404.100809, 2.767398, 2.825457, 1.653047, 1.791069, 1.245834, -0.250916, -73.000778, -31.627014, -154.834366
1759223404.120792, 3.167828, 2.238878, 1.589451, 1.204288, 0.866207, -0.126709, -72.352066, -32.459930, -154.767853
1759223404.140800, 3.341857, 1.801936, 1.940500, 0.414096, 0.472433, -0.082043, -71.964874, -32.821594, -155.369781
1759223404.160799, 3.634997, 1.732205, 2.115726, -0.470087, 0.527750, 0.054219, -71.682175, -32.905731, -155.429031
1759223404.180726, 3.234118, 1.588254, 1.559523, -1.422609, 0.740434, 0.229658, -71.262207, -31.846283, -156.264435
1759223404.200861, 3.000833, 2.447323, 0.266804, -2.207765, 1.014219, 0.352730, -70.895157, -29.576263, -157.602509
1759223404.220833, 3.192069, 4.712088, -2.408268, -2.532675, 1.323037, 0.411278, -69.890900, -27.788376, -158.367264
1759223404.240732, 2.381632, 9.843012, -12.923152, -1.399554, 1.281514, -0.018549, -69.000107, -26.978897, -158.711441
1759223404.260448, 4.475212, 20.273800, -30.975433, 1.746161, 1.406602, -0.479849, -67.572556, -28.251083, -159.818481
1759223404.280782, 5.387103, 21.891682, -11.158775, -0.010520, 1.244197, 0.091173, -67.045792, -28.342529, -159.603210
1759223404.300804, -3.063531, 13.395259, -5.990293, -0.531239, -1.832117, -1.132191, -68.380219, -28.627472, -159.584244
1759223404.320780, 0.319177, 4.175338, -6.175394, 0.669882, -0.812758, -1.363159, -68.803192, -29.341202, -159.734146
1759223404.340825, 4.817732, 0.831686, -1.661576, 0.021729, 0.767523, -0.316068, -68.548340, -29.398651, -160.161331
1759223404.360756, 11.877335, 8.867674, 11.354352, -1.754247, -1.218288, 2.254710, -69.845734, -28.293015, -159.485321
1759223404.380560, 11.363031, 27.504589, -30.210336, 2.594929, -0.430005, 1.883685, -70.592285, -29.357834, -159.858276
1759223404.400801, 1.965191, 8.333019, 20.205865, -0.873405, -0.081802, -0.410766, -70.439224, -29.075272, -160.225266
1759223404.420784, 0.609773, 2.476353, 6.886023, -1.757803, 0.093712, -1.199638, -70.623367, -27.922272, -160.962799
1759223404.440776, 1.025766, 3.121889, 6.014235, -3.073698, -0.572751, -0.948253, -71.188766, -25.869949, -160.258408
1759223404.460778, 3.784335, 8.027459, 3.818452, -3.846179, -1.853436, 0.132193, -72.417709, -22.559311, -160.273727
1759223404.480788, 2.749591, 14.114866, -3.422960, -2.609399, -3.234911, 0.687145, -75.501801, -20.009689, -158.661316
1759223404.500822, 6.040720, 14.616302, 3.472790, -2.540856, -1.811016, 1.099907, -76.636093, -17.934586, -157.858627
1759223404.520782, 3.393033, 12.019491, 0.547374, -2.092374, -0.897831, 0.444504, -77.129791, -15.939026, -157.431412
1759223404.539846, 3.281104, 8.572289, -0.901417, -1.627145, -0.430985, -0.012743, -77.663239, -14.817123, -157.425568
1759223404.560800, 3.420267, 7.652317, 0.105644, -1.697579, 0.256965, 0.039311, -77.402557, -13.792953, -156.998520
1759223404.580840, 2.421436, 8.021922, 0.159813, -1.929965, 0.358177, 0.186524, -76.992874, -12.033707, -156.477219
1759223404.600784, 1.569250, 9.737667, 0.927454, -2.066059, -0.063432, 0.242392, -77.004608, -10.297256, -156.546051
1759223404.620758, 0.763451, 9.557803, 0.943615, -1.956142, -0.506479, 0.197225, -77.709274, -9.126450, -155.691269
1759223404.640308, 0.216376, 8.611345, -0.223559, -1.582384, -0.814117, 0.256471, -78.018143, -7.378769, -154.817596
1759223404.660772, 0.195576, 8.102128, -0.068684, -1.493670, -0.625888, 0.487866, -78.012085, -6.080170, -154.055725
1759223404.680779, 0.077213, 8.601768, 1.191564, -1.622234, -0.135780, 0.606733, -78.399628, -4.788559, -153.070465
1759223404.700859, 0.191686, 8.755895, 1.364994, -1.340655, 0.310083, 0.464458, -77.894394, -3.456253, -153.305878
1759223404.720766, 0.822109, 7.979425, 0.847847, -1.013840, 0.416236, 0.406983, -77.282700, -2.397629, -152.831635
1759223404.740652, 2.472612, 8.132953, 0.039804, -1.073061, 0.739852, 0.513873, -76.836151, -1.678284, -152.660919
1759223404.760770, 4.554819, 9.909601, -1.060033, -1.831654, 1.283999, 0.525147, -75.866119, -0.244766, -152.765915
1759223404.780463, 2.651728, 9.863961, -2.233790, -2.074823, 0.218997, 0.530772, -75.184387, 1.328064, -152.074982
1759223404.800846, 0.166996, 10.465355, -4.021511, -1.221797, -1.332927, 0.439182, -75.298203, 2.628128, -151.295212
1759223404.820807, 0.517596, 11.965172, -3.804237, -0.526173, -1.566650, 0.427725, -75.956863, 3.172592, -149.983322
1759223404.840762, -0.214580, 12.890980, -2.433856, -0.173037, -0.792622, 0.424321, -76.454483, 3.199448, -150.570999
1759223404.860803, -0.935085, 13.048698, -1.697639, 0.193918, -0.065989, 0.328429, -76.378021, 3.497070, -149.493210
1759223404.880777, -0.388310, 12.296620, -1.796998, 0.310485, 0.227197, 0.100265, -76.037521, 3.695465, -149.770996
1759223404.900788, -0.695815, 14.759655, -0.400580, 0.557944, 0.148698, -0.129843, -75.975647, 3.351288, -150.636719
1759223404.920769, -1.806425, 15.956606, 0.657208, 1.162484, 0.409883, -0.554832, -75.957489, 3.003448, -151.485611
1759223404.940762, -1.043573, 15.107412, -1.142034, 2.044481, 0.829464, -1.214727, -75.883133, 1.365417, -152.840790
1759223404.960152, 2.983175, 12.279860, -2.117222, 2.793802, 1.018412, -1.405301, -75.611420, -0.729721, -154.885040
1759223404.980779, 4.598214, 12.649465, -0.797568, 3.263478, 1.084759, -1.169740, -75.007248, -3.628616, -156.653534
1759223405.000768, 7.354090, 14.240412, 1.180790, 3.419008, 0.891089, -0.576007, -74.275360, -6.440002, -158.267822
1759223405.020470, 8.624214, 14.840010, 4.859930, 2.797737, 0.497335, 0.115784, -73.547470, -8.517334, -159.163422
1759223405.040761, 8.753650, 14.270190, 4.327071, 2.358974, 0.025884, 0.242573, -73.204803, -10.240860, -160.553253
1759223405.060767, 9.380632, 13.177387, 4.661361, 2.029279, -0.974546, 0.002614, -73.304825, -11.869873, -161.226410
1759223405.080637, 9.200318, 10.109666, 5.535095, 1.606408, -0.887671, -0.325154, -74.703888, -13.286850, -160.971573
1759223405.100827, 4.573673, 8.131008, -2.200720, 3.311096, -0.214238, -0.883277, -74.879547, -15.445740, -161.207443
1759223405.120844, 1.928230, 9.983222, 0.399083, 4.474597, 0.177755, -1.223960, -74.737152, -19.068359, -161.318054
1759223405.140818, 1.029656, 10.145579, 2.379388, 4.380841, 0.004206, -1.126695, -74.705566, -23.145782, -161.926895
1759223405.160543, -0.002095, 8.574983, 1.291373, 3.794361, 0.611969, -0.916155, -74.000977, -27.103241, -161.753555
1759223405.180781, 2.169895, 6.011840, 0.981473, 2.692862, 1.384094, -0.371482, -72.956528, -30.036499, -162.041306
1759223405.200877, 2.725050, 4.689194, 1.356764, 1.736178, 1.431581, -0.126438, -71.624771, -31.922546, -162.142212
1759223405.220131, 3.002179, 4.016273, 1.840243, 1.273592, 1.002106, -0.175434, -70.219162, -33.172852, -162.802917
1759223405.240766, 3.669862, 2.914791, 2.287809, 0.891575, 0.476554, -0.214772, -69.510086, -33.915009, -162.489227
1759223405.260771, 3.918710, 1.518373, 2.579004, 0.143525, 0.355502, -0.086443, -69.022781, -34.536560, -162.762802
1759223405.280783, 3.466654, 0.562188, 2.538153, -0.906997, 0.436180, 0.102252, -68.854187, -33.983078, -162.951401
1759223405.300795, 2.890699, 0.602142, 1.940351, -1.825626, 0.514476, 0.316734, -68.239426, -33.447723, -163.044464
1759223405.319984, 2.131887, 1.662324, 1.106869, -2.507366, 0.937010, 0.411350, -67.419281, -31.428802, -163.523102
1759223405.340777, 1.821838, 3.930232, -1.013495, -2.945460, 1.190206, 0.530286, -66.229980, -28.683456, -164.423187
1759223405.359883, 1.247379, 5.959467, -5.133617, -2.720657, 1.321524, 0.503353, -65.051971, -25.924026, -164.247635
1759223405.380845, 4.261380, 25.754278, -36.286221, 2.370336, 1.996213, 0.598536, -63.841644, -25.739761, -164.656372
1759223405.400796, 3.512443, 26.936415, -7.686136, 0.593603, 1.827165, 0.733235, -61.377823, -27.464172, -164.899338
1759223405.420773, -2.271798, 14.781352, -3.514688, -0.225891, -1.726965, -1.020404, -61.165787, -27.225739, -165.307587
1759223405.440764, 1.811214, 4.585046, -6.020070, 0.563048, -1.216443, -1.656134, -62.337845, -27.931274, -164.873917
1759223405.460275, 1.879299, -0.315286, -4.707150, 0.455223, -0.121426, -1.695378, -62.655075, -28.023178, -164.565186
1759223405.480864, 10.924593, 1.290026, 4.573524, -1.209397, -0.032100, -0.274415, -62.740677, -27.386032, -164.909164
1759223405.500880, 14.411448, 9.016713, 6.533327, -1.960215, -0.785916, 2.079448, -63.592743, -25.611893, -164.914261
1759223405.520811, 6.068254, 19.011308, -26.060137, 2.110358, -0.266154, 0.987444, -63.643738, -26.208572, -164.113800
1759223405.540778, 0.914286, 10.904092, 14.049026, -1.685174, -0.804416, -0.131197, -63.525467, -25.247787, -164.670197
1759223405.560712, 1.004667, 3.333926, 7.643339, -2.874037, -0.664721, -0.750700, -64.246475, -23.152054, -164.285004
1759223405.580810, 2.987515, 4.340987, 5.405808, -3.550787, 0.102567, -0.408866, -64.545227, -20.352875, -163.818665
1759223405.600804, 4.667646, 7.299771, 5.472696, -4.051765, 0.369855, 0.378184, -64.046768, -16.793442, -163.923126
1759223405.620780, 3.176208, 11.363480, 0.265607, -2.625693, -1.831241, 0.370832, -66.242462, -13.321777, -162.167313
1759223405.640765, 3.964648, 13.064111, 3.039289, -1.912692, -2.511183, 0.322694, -68.303864, -11.367920, -161.495361
1759223405.660785, 3.727473, 11.893795, 2.683750, -1.853438, -2.112255, 0.269385, -70.200256, -9.955261, -160.554749
1759223405.680708, 2.592023, 9.219771, -1.035791, -1.211811, -2.020887, 0.118011, -71.622635, -9.014709, -159.600769
1759223405.700787, 2.902970, 8.369680, -1.277755, -0.926615, -1.013034, 0.197245, -72.087021, -8.433289, -158.741577
1759223405.720798, 1.787870, 9.047538, -0.399682, -1.248330, 0.506976, 0.342865, -71.291611, -6.958603, -158.682480
1759223405.740795, 1.515081, 9.851990, 1.067365, -1.568069, 1.023913, 0.440736, -70.344650, -5.602448, -158.929489
1759223405.760791, 1.113453, 9.024494, 0.262015, -1.318824, 0.776960, 0.351538, -69.416901, -4.545120, -158.322235
1759223405.780343, 0.621146, 8.428937, -0.206949, -0.914916, 0.207585, 0.278867, -69.634689, -3.918533, -157.856689
1759223405.800916, 0.260818, 8.806472, 1.217751, -0.775899, -0.102688, 0.185681, -69.449112, -3.147018, -157.766266
1759223405.820791, 0.630274, 9.197775, 2.226308, -1.007973, -0.147934, 0.128479, -69.388916, -2.369873, -157.396088
1759223405.840768, 1.504606, 9.011775, 1.493533, -1.204295, 0.165886, 0.192389, -69.248184, -1.213318, -156.838394
1759223405.860787, 2.515857, 8.749011, 0.602441, -1.418769, 0.648678, 0.181159, -68.898254, 0.145950, -155.988052
1759223405.880796, 3.967043, 9.193884, -0.444573, -1.682782, 1.067723, 0.267885, -67.242767, 0.981491, -155.374847
1759223405.900793, 4.833295, 9.563639, -1.635389, -1.603650, 0.650904, 0.377374, -66.898209, 2.178131, -155.043198
1759223405.920861, 3.112313, 9.841964, -2.050783, -1.169527, -0.609154, 0.335909, -67.135666, 2.739914, -154.114334
1759223405.940783, 1.299902, 10.138995, -2.511518, -1.147866, -1.420510, 0.289520, -68.382584, 3.841415, -153.534531
1759223405.960814, -0.205752, 11.108348, -2.358438, -1.129630, -1.517321, 0.250088, -69.121338, 4.577225, -152.474472
1759223405.980858, -0.411803, 10.522666, -0.864606, -0.515868, -0.944406, 0.103473, -69.371948, 4.972488, -151.996704
1759223406.000859, 0.389058, 10.844985, 0.165948, 0.031476, -0.020682, 0.053954, -69.437790, 4.789566, -151.589783
1759223406.020724, 1.399561, 10.917111, -0.155174, 0.107808, 0.716311, 0.075558, -68.841934, 4.767471, -151.567444
1759223406.040770, 1.930026, 12.986898, -0.143203, 0.138209, 0.828041, -0.002254, -68.492554, 4.663147, -151.821426
1759223406.060793, 1.063175, 15.338004, 0.452953, 0.491684, 0.324709, -0.337763, -68.187729, 4.483841, -151.612320
1759223406.080799, 1.452532, 14.959271, -1.035343, 1.097781, -0.325167, -0.691881, -68.779694, 3.664017, -151.859024
1759223406.100810, 2.967912, 13.779379, -2.934992, 1.968287, -0.475416, -0.836584, -69.672470, 1.671783, -153.215042
1759223406.120795, 3.860949, 11.767800, -2.469469, 2.658652, -0.646402, -0.845087, -70.616180, -0.011551, -153.920837
1759223406.140781, 4.822670, 11.561899, -0.565181, 3.105194, -0.495644, -0.831177, -71.230499, -2.803696, -154.330566
1759223406.160793, 7.275081, 12.103288, 0.101754, 3.373297, -0.457011, -0.517324, -71.788376, -5.069138, -155.210800
1759223406.179855, 7.699453, 11.826458, 3.754856, 2.830233, -0.777805, -0.224810, -72.433746, -7.282196, -155.963104
1759223406.200811, 8.159739, 11.942876, 4.821024, 2.000191, -1.317550, 0.097602, -73.503998, -9.340683, -155.944626
1759223406.220796, 9.624691, 12.385953, 4.350863, 1.334548, -1.844258, 0.468636, -74.843414, -9.862381, -155.188904
1759223406.240770, 7.733571, 10.154557, 4.029741, 0.871476, -1.048543, 0.093173, -75.482452, -10.354156, -155.057373
1759223406.260796, 2.298583, 9.824008, -5.444415, 2.689545, -0.234989, -0.743007, -75.907700, -12.466690, -155.547760
1759223406.280262, 2.274791, 9.845556, -1.210269, 3.833770, -0.036368, -0.931607, -75.907593, -14.948196, -155.606110
1759223406.300820, 0.196773, 9.094225, 1.429638, 3.651652, -0.227934, -0.977139, -76.364685, -18.156158, -155.358536
1759223406.320795, -0.204854, 7.329100, 0.905457, 2.894405, 0.062641, -0.780072, -76.612030, -20.688309, -156.105286
1759223406.340784, 2.601001, 5.931784, 0.466121, 2.023810, 0.725370, -0.365660, -76.007965, -22.713074, -155.800583
1759223406.360698, 2.872892, 5.091868, 0.836025, 1.548989, 0.899765, -0.342683, -75.039200, -23.777618, -156.310471
1759223406.380669, 3.150919, 4.122516, 1.271171, 1.266984, 0.486698, -0.396992, -74.930511, -24.809845, -156.515564
1759223406.400811, 3.644873, 2.841917, 1.521665, 0.823169, 0.073285, -0.323258, -74.728210, -25.991684, -156.009613
1759223406.420881, 3.649212, 1.708562, 1.387739, -0.037470, -0.055818, -0.139190, -74.746613, -26.054382, -156.088287
1759223406.440784, 3.057396, 1.420659, 0.614412, -0.990635, 0.086283, 0.056045, -74.950027, -25.556091, -156.262863
1759223406.460797, 2.734178, 2.035969, -0.173280, -1.702153, 0.354743, 0.304157, -75.027008, -24.284485, -156.041168
1759223406.480855, 1.940052, 1.995417, -1.182137, -2.155731, 0.633962, 0.426610, -75.015610, -22.882675, -155.915222
1759223406.500802, 0.741305, 3.525312, -3.809923, -2.311546, 1.023116, 0.395084, -74.389359, -21.302414, -155.888702
1759223406.520898, -0.707936, 8.182334, -11.126603, -1.388800, 1.086659, 0.481273, -73.933716, -19.747314, -155.704437
1759223406.540830, -2.759766, 24.679580, -35.292627, 2.836004, 1.563019, 0.704761, -73.405579, -20.081207, -156.133820
1759223406.560795, 4.993856, 30.562882, -7.673716, 1.648317, 2.359536, 1.347966, -71.616898, -21.455292, -156.046646
1759223406.580156, 2.151489, 18.202966, -4.331111, 0.735517, -0.463344, -0.668787, -70.660400, -21.854507, -156.430130
1759223406.600828, 2.694524, 2.075174, -6.048651, 0.270555, -0.074476, -2.177500, -71.507477, -22.935623, -156.155426
1759223406.620791, 4.649240, -4.743662, -0.976535, 0.039593, -0.522782, -1.827435, -71.560974, -23.489227, -155.569092
1759223406.640866, 14.141053, 4.281581, 9.055020, -1.288558, 0.209550, 0.972346, -71.871902, -22.944443, -155.557358
1759223406.660849, 12.110321, 13.276896, -4.558859, 0.610475, 0.452400, 1.612734, -71.348267, -21.453842, -155.230911
1759223406.680133, -2.305915, 22.301540, -10.148273, 0.503335, -0.990290, -0.300105, -72.698929, -21.928726, -154.422134
1759223406.700805, 1.577180, 6.146514, 10.242844, -1.926337, -1.284168, -0.636461, -72.933670, -21.609146, -153.952744
1759223406.720932, 1.644667, 1.034744, 6.049998, -2.395038, -0.890999, -0.886550, -73.864914, -20.272278, -153.743164
1759223406.740809, 5.940314, 4.030788, 4.599710, -2.818559, 0.057469, -0.012986, -74.248489, -18.828339, -152.912781
1759223406.760818, 7.782502, 7.340772, 4.649839, -3.205731, -0.010545, 0.939778, -74.231522, -16.573318, -152.555679
1759223406.780801, 6.383241, 9.947160, 2.554164, -2.649194, -0.634780, 0.944999, -74.338150, -13.920990, -151.750595
1759223406.800798, 2.867805, 12.262353, -2.841020, -1.293967, -1.761587, 0.156141, -75.015182, -12.550461, -150.638412
1759223406.820847, 4.341885, 11.745504, 1.931073, -1.585718, -1.410277, 0.148225, -76.104492, -11.184143, -149.712112
1759223406.840871, 2.524686, 9.602993, -1.386542, -1.690232, -0.761509, 0.266248, -77.190536, -10.560455, -149.289215
1759223406.860890, 2.303222, 9.375245, -0.567725, -2.013015, 0.039685, 0.455394, -77.228592, -9.138077, -148.362701
1759223406.880988, 3.116652, 10.713304, 1.208773, -2.232572, 0.650412, 0.597953, -76.735352, -7.651642, -146.958359
1759223406.900810, 1.926734, 9.814132, 1.048511, -1.842829, 0.774881, 0.340249, -76.381668, -5.902771, -146.362427
1759223406.920893, 0.860117, 8.409334, 0.403872, -1.140439, 0.285970, 0.055079, -75.942551, -4.993576, -145.607285
1759223406.940787, 0.377985, 7.982418, 0.861164, -0.809641, -0.449141, 0.046647, -75.872894, -4.445465, -145.681961
1759223406.960870, -0.049530, 8.924087, -0.492308, -0.784246, -0.727884, 0.386978, -76.464142, -4.036499, -144.683258
1759223406.980869, -0.070330, 9.800964, -1.104774, -1.222694, -0.242122, 0.669710, -76.743118, -3.248138, -144.299759
1759223406.999955, 1.035343, 10.792014, -0.663343, -1.302791, -0.052939, 0.541151, -76.407272, -2.585495, -143.369781
1759223407.020865, 1.528099, 9.346963, 0.043545, -1.042047, -0.069278, 0.189676, -76.374969, -1.621445, -142.683060
1759223407.040782, 2.632874, 8.440608, 0.245555, -0.895452, -0.227640, 0.278563, -77.053680, -1.112579, -142.076019
1759223407.060800, 3.456479, 8.144775, -0.059406, -0.997876, 0.059660, 0.499358, -76.724380, -0.656128, -142.092606
1759223407.080794, 3.860949, 9.125200, 0.246303, -1.276915, 0.606195, 0.589959, -76.276550, 0.028595, -141.034576
1759223407.100346, 2.110339, 9.289502, 0.225504, -1.455310, 0.380019, 0.696585, -75.918610, 1.063889, -140.529388
1759223407.120863, -0.192135, 10.685172, -1.583016, -1.384826, -0.244333, 0.650355, -75.904465, 1.837448, -139.674225
1759223407.140857, 0.265008, 11.427225, -3.615394, -1.132907, -0.670704, 0.384093, -76.116867, 2.358963, -138.720535
1759223407.160851, 0.811784, 11.013178, -2.484732, -0.438061, -0.638324, 0.203387, -76.144226, 2.311157, -137.862244
1759223407.180810, 1.021726, 11.814487, -0.678906, 0.088000, -0.226090, 0.136825, -75.940399, 2.382736, -137.984787
1759223407.200640, 2.006341, 11.081862, -2.659958, 0.036717, -0.225544, 0.138222, -76.466827, 2.441086, -137.005524
1759223407.220785, 1.365144, 13.904476, -2.023549, 0.197268, -0.802300, -0.062753, -76.706924, 2.480774, -137.186249
1759223407.240807, -0.339378, 15.944934, 0.151583, 0.801379, -0.729558, -0.476299, -77.144318, 1.926758, -136.729843
1759223407.260803, 0.476296, 13.273753, -2.174683, 1.528042, -0.114744, -0.714786, -77.718506, 1.117249, -137.998230
1759223407.280810, 1.789067, 11.792640, -4.374356, 2.572655, 0.252018, -0.954272, -78.168793, 0.082489, -138.587036
1759223407.300802, 2.298583, 11.599907, -0.554108, 2.844254, 0.009385, -1.091446, -78.251953, -1.596039, -139.833633
1759223407.319995, 4.187309, 11.674277, 1.279402, 2.951018, -0.708434, -1.108098, -79.399689, -3.147156, -141.258667
1759223407.340792, 5.754913, 12.947693, 3.112462, 2.770524, -0.823967, -1.042318, -79.955078, -4.679611, -141.727432
1759223407.360801, 6.885275, 13.797036, 4.376900, 2.198347, -0.530011, -0.950373, -80.310226, -5.369431, -142.496521
1759223407.380806, 8.592939, 14.376882, 3.552995, 1.680875, -0.280530, -0.628692, -80.891174, -5.930573, -142.744736
1759223407.400815, 9.917382, 13.476363, 2.111686, 1.496017, 0.015708, -0.280020, -81.434067, -7.157806, -143.916565
1759223407.420418, 8.320599, 9.911097, -1.510442, 2.188839, -0.287762, -0.350240, -81.150101, -7.938736, -144.547943
1759223407.440798, 5.252878, 8.283489, -0.746093, 2.667366, -0.718546, -0.726115, -81.890961, -9.507812, -144.757050
1759223407.460805, 1.598878, 8.195801, 0.956633, 2.645005, 0.109895, -1.236200, -82.134705, -11.243378, -145.443680
1759223407.480806, 0.205602, 8.736741, 0.772130, 2.659520, 1.084412, -1.433105, -81.964813, -13.645950, -146.709122
1759223407.500804, 0.499191, 8.397363, 0.978181, 2.627246, 1.518046, -1.148178, -81.185043, -15.679062, -148.709244
1759223407.520814, 1.426495, 6.909516, 1.120486, 2.369186, 1.573202, -0.557000, -80.476654, -16.819824, -149.428497
1759223407.540792, 2.270302, 5.425860, 1.055993, 1.982090, 1.456459, -0.181653, -79.297211, -18.636124, -150.998672
1759223407.560805, 2.776975, 4.042909, 1.151012, 1.636240, 1.288795, -0.157587, -78.721680, -19.543350, -151.714935
1759223407.580804, 3.204789, 2.181866, 1.404798, 1.097215, 1.017203, -0.268777, -78.109909, -20.514999, -152.406540
1759223407.600887, 4.478354, 1.276558, 1.724424, 0.155362, 0.826776, -0.177094, -77.679947, -21.043518, -153.325745
1759223407.620647, 4.718074, 1.524209, 0.922965, -0.861255, 0.781726, 0.063498, -77.036636, -20.447662, -153.730652
1759223407.640788, 4.062511, 2.009783, 0.089184, -1.563266, 0.637325, 0.241712, -76.956390, -19.832733, -153.824829
1759223407.660891, 2.920028, 3.320159, -0.934487, -1.874934, 0.757185, 0.337401, -76.608582, -18.242386, -153.943100
1759223407.680876, 1.946785, 5.471798, -2.817526, -1.783237, 0.678767, 0.323332, -75.979965, -17.020798, -153.997955
1759223407.700807, 1.406593, 9.639954, -9.425673, -0.850584, 0.658104, 0.286074, -75.723038, -15.929459, -154.235229
1759223407.720869, 1.875707, 17.968184, -20.781820, 1.012275, 1.523758, 0.265800, -74.847565, -16.278397, -155.049484
1759223407.740806, 0.259472, 23.356634, -18.024897, 1.133607, 1.700391, -0.087261, -73.640244, -17.385971, -155.143570
1759223407.760870, -0.114772, 16.110433, -5.403863, -0.190609, -0.427217, -0.806361, -73.978897, -17.792648, -155.925079
1759223407.780809, 2.672677, 8.006510, -5.308394, 0.157585, -0.557234, -1.110659, -74.003784, -18.222656, -155.773468
1759223407.800867, 3.036895, 2.414403, -5.434538, 0.627599, 0.903675, -1.174311, -73.948883, -19.143387, -156.186279
1759223407.819841, 12.684780, 6.548441, 3.510498, -1.089266, 0.439885, 0.576588, -73.245270, -18.991623, -156.444824
1759223407.840795, 13.336751, 13.639767, 3.506308, -0.812472, -0.941100, 2.251875, -73.399338, -17.081558, -156.828247
1759223407.860802, 2.897882, 18.458696, -11.879879, 1.430176, -2.216612, -0.073805, -75.200500, -17.913635, -155.873260
1759223407.880879, 4.797232, 5.472846, 11.233445, -1.636122, -1.122349, -0.523872, -76.354233, -17.541260, -156.143890
1759223407.900799, 2.665046, 1.582717, 6.596624, -2.462431, -0.679833, -0.386151, -77.073288, -16.237274, -155.052139
1759223407.920252, 3.138649, 2.909254, 5.564574, -3.169789, 0.016058, 0.178126, -76.979691, -14.143082, -155.044113
1759223407.940490, 5.728127, 7.215675, 5.155015, -3.660807, 0.390440, 1.074011, -76.943100, -11.417206, -154.630707
1759223407.960811, 5.664232, 10.850672, 5.742493, -3.479536, -0.463062, 1.124680, -76.527451, -8.534637, -153.217621
1759223407.980813, 1.780987, 14.021492, -3.562123, -1.396099, -2.765326, 0.030634, -77.887207, -6.692474, -151.954559
1759223408.000135, 3.980360, 12.535292, 2.419490, -1.366701, -2.610632, -0.193964, -79.759430, -5.752625, -150.332504
1759223408.020658, 2.993500, 9.406669, -0.537947, -1.358326, -1.644832, 0.066882, -81.178986, -5.196167, -148.444778
1759223408.040820, 1.718738, 7.896077, -1.462708, -1.555665, -0.032886, 0.328743, -81.750504, -4.290726, -147.577026
1759223408.060809, 1.400458, 9.591770, 1.306636, -2.009902, 0.913554, 0.456817, -80.793518, -3.183380, -147.606888
1759223408.080810, 1.203685, 10.168623, 1.093701, -1.736686, 0.715788, 0.376699, -80.403198, -1.900330, -147.094193
1759223408.100806, -0.172532, 9.188347, -0.546626, -0.989771, -0.408235, 0.232458, -80.087219, -1.071304, -146.555786
1759223408.120807, -0.381576, 8.306683, -0.760608, -0.719292, -1.110259, 0.369230, -80.993713, -0.328445, -146.440567
1759223408.140804, -0.394445, 9.088390, -0.044891, -1.221688, -0.630509, 0.643474, -80.847076, 0.090317, -144.941162
1759223408.160809, -0.190040, 10.346393, 0.514753, -1.340480, 0.371566, 0.418364, -80.263855, 1.351074, -144.786194
1759223408.180813, 0.989404, 9.598504, 0.765097, -1.083111, 0.610237, 0.200792, -80.216660, 1.582794, -144.347275
1759223408.200807, 2.012626, 8.086117, 0.333692, -0.948087, 0.437559, 0.300649, -79.513412, 1.831573, -144.437454
1759223408.220812, 2.941875, 8.072051, -0.069881, -1.075221, 0.413832, 0.388916, -79.160187, 2.505402, -143.993774
1759223408.240805, 4.170699, 9.295488, -0.311545, -1.581432, 0.549684, 0.442975, -78.282288, 3.258713, -143.474213
1759223408.260812, 4.356400, 9.573365, -2.143259, -1.779199, 0.259669, 0.438508, -78.010956, 4.116119, -143.057739
1759223408.280811, 0.233435, 9.259126, -4.771195, -1.040686, -1.446307, 0.447481, -78.368576, 5.156021, -141.924164
1759223408.300816, -0.902315, 9.966313, -2.466477, -0.435230, -1.963280, 0.389140, -79.033951, 5.812958, -140.888626
1759223408.320874, -0.244059, 11.632827, -0.782455, -0.074315, -0.764832, 0.222613, -79.491745, 6.202316, -140.401779
1759223408.340841, 0.389507, 12.406005, 0.407463, -0.013634, 0.602908, 0.162277, -78.956879, 6.119797, -140.364532
1759223408.361013, 1.142932, 12.178705, -1.236007, -0.037151, 0.882060, 0.084753, -78.831100, 6.113251, -140.809372
1759223408.380837, 0.276530, 15.957055, -1.816002, 0.534872, -0.151775, -0.129775, -78.453400, 5.866150, -141.373077
1759223408.400802, -0.872836, 16.840515, -0.678158, 1.083862, -0.400099, -0.559802, -78.721451, 5.436539, -141.807587
1759223408.420804, 0.576105, 14.488960, -2.777872, 1.731180, 0.107424, -1.011821, -80.004044, 3.991867, -142.917679
1759223408.440803, 3.164686, 12.192023, -3.614496, 2.588262, 0.441978, -1.020969, -80.403900, 2.499954, -144.245071
1759223408.460802, 4.099621, 12.119150, -0.461782, 3.085398, -0.064659, -0.929530, -80.874283, 0.166565, -145.881790
1759223408.480437, 4.415357, 12.133066, 0.400730, 3.315073, -0.247166, -0.963127, -81.475632, -2.346786, -147.842453
1759223408.500241, 5.535394, 12.520328, 1.592892, 3.473900, -0.173929, -0.971793, -80.683228, -3.712296, -148.990845
1759223408.520808, 6.728455, 13.158233, 4.365378, 2.859581, -0.021049, -0.813581, -81.308395, -7.172928, -150.615509
1759223408.540852, 8.554632, 13.788956, 4.289212, 2.162883, -0.182493, -0.332178, -81.990021, -8.268356, -151.071686
1759223408.560813, 9.666140, 13.452570, 3.385102, 1.709458, -0.578292, 0.185025, -81.861160, -9.643280, -151.009232
1759223408.580287, 8.607754, 9.900174, -0.903512, 2.300319, -0.901384, 0.059122, -82.264374, -10.981995, -151.088852
1759223408.600818, 2.148796, 9.219771, -1.791312, 3.195624, -0.388898, -0.997654, -82.292709, -13.900574, -151.868973
1759223408.620192, -0.984765, 10.858602, -0.261267, 3.469583, 0.539790, -1.702886, -82.386688, -16.985138, -152.965866
1759223408.639850, -1.229572, 10.300454, 0.819416, 3.148185, 1.325676, -1.685818, -81.353760, -20.219498, -153.791336
1759223408.660922, 0.693421, 7.749133, 0.646434, 2.783377, 1.984716, -1.027355, -79.623108, -22.656876, -154.831589
1759223408.680814, 2.331952, 5.898116, 1.426495, 2.492594, 2.214297, -0.522991, -77.645691, -24.805786, -156.442322
1759223408.700815, 2.625841, 4.389320, 1.829170, 2.272823, 2.056136, -0.426612, -76.427582, -26.639786, -157.075577
1759223408.720832, 3.443012, 3.448698, 2.005742, 1.838340, 1.609583, -0.417412, -75.143112, -28.274765, -157.540817
1759223408.740239, 3.907337, 2.205060, 1.881843, 1.053247, 1.285059, -0.443899, -74.188751, -29.031967, -157.994980
1759223408.759900, 4.646248, 1.615787, 1.681627, -0.017467, 0.989985, -0.325326, -73.254364, -29.178223, -157.997604
1759223408.780817, 4.946121, 1.706617, 1.325041, -0.994715, 0.611148, -0.096833, -72.805374, -28.639694, -158.159576
1759223408.800921, 4.629638, 2.287959, 0.842909, -1.677877, 0.535120, 0.067935, -72.850174, -27.106323, -159.052704
1759223408.820294, 3.689764, 2.702754, -0.168791, -2.217751, 0.425177, 0.158521, -72.397781, -25.417709, -159.100723
1759223408.840715, 2.648586, 3.746028, -2.733580, -2.509216, 0.605176, 0.160066, -71.328156, -24.201797, -159.294266
1759223408.860993, 2.553266, 7.788937, -11.202170, -1.759780, 1.328444, 0.273050, -70.633102, -22.476578, -159.889450
1759223408.880848, 4.488530, 19.597438, -28.862550, 1.431132, 1.499589, 0.495573, -69.264877, -23.215485, -160.074265
1759223408.901024, 5.469254, 25.924416, -14.116363, 0.438799, 1.818800, 0.501922, -68.242661, -23.814987, -160.700592
1759223408.920876, -0.740557, 14.898967, -4.174141, -0.824126, -1.617058, -1.074186, -69.333664, -23.329498, -160.266159
1759223408.940870, 4.097227, 7.325359, -6.424541, -0.019548, -1.925894, -1.315353, -70.708557, -23.482468, -159.875290
1759223408.961017, 12.816012, 9.280075, -0.498742, -0.296190, -0.118412, 0.288671, -70.877029, -23.757935, -159.810654
1759223408.979968, 10.122086, 11.107450, -0.108038, 0.208649, -0.711417, 1.021670, -71.476242, -23.535385, -159.847763
1759223409.000833, -0.476296, 12.784738, -3.552696, 1.096479, -2.549638, -0.370605, -73.253891, -24.664810, -158.255859
1759223409.020800, 2.399439, 2.995146, 9.538051, -1.248690, -0.139812, -0.089133, -74.030365, -23.578842, -158.078278
1759223409.040791, -0.170587, 0.695067, 7.694515, -2.665425, 0.190622, -0.438646, -73.635849, -21.642731, -158.560226
1759223409.060442, 4.559458, 5.311836, 6.634183, -3.794900, 0.386244, 0.375344, -73.245941, -19.222458, -158.194611
1759223409.080819, 7.147440, 10.065523, 6.454917, -4.444917, -0.407887, 1.341420, -73.081589, -15.262253, -157.268646
1759223409.100834, 2.812888, 13.970915, -4.747403, -1.764599, -3.093101, 0.616623, -74.605576, -13.275391, -156.105499
1759223409.120838, 4.817732, 13.205070, 2.357540, -1.270066, -2.514419, 0.270938, -76.435852, -12.323090, -154.649902
1759223409.140819, 3.756053, 9.861268, 1.297807, -1.495346, -1.556968, 0.281075, -78.237732, -11.444336, -153.818069
1759223409.160843, 2.261772, 7.222109, -2.265364, -1.439431, -0.404800, 0.196651, -78.719330, -10.090927, -152.805206
1759223409.180820, 2.851045, 8.458714, -0.379331, -1.881907, 0.586203, 0.297990, -77.969269, -8.974594, -153.163559
1759223409.200835, 2.931401, 10.528651, 1.790264, -2.276525, 0.382869, 0.306476, -77.373932, -7.575836, -152.461411
1759223409.220815, 1.870470, 9.913940, 1.218649, -2.022930, -0.317673, 0.052082, -77.880447, -5.638321, -151.877701
1759223409.240805, 1.017985, 8.728810, -0.254384, -1.248846, -1.190416, -0.083590, -77.988113, -4.987640, -151.042480
1759223409.260863, 0.527622, 8.368333, 0.074669, -0.792143, -1.579763, 0.044464, -79.306839, -4.518326, -149.484406
1759223409.280819, 0.136320, 9.439140, 0.024690, -0.890104, -1.249223, 0.415839, -80.116089, -4.084015, -148.702026
1759223409.300925, -0.059406, 10.489746, 0.242712, -1.205562, -0.203482, 0.822783, -79.973846, -3.101166, -148.388687
1759223409.320834, -0.352247, 9.267955, 0.411054, -1.081946, 0.487027, 0.535706, -79.703598, -1.995987, -147.687469
1759223409.340941, 1.303792, 8.402151, 0.278326, -0.950282, 0.458824, 0.352912, -79.172546, -1.450577, -147.914215
1759223409.360818, 3.239953, 8.765621, 0.053870, -1.049156, 0.486414, 0.447332, -78.727249, -1.109512, -147.870316
1759223409.380021, 3.841347, 9.221717, -0.205752, -1.312351, 0.704402, 0.516216, -78.187439, 0.078812, -147.181030
1759223409.400803, 3.191321, 9.176825, -0.603339, -1.407300, 0.636426, 0.572105, -77.178802, 0.867325, -146.940491
1759223409.420801, 0.774674, 10.256161, -1.900248, -1.371640, -0.115797, 0.601226, -76.738556, 2.158539, -146.638062
1759223409.440794, -1.347786, 10.520870, -2.906561, -1.182767, -1.009766, 0.406504, -77.087372, 2.968246, -145.128159
