SamplingTime, AccelerationX, AccelerationY, AccelerationZ, GyroX, GyroY, GyroZ, MagneticFieldX, MagneticFieldY, MagneticFieldZ, Latitude, Longitude
1759223381.306341, 0.251391, -4.375104, -7.900566, -0.080814, 0.208718, 0.053878, 123.953537, 168.485855, -594.319824, , 
1759223381.325610, 0.013767, -4.525340, -7.770381, -0.249042, 0.352394, 0.065655, 124.103653, 168.553284, -594.088013, 13.727161, 100.771574
1759223381.346462, -0.524330, -4.768651, -7.869442, -0.253852, 0.181728, -0.086896, 124.436356, 168.688065, -594.272339, 13.727161, 100.771574
1759223381.366489, 0.289698, -4.281880, -8.226327, -0.013112, 0.071016, -0.265428, 124.093430, 168.794968, -593.812744, 13.727161, 100.771574
1759223381.386463, 0.413598, -3.472790, -7.949498, 0.189299, -0.219736, -0.316598, 123.793884, 168.801697, -594.061890, 13.727161, 100.771574
1759223381.406373, -0.468366, -4.346823, -6.207566, 0.276866, -0.967978, -0.633480, 123.297684, 168.892593, -595.037048, 13.727161, 100.771574
1759223381.425647, -0.059705, -4.601805, -7.177817, 0.548170, -1.383073, -1.039906, 122.350967, 169.013199, -595.613831, 13.727161, 100.771574
1759223381.446483, 0.693421, -2.631527, -7.713370, 0.244533, -1.637475, -0.469183, 121.310867, 169.014969, -595.617493, 13.727161, 100.771574
1759223381.466466, 1.456273, -0.618452, -4.601207, 0.600707, -3.672121, 0.436343, 119.598267, 168.482635, -596.150879, 13.727161, 100.771574
1759223381.485918, -1.341800, -3.620931, -7.666683, 0.701999, -3.342852, 0.047917, 117.289474, 168.388916, -598.689209, 13.727161, 100.771574
1759223381.506372, -2.743157, -6.425139, -10.189273, -0.091521, -1.187015, -1.245202, 115.440109, 168.119614, -599.384033, 13.727161, 100.771574
1759223381.525644, -2.011878, -3.006818, -6.928520, -0.379425, -1.706759, -1.056667, 114.457367, 168.690277, -599.244507, 13.727161, 100.771574
1759223381.546465, -1.878850, -3.732411, -6.681618, -0.397343, -2.138531, -0.487751, 112.478210, 169.031326, -599.399780, 13.727161, 100.771574
1759223381.566467, -2.869900, -5.420921, -7.135768, -0.857533, -2.599889, -0.432528, 111.049484, 169.398270, -598.592957, 13.727161, 100.771574
1759223381.586471, -3.460370, -3.355474, -5.849484, -0.727055, -4.398738, -0.062439, 108.585236, 169.936859, -598.908936, 13.727161, 100.771574
1759223381.606389, -4.923376, -3.682282, -5.946299, -0.485906, -5.322353, -0.097074, 105.332016, 170.367661, -598.750488, 13.727161, 100.771574
1759223381.626486, -5.607669, -5.231929, -10.535834, 0.750873, -2.115284, -0.580098, 102.584732, 170.458649, -599.137024, 13.727198, 100.771619
1759223381.646472, -4.572476, -6.238242, -4.384980, 0.763239, -2.045440, -0.423696, 101.063065, 169.971954, -599.255249, 13.727198, 100.771619
1759223381.666465, -5.943007, -5.187337, -5.945102, 0.473733, -2.125291, -0.430293, 99.588104, 169.491226, -598.743774, 13.727198, 100.771619
1759223381.686468, -7.108534, -3.993977, -5.663334, -0.561103, -2.157059, -0.040294, 98.339813, 169.319519, -598.703247, 13.727198, 100.771619
1759223381.706403, -6.598420, -4.218434, -3.820547, -1.281499, -2.420161, 0.114800, 96.441376, 170.219498, -598.045105, 13.727198, 100.771619
1759223381.726472, -3.682731, -4.146308, -4.356400, -3.168892, -2.042787, 1.399775, 95.684113, 171.711929, -595.891235, 13.727198, 100.771619
1759223381.746366, -3.101688, -3.576039, -5.111172, -3.584854, -1.448941, 1.957960, 95.926788, 173.842560, -593.559875, 13.727198, 100.771619
1759223381.766473, -4.238784, -2.551022, -5.834520, -3.594540, -1.237912, 2.646359, 97.140381, 176.248901, -590.804932, 13.727198, 100.771619
1759223381.786463, -9.285013, -0.218321, -10.003423, -2.174221, -0.950207, 1.933176, 98.553192, 177.612045, -588.369629, 13.727198, 100.771619
1759223381.806441, -9.733028, 0.249596, -10.819098, -1.313857, -1.288095, 1.602310, 98.969620, 178.706055, -587.460205, 13.727198, 100.771619
1759223381.826464, -9.609428, -0.112976, -10.068965, 0.010519, -1.616806, 0.926198, 99.388763, 178.780060, -587.262695, 13.727198, 100.771619
1759223381.846498, -7.883059, -1.130362, -6.121974, 0.223919, -1.601739, 0.758718, 99.382278, 178.867111, -587.142944, 13.727198, 100.771619
1759223381.866488, -6.826168, -0.895880, -4.205415, -0.279326, -1.280255, 0.989156, 99.662598, 178.922653, -586.092041, 13.727198, 100.771619
1759223381.886503, -6.969521, -0.091578, -3.506009, -0.867359, -0.889168, 1.230776, 99.990616, 179.315613, -585.886536, 13.727198, 100.771619
1759223381.906458, -8.169465, 0.010475, -2.972551, -1.367177, -0.773266, 1.136112, 100.621536, 179.863373, -584.473755, 13.727198, 100.771619
1759223381.925918, -9.277831, 0.750133, -2.623297, -1.915650, -1.010638, 0.761310, 100.912338, 180.639847, -583.593933, 13.727198, 100.771619
1759223381.946481, -7.889343, 1.152060, -3.721038, -2.243718, -1.160157, 0.557731, 101.020401, 181.238617, -581.505432, 13.727198, 100.771619
1759223381.966468, -5.735609, 1.304990, -3.821445, -2.253623, -1.540042, 0.627566, 101.056122, 182.053757, -579.630127, 13.727198, 100.771619
1759223381.986307, -4.773440, 2.224812, -4.923227, -2.408417, -1.128343, 0.923806, 101.290558, 182.632935, -577.056824, 13.727198, 100.771619
1759223382.006470, -4.504092, 3.590854, -4.713884, -2.206433, -1.231442, 1.162931, 102.129013, 183.002655, -575.251709, 13.727198, 100.771619
1759223382.025717, -4.880879, 4.574272, -5.208137, -1.877293, -1.388343, 1.416028, 103.133987, 183.288864, -573.989563, 13.727198, 100.771619
1759223382.045533, -5.665130, 5.213973, -5.398177, -1.533847, -1.564502, 1.353761, 104.041626, 183.561325, -572.264099, 13.727198, 100.771619
1759223382.065855, -5.014356, 6.465392, -5.757905, -1.354268, -1.235093, 1.210614, 105.192337, 183.629303, -570.958557, 13.727198, 100.771619
1759223382.086489, -4.384232, 7.128287, -6.733543, -1.450675, -0.077153, 1.302428, 106.228638, 183.949875, -569.697510, 13.727198, 100.771619
1759223382.106020, -4.887463, 6.235997, -5.861754, -1.600039, 0.655628, 1.508574, 107.832321, 183.802750, -567.956909, 13.727198, 100.771619
1759223382.126470, -5.325752, 7.684190, -6.572832, -0.450714, -0.084497, 2.026428, 109.522888, 183.453812, -567.025574, 13.727198, 100.771619
1759223382.146498, -6.105813, 10.030209, -6.754043, 0.987398, -1.198172, 2.541340, 111.494293, 183.295593, -567.266235, 13.727198, 100.771619
1759223382.165556, -7.620744, 8.744672, -4.952705, 1.532225, -1.810691, 2.575089, 113.482559, 182.851425, -568.806213, 13.727198, 100.771619
1759223382.186489, -7.431003, 7.919720, -4.032434, 1.367294, -1.612830, 2.495818, 115.402176, 182.554337, -570.695190, 13.727198, 100.771619
1759223382.206037, -6.597223, 9.241020, -3.838504, 1.329555, -1.049570, 2.731627, 118.090027, 182.026184, -572.298218, 13.727198, 100.771619
1759223382.225473, -7.250540, 10.612000, -2.278233, 1.324135, -0.889662, 3.203345, 120.364716, 181.314163, -573.646057, 13.727198, 100.771619
1759223382.246490, -9.207950, 10.501717, -0.827646, 0.987939, -0.523457, 3.391591, 122.778702, 180.213867, -574.714844, 13.727198, 100.771619
1759223382.266484, -11.565041, 9.684695, -0.684143, 0.365490, -0.262290, 3.018829, 125.384293, 179.050690, -574.826843, 13.727198, 100.771619
1759223382.286497, -12.040889, 10.487800, -2.013673, -0.174090, 0.434406, 2.614879, 127.351242, 177.965805, -574.643372, 13.727198, 100.771619
1759223382.306041, -13.026402, 10.354922, -2.002899, -0.480620, 0.970850, 2.181446, 129.586227, 177.057831, -573.877319, 13.727198, 100.771619
1759223382.325512, -14.419528, 9.533412, -2.640056, -0.778123, 0.655004, 1.783263, 131.107071, 176.306396, -573.105347, 13.727198, 100.771619
1759223382.346493, -15.128960, 8.269573, -3.354725, -0.615748, -0.296487, 1.306706, 132.143967, 175.765442, -572.884216, 13.727198, 100.771619
1759223382.366477, -14.454394, 7.154922, -6.266972, -0.285686, -0.680189, 0.833545, 132.789124, 175.290359, -572.313843, 13.727198, 100.771619
1759223382.386504, -12.020688, 6.422596, -6.624008, 0.284374, -1.089778, 0.727327, 133.226044, 174.646133, -573.011719, 13.727198, 100.771619
1759223382.406060, -11.180622, 5.438130, -5.253477, 0.646324, -1.274459, 0.577819, 133.416870, 174.155655, -574.130676, 13.727198, 100.771619
1759223382.425543, -10.458471, 5.510255, -4.454711, 0.639609, -1.239740, 0.432206, 133.281952, 173.897400, -576.003296, 13.727198, 100.771619
1759223382.446495, -8.443751, 7.140258, -3.908833, 0.266930, -0.805237, 0.251851, 133.236572, 173.758987, -576.107056, 13.727198, 100.771619
1759223382.466480, -8.447492, 5.635651, -2.814085, -0.302547, -1.102888, 0.356427, 133.136200, 173.421341, -576.841309, 13.727198, 100.771619
1759223382.486509, -7.441777, 8.599374, -2.541295, -0.174271, -2.825327, 0.972795, 133.320236, 173.132416, -577.613770, 13.727198, 100.771619
1759223382.506075, -9.993996, 8.105570, -1.850718, 0.214687, -4.475533, 0.944360, 132.595428, 172.267899, -579.811523, 13.727198, 100.771619
1759223382.525575, -9.412355, 9.531466, -0.653916, 0.177568, -4.552206, 0.422784, 131.645172, 172.024414, -582.607300, 13.727198, 100.771619
1759223382.546489, -7.894281, 11.596765, 3.110816, -0.605621, -4.532659, 0.416067, 130.037750, 171.730637, -585.316101, 13.727198, 100.771619
1759223382.566478, -9.869199, 8.520814, 4.079271, -1.740188, -4.220750, -0.585238, 127.778931, 172.370407, -586.977417, 13.727198, 100.771619
1759223382.586509, -7.583933, 10.081235, 1.838148, -2.179102, -2.668274, -1.335478, 125.919266, 173.453018, -587.186279, 13.727198, 100.771619
1759223382.606081, -5.057452, 10.892420, 1.958756, -2.308794, -1.701095, -1.575412, 124.087997, 175.107254, -586.119934, 13.727198, 100.771619
1759223382.625550, -5.089175, 10.480468, 2.196680, -2.444244, -1.102708, -1.631846, 122.380844, 176.519730, -585.184082, 13.727198, 100.771619
1759223382.646487, -4.550180, 8.391527, 1.009306, -2.479601, -0.891194, -1.700036, 120.852066, 178.186920, -583.531311, 13.727198, 100.771619
1759223382.666471, -1.973121, 7.833977, -0.738761, -1.903832, -0.994831, -1.202177, 119.283554, 179.245331, -582.281982, 13.727198, 100.771619
1759223382.686485, -2.020706, 6.435165, -1.321150, -1.019714, -1.121374, -0.694591, 118.250473, 179.867264, -581.377441, 13.727198, 100.771619
1759223382.706116, -2.439841, 5.316624, -0.420332, -0.512426, -1.128177, -0.290800, 117.640900, 180.446442, -580.839844, 13.727198, 100.771619
1759223382.725564, -2.560299, 4.768502, 0.656610, -0.278964, -1.223540, 0.186036, 117.367538, 180.482559, -581.124695, 13.727198, 100.771619
1759223382.746487, -2.797176, 4.503044, 1.949179, -0.357219, -0.983222, 0.776117, 117.582199, 180.395248, -581.534790, 13.727198, 100.771619
1759223382.765948, -4.204817, 2.768595, 1.941249, -0.325281, -0.418632, 1.101209, 118.158035, 180.200684, -581.634521, 13.727198, 100.771619
1759223382.786489, -4.402189, 3.001132, 1.328782, 0.201293, 0.085256, 1.218472, 118.935364, 179.946503, -581.369629, 13.727198, 100.771619
1759223382.806154, -2.921674, 3.845537, 3.366696, 0.291355, 0.521010, 1.615058, 120.069885, 179.438843, -581.079712, 13.727198, 100.771619
1759223382.825576, -4.285322, 3.283947, 5.393987, -0.336243, 1.274801, 1.734374, 121.737366, 178.805222, -581.445801, 13.727198, 100.771619
1759223382.846490, -4.563199, 4.061015, 5.474941, -0.846063, 1.834043, 1.831509, 123.454010, 178.508392, -580.520569, 13.727198, 100.771619
1759223382.866489, -3.855114, 4.200776, 4.440496, -0.972803, 2.368669, 2.178845, 125.530212, 177.835220, -578.359375, 13.727198, 100.771619
1759223382.886498, -4.338443, 5.124340, 4.106355, -1.076463, 2.909473, 2.409656, 127.758560, 177.164200, -576.554565, 13.727198, 100.771619
1759223382.906158, -9.151985, 6.385635, 3.614047, -1.238907, 3.535920, 1.866778, 130.042892, 175.978851, -573.459534, 13.727198, 100.771619
1759223382.925595, -13.825018, 7.719654, -4.135385, 0.250258, 1.950483, 0.666970, 131.559250, 175.622406, -572.035889, 13.727198, 100.771619
1759223382.946484, -11.774983, 6.998850, -3.959561, 0.715200, 0.804327, 0.149371, 132.015533, 175.639801, -571.256104, 13.727198, 100.771619
1759223382.966498, -9.519196, 8.339154, -2.292149, 0.513697, 1.289562, -0.251892, 131.905518, 175.430359, -570.947693, 13.727198, 100.771619
1759223382.985952, -8.183381, 8.122928, -0.465523, 0.259832, 1.634084, -0.653716, 131.881454, 175.445297, -570.516479, 13.727198, 100.771619
1759223383.006172, -7.875128, 7.070975, 0.214880, 0.654214, 1.653465, -1.005669, 131.438980, 176.059814, -569.576904, 13.727198, 100.771619
1759223383.025617, -12.311733, 4.999392, 3.301006, 0.684934, 1.220147, -1.696217, 131.002960, 176.756821, -569.565552, 13.727198, 100.771619
1759223383.046496, -10.837503, 5.636998, 5.100996, 0.298017, 0.987896, -2.170280, 129.480667, 177.672714, -569.620728, 13.727198, 100.771619
1759223383.066469, -8.275259, 4.600458, 0.356736, 0.651858, 0.747205, -2.254367, 127.800980, 178.816696, -569.584839, 13.727198, 100.771619
1759223383.086493, -3.636942, 5.845443, 2.057068, 0.375101, 0.411536, -1.362635, 126.454498, 179.470032, -569.533508, 13.727198, 100.771619
1759223383.106190, -5.141398, 4.122067, 0.864456, 0.032947, 1.137143, -1.148916, 125.226273, 180.004242, -569.432556, 13.727198, 100.771619
1759223383.125632, -6.721871, 3.528754, -0.140659, -0.263649, 1.982229, -1.363377, 124.241470, 180.670273, -569.312683, 13.727198, 100.771619
1759223383.146492, -5.279813, 5.603928, 1.532139, -0.570023, 2.097109, -0.945556, 123.485703, 181.137070, -568.017578, 13.727198, 100.771619
1759223383.165612, -5.217115, 7.840562, 1.221641, -0.554406, 2.185167, -0.728529, 122.863541, 181.565674, -566.224670, 13.727198, 100.771619
1759223383.185825, -8.181735, 5.527015, 2.574216, -0.986207, 2.600653, -1.199847, 121.900848, 181.790695, -565.209473, 13.727198, 100.771619
1759223383.206198, -1.094898, 2.986318, -0.584335, -0.848641, 1.634378, -0.182177, 121.539795, 182.231400, -562.304810, 13.727198, 100.771619
1759223383.225650, -5.395333, 6.206519, -1.059434, -0.597518, 1.562179, 0.435790, 120.971786, 182.157715, -562.554932, 13.727101, 100.771706
1759223383.246489, -0.712724, 10.014048, 0.438289, -0.558018, 2.954435, 1.230797, 121.621872, 182.097031, -561.699524, 13.727101, 100.771706
1759223383.266011, -8.768764, 14.321815, 0.590620, -0.306963, 1.081228, 1.321108, 122.808136, 181.573273, -558.536255, 13.727101, 100.771706
1759223383.286503, -14.979772, 15.528642, -1.939004, -0.362925, -0.546402, 0.580507, 123.919067, 181.266632, -558.318481, 13.727101, 100.771706
1759223383.306222, -8.672098, 11.796232, -3.692906, -0.310365, -0.420064, 0.466582, 124.538559, 180.901443, -558.363037, 13.727101, 100.771706
1759223383.325663, -2.831892, 11.159972, -3.796456, 0.536038, 0.350364, 1.434430, 125.209015, 180.403610, -558.696228, 13.727101, 100.771706
1759223383.346498, -6.298247, 10.536283, -1.920000, 1.307113, 0.670639, 1.723476, 125.992874, 179.747650, -559.391113, 13.727101, 100.771706
1759223383.366488, -5.807585, 8.083872, -1.763928, 1.370871, -0.202866, 2.447212, 128.197998, 179.231049, -558.960327, 13.727101, 100.771706
1759223383.386489, -6.186318, 4.287566, 2.212691, 0.512579, 0.695934, 1.815102, 128.310669, 177.979950, -561.671387, 13.727101, 100.771706
1759223383.406236, -7.812280, 0.770185, 3.516633, -0.083588, -0.129231, 0.780449, 129.759674, 177.185974, -561.653076, 13.727101, 100.771706
1759223383.425681, -12.132467, 8.792706, -7.517644, -0.182786, 1.032247, 1.112235, 132.277344, 177.236618, -559.537537, 13.727101, 100.771706
1759223383.446485, -11.276091, 8.717887, 0.305710, -0.461564, -0.250447, 1.245170, 131.628616, 176.448135, -560.869141, 13.727101, 100.771706
1759223383.466551, -7.122900, 8.396016, 0.182109, -0.546174, -1.591606, 1.767034, 132.415237, 175.451874, -559.550171, 13.727101, 100.771706
1759223383.486484, -5.412392, 7.791331, -1.498621, 0.038182, -1.410853, 2.514907, 134.090134, 174.372589, -561.463745, 13.727101, 100.771706
1759223383.506251, -4.840776, 7.208343, -1.002572, 0.600518, -0.681373, 2.326885, 135.274750, 172.847305, -561.651062, 13.727101, 100.771706
1759223383.525691, -2.856881, 6.976105, -0.515053, 0.676731, -0.630515, 0.963966, 135.830780, 171.732742, -564.264771, 13.727101, 100.771706
1759223383.546468, -2.277933, 8.998308, -2.673126, -0.013437, -0.217234, -0.309937, 137.102066, 171.416901, -564.218018, 13.727101, 100.771706
1759223383.566465, -3.500622, 7.627777, -0.402226, 0.033844, -0.547433, -0.363689, 136.554718, 171.654892, -564.446655, 13.727101, 100.771706
1759223383.586469, 0.369156, 0.879420, -1.031901, 0.834240, 0.318557, 1.323987, 136.707184, 171.129166, -565.973999, 13.727101, 100.771706
1759223383.606266, -1.115099, 2.690634, 1.437868, -0.009271, -1.699779, 1.302381, 138.322800, 170.199661, -565.705811, 13.727101, 100.771706
1759223383.625708, -2.149095, 5.030367, -0.800860, -0.001229, -1.833901, 1.272086, 138.085083, 169.865158, -566.781616, 13.727101, 100.771706
1759223383.646467, -1.015291, 11.465682, -3.751714, -0.041475, -0.230378, 2.018493, 140.224579, 168.192322, -566.850830, 13.727101, 100.771706
1759223383.666477, -2.608782, 10.625018, -0.579247, -0.507243, -0.939732, 2.767959, 141.466446, 165.933060, -567.547546, 13.727101, 100.771706
1759223383.686482, -2.103605, 4.666299, 1.765275, -1.232028, -0.333840, 2.879516, 142.248856, 164.032196, -568.625488, 13.727101, 100.771706
1759223383.706309, -1.104924, 4.354005, 2.144008, -1.415818, -0.598904, 2.606556, 142.411758, 163.085297, -567.777344, 13.727101, 100.771706
1759223383.725743, -0.915932, 7.045687, -1.705120, -0.535124, -1.598218, 2.087684, 143.694138, 161.560684, -569.199951, 13.727101, 100.771706
1759223383.746494, -1.014693, 7.942614, 0.888997, -0.002459, -1.918839, 1.980550, 144.612015, 160.085007, -570.302246, 13.727101, 100.771706
1759223383.766142, -0.968754, 5.962011, 1.528249, -0.248953, -2.142050, 2.258700, 145.260300, 158.274094, -571.526489, 13.727101, 100.771706
1759223383.786495, -0.713472, 5.622783, -0.156970, -0.594246, -1.909415, 2.818770, 145.841751, 156.185745, -573.056519, 13.727101, 100.771706
1759223383.806313, -2.674323, 12.939164, -1.849371, 0.094172, -0.721202, 2.769568, 145.986389, 153.575943, -572.183716, 13.727101, 100.771706
1759223383.825749, -6.900688, 46.785095, -2.658013, 0.410813, 2.384024, 0.542696, 145.911865, 152.316620, -572.340027, 13.727101, 100.771706
1759223383.846483, -0.410306, 13.933505, 0.043395, -0.255058, 0.549520, -0.468212, 146.942734, 152.389877, -571.612854, 13.727101, 100.771706
1759223383.866491, 1.373972, 6.346131, -0.072874, 0.206305, -1.048234, 0.072503, 146.566803, 152.195938, -572.189392, 13.727101, 100.771706
1759223383.886536, -0.558597, 5.495291, -0.927304, 0.264503, 0.020707, -0.050827, 146.543411, 152.365143, -572.822144, 13.727101, 100.771706
1759223383.906337, 0.696413, 8.520964, -0.169839, 0.314117, 0.220385, -0.226956, 146.671295, 152.641602, -572.790466, 13.727101, 100.771706
1759223383.925771, 1.131709, 10.203190, 0.227898, 0.120567, -0.131697, -0.086197, 146.706497, 152.556870, -572.551147, 13.727101, 100.771706
1759223383.946490, 0.371999, 9.208100, 0.382025, 0.155385, -0.332039, -0.132452, 146.518372, 152.592270, -572.807922, 13.727101, 100.771706
1759223383.966493, -0.231639, 10.099042, 0.055665, 0.070688, -0.368462, -0.124618, 146.417404, 152.696686, -572.811279, 13.727101, 100.771706
1759223383.986495, 0.169689, 10.370784, -0.658705, 0.076758, -0.341721, -0.117815, 146.389359, 152.888550, -573.645020, 13.727101, 100.771706
1759223384.006347, 0.199018, 10.319308, -0.942118, 0.156131, -0.244151, -0.078006, 146.247467, 152.926193, -574.409058, 13.727101, 100.771706
1759223384.025794, -0.195277, 10.001927, -0.553061, 0.243193, -0.261383, -0.077977, 146.144379, 152.810196, -573.744995, 13.727101, 100.771706
1759223384.046498, -0.436493, 10.010905, -0.681001, 0.282939, -0.295750, -0.098527, 146.311386, 152.942307, -574.019226, 13.727101, 100.771706
1759223384.066335, -0.462530, 9.935338, -0.860416, 0.277033, -0.288687, -0.151817, 146.113235, 153.020966, -574.322083, 13.727101, 100.771706
1759223384.086495, -0.148590, 9.568726, -0.719458, 0.263317, -0.385615, -0.277810, 145.840042, 153.270554, -575.514709, 13.727101, 100.771706
1759223384.106370, 0.640449, 9.331700, -0.637157, 0.313060, -0.550454, -0.368903, 145.649521, 153.548141, -575.988525, 13.727101, 100.771706
1759223384.125797, 1.096245, 9.189096, -0.435595, 0.303812, -0.821135, -0.301018, 145.369019, 153.744614, -575.963379, 13.727101, 100.771706
1759223384.146429, 1.229572, 9.371504, -0.473753, 0.172259, -0.990401, -0.237073, 145.140381, 153.845444, -577.482300, 13.727101, 100.771706
1759223384.166339, 0.756119, 9.788993, -0.807445, 0.059108, -1.015072, -0.139478, 145.071487, 153.951599, -577.231750, 13.727101, 100.771706
1759223384.186496, -0.252888, 10.145430, -0.787842, -0.005206, -1.103415, -0.062642, 144.675583, 154.210770, -578.876709, 13.727101, 100.771706
1759223384.206425, -1.124078, 10.256012, -1.050306, -0.001890, -1.028879, -0.002964, 144.641800, 154.162247, -579.931030, 13.727101, 100.771706
1759223384.225830, -1.357063, 10.270527, -1.101333, 0.103975, -0.829654, -0.056190, 144.374039, 154.091232, -580.319763, 13.727101, 100.771706
1759223384.246534, -1.069759, 10.186879, -1.260398, 0.353096, -0.624104, -0.020965, 144.071518, 153.845215, -580.755615, 13.727101, 100.771706
1759223384.266035, -0.400430, 8.809615, -0.104597, 0.145582, -1.233155, -0.300307, 143.554276, 154.009384, -581.320312, 13.727101, 100.771706
1759223384.286496, 0.512060, 8.875605, -1.004068, 0.093964, -1.213270, -0.349127, 143.173203, 154.335052, -583.040405, 13.727101, 100.771706
1759223384.306408, -0.004190, 9.277531, -0.527024, 0.036522, -1.305407, -0.255025, 142.640289, 154.518021, -583.689941, 13.727101, 100.771706
1759223384.325840, -1.126771, 9.763854, -0.373047, -0.000031, -1.339205, -0.193199, 142.327957, 154.407059, -584.475220, 13.727101, 100.771706
1759223384.346488, -1.975366, 10.265888, -0.706289, 0.008910, -1.115825, -0.141183, 141.799805, 154.622360, -585.220764, 13.727101, 100.771706
1759223384.366475, -2.500893, 10.225486, -0.849044, 0.028533, -0.697225, -0.109696, 141.436020, 154.787323, -585.188599, 13.727101, 100.771706
1759223384.386488, -2.513762, 9.980978, -1.028609, 0.097896, -0.522200, -0.141830, 141.084549, 154.926193, -586.804810, 13.727101, 100.771706
1759223384.406411, -1.567304, 9.626337, -1.103278, 0.157843, -0.537964, -0.217464, 140.920013, 154.974533, -587.098267, 13.727101, 100.771706
1759223384.425855, -0.570119, 9.663148, -1.136947, 0.143391, -0.565477, -0.275664, 140.538345, 154.807312, -587.062317, 13.727101, 100.771706
1759223384.446496, 0.184503, 9.918130, -0.796521, 0.205313, -0.592139, -0.262903, 140.166031, 155.060074, -587.641907, 13.727101, 100.771706
1759223384.466495, 0.145448, 9.256433, -0.353743, 0.233866, -0.647373, -0.165637, 139.758667, 155.051666, -587.560181, 13.727101, 100.771706
1759223384.486496, -0.417639, 8.632294, 0.017957, 0.174520, -0.765606, -0.037160, 139.466797, 155.317200, -589.312073, 13.727101, 100.771706
1759223384.506439, -1.618929, 9.380482, -0.117615, 0.080988, -0.740104, 0.060313, 139.418030, 155.129761, -589.548096, 13.727101, 100.771706
1759223384.525876, -2.745251, 10.212467, -0.556502, -0.022315, -0.507062, 0.108689, 139.173828, 154.992966, -589.116028, 13.727101, 100.771706
1759223384.546500, -3.511396, 10.063877, -0.984466, -0.034799, -0.264147, 0.078226, 138.959564, 154.954712, -590.011475, 13.727101, 100.771706
1759223384.566497, -3.055450, 9.939079, -1.105373, -0.006107, -0.121911, -0.017035, 138.967377, 154.949265, -589.636963, 13.727101, 100.771706
1759223384.586502, -1.520917, 10.011654, -1.195006, 0.054519, -0.065120, -0.097819, 138.778412, 155.186951, -590.701233, 13.727101, 100.771706
1759223384.606456, -0.067636, 9.571120, -1.339705, 0.141473, -0.185563, -0.146637, 138.429764, 155.056152, -590.952637, 13.727101, 100.771706
1759223384.625892, 0.587627, 8.993220, -1.041178, 0.134419, -0.369149, -0.102975, 138.528137, 155.094299, -590.472229, 13.727101, 100.771706
1759223384.646506, -0.256180, 8.963143, -0.828394, 0.078762, -0.433155, -0.008890, 138.430984, 155.038467, -591.301208, 13.727101, 100.771706
1759223384.666500, -1.762432, 9.304167, -0.651821, -0.001229, -0.353587, 0.074537, 138.304794, 154.695587, -590.770569, 13.727101, 100.771706
1759223384.686509, -2.960131, 10.100838, -0.763750, -0.065445, -0.165672, 0.138879, 138.349731, 155.032349, -591.423462, 13.727101, 100.771706
1759223384.706473, -3.396923, 10.246435, -1.050456, -0.076090, 0.067260, 0.153979, 138.454758, 154.922241, -591.710510, 13.727101, 100.771706
1759223384.725908, -3.060538, 10.058939, -1.277456, -0.041299, 0.242379, 0.126033, 138.425415, 154.730789, -591.100342, 13.727101, 100.771706
1759223384.746514, -2.242020, 10.025420, -1.377713, 0.004367, 0.300758, 0.030362, 138.612244, 154.854126, -590.925964, 13.727101, 100.771706
1759223384.766509, -1.183933, 9.811289, -1.415721, 0.086189, 0.268931, -0.085942, 138.404892, 154.616196, -590.292480, 13.727101, 100.771706
1759223384.786507, -0.186748, 9.365668, -1.005265, 0.177998, 0.102069, -0.135257, 138.491714, 154.800613, -591.209717, 13.727101, 100.771706
1759223384.806501, 0.208894, 8.762329, -0.241066, 0.168169, -0.132118, -0.136123, 138.357727, 154.785019, -591.280884, 13.727101, 100.771706
1759223384.825926, -0.100856, 8.455871, -0.229694, 0.062144, -0.249524, -0.081585, 138.392426, 154.691208, -591.077209, 13.727101, 100.771706
1759223384.845864, -1.252766, 8.934861, -0.490961, -0.078430, -0.201968, 0.041728, 138.427551, 154.869629, -590.804565, 13.727101, 100.771706
1759223384.866509, -2.891597, 9.988609, -0.873884, -0.177451, -0.067450, 0.172119, 138.597366, 154.690842, -590.202881, 13.727101, 100.771706
1759223384.885934, -3.850475, 10.895563, -1.413776, -0.142384, 0.234039, 0.232400, 138.487305, 154.858948, -590.880615, 13.727101, 100.771706
1759223384.906510, -3.376273, 10.512640, -1.429039, -0.051845, 0.466924, 0.167951, 138.409439, 154.745804, -591.053223, 13.727101, 100.771706
1759223384.925951, -2.075773, 10.026468, -1.204583, 0.010324, 0.479412, 0.039766, 138.890945, 154.510544, -589.842712, 13.727101, 100.771706
1759223384.946508, -0.921019, 9.407866, -1.230171, 0.076038, 0.350344, -0.099294, 138.750870, 154.684128, -590.299561, 13.727101, 100.771706
1759223384.966513, -0.069133, 8.912565, -1.332822, 0.121641, 0.140518, -0.188558, 138.704956, 154.582504, -589.674194, 13.727101, 100.771706
1759223384.985960, 0.368408, 8.587403, -0.934038, 0.091244, -0.040518, -0.208929, 139.113495, 154.722473, -590.323364, 13.727101, 100.771706
1759223385.006433, -0.152181, 8.679729, -0.897077, -0.005322, -0.097725, -0.158392, 138.893677, 155.014679, -590.357971, 13.727101, 100.771706
1759223385.025968, -1.509544, 9.446173, -0.801459, -0.064372, -0.003436, -0.077568, 138.886841, 154.791229, -589.334900, 13.727101, 100.771706
1759223385.046506, -2.860323, 10.197204, -0.753126, -0.125336, 0.146070, -0.038614, 139.066299, 155.131424, -589.406006, 13.727101, 100.771706
1759223385.066513, -3.274819, 10.430489, -1.400758, -0.118448, 0.283270, -0.038438, 139.223251, 155.007065, -589.146484, 13.727101, 100.771706
1759223385.086503, -2.888155, 10.000580, -1.378462, -0.116196, 0.376587, -0.020965, 139.171036, 155.183014, -589.788147, 13.727101, 100.771706
1759223385.106502, -2.303222, 9.659107, -1.498471, -0.086507, 0.558343, -0.028416, 139.424301, 155.283630, -589.619629, 13.727101, 100.771706
1759223385.125975, -1.745672, 9.582643, -1.431882, -0.048524, 0.650095, -0.075673, 139.696823, 155.221878, -588.619873, 13.727101, 100.771706
1759223385.146499, -0.919373, 9.617957, -1.310975, -0.005379, 0.599624, -0.114457, 139.659576, 155.588669, -588.574829, 13.727101, 100.771706
1759223385.166507, -0.569670, 9.854534, -1.264288, 0.063084, 0.415139, -0.130843, 139.921661, 155.411163, -587.277466, 13.727101, 100.771706
1759223385.186501, -0.611569, 9.627683, -1.134103, 0.160205, 0.268000, -0.147369, 140.152908, 155.431992, -588.122803, 13.727101, 100.771706
1759223385.206508, -0.895581, 9.084499, -0.846051, 0.178123, 0.210111, -0.180262, 140.156769, 155.668457, -587.853394, 13.727101, 100.771706
1759223385.225999, -1.281048, 8.977358, -0.836025, 0.150398, 0.225285, -0.198994, 140.285599, 155.723663, -587.340393, 13.727101, 100.771706
1759223385.246506, -1.863736, 9.249400, -0.707038, 0.132053, 0.251395, -0.184208, 140.382263, 155.711884, -587.549683, 13.727101, 100.771706
1759223385.266070, -2.294244, 9.642797, -0.434697, 0.081272, 0.292053, -0.162330, 140.541367, 155.618057, -586.451721, 13.727101, 100.771706
1759223385.286499, -2.477849, 9.883713, -0.158017, -0.022750, 0.361965, -0.155172, 140.514832, 155.841797, -587.141174, 13.727101, 100.771706
1759223385.306511, -2.051980, 10.150368, -0.410306, -0.099967, 0.291772, -0.178356, 140.510284, 156.009979, -586.908813, 13.727078, 100.771746
1759223385.326313, -1.276259, 10.458322, -1.060033, -0.114230, 0.301582, -0.170393, 140.566605, 156.274750, -586.447754, 13.727078, 100.771746
1759223385.346305, -0.786944, 10.575338, -1.573739, -0.054104, 0.411491, -0.140758, 140.572159, 156.327728, -586.297729, 13.727078, 100.771746
1759223385.366512, -0.033070, 10.420613, -1.450587, 0.033666, 0.421937, -0.102143, 140.383987, 156.375595, -585.744202, 13.727078, 100.771746
1759223385.386502, 0.801309, 10.191668, -1.047763, 0.056809, 0.323205, -0.034516, 140.755081, 156.398834, -585.983154, 13.727078, 100.771746
1759223385.406507, 1.284340, 10.141988, -0.867449, 0.024257, 0.274561, 0.055283, 141.049118, 156.326645, -585.783813, 13.727078, 100.771746
1759223385.426318, 1.048062, 10.233716, -0.640299, -0.048088, 0.337090, 0.160612, 141.075836, 156.368103, -585.316284, 13.727078, 100.771746
1759223385.446499, 0.098611, 10.384550, -0.380080, -0.130223, 0.292257, 0.221549, 141.328781, 156.434860, -585.310425, 13.727078, 100.771746
1759223385.466505, -0.412102, 10.332477, -0.640898, -0.170817, 0.160911, 0.216298, 141.588058, 156.029480, -584.287231, 13.727078, 100.771746
1759223385.486501, -0.214880, 10.217256, -1.367538, -0.172944, 0.078927, 0.221332, 141.923264, 156.120010, -584.583496, 13.727078, 100.771746
1759223385.506511, 0.482581, 9.909002, -1.651550, -0.082298, -0.101590, 0.270963, 141.527756, 156.042236, -585.019958, 13.727078, 100.771746
1759223385.526339, 1.106121, 9.579201, -0.877176, -0.087977, -0.543777, 0.378225, 141.684662, 155.910385, -584.596802, 13.727078, 100.771746
1759223385.546516, 0.697910, 9.507225, -2.110938, -0.055997, -0.591086, 0.478666, 141.689972, 155.607071, -585.615479, 13.727078, 100.771746
1759223385.566514, 0.360627, 9.234286, -2.173486, 0.112706, -0.561402, 0.473825, 141.562775, 154.876068, -584.901245, 13.727078, 100.771746
1759223385.586506, 0.771382, 8.620323, -0.918925, 0.203337, -0.799854, 0.476648, 141.411316, 154.547287, -585.877075, 13.727078, 100.771746
1759223385.606506, 1.549198, 8.583063, -0.806996, 0.281168, -1.121855, 0.595667, 141.213287, 154.091309, -586.837769, 13.727078, 100.771746
1759223385.626067, 1.553987, 9.435100, -1.307533, 0.235466, -1.041499, 0.655940, 140.875885, 153.712662, -587.630737, 13.727078, 100.771746
1759223385.646486, 1.323245, 9.907955, -2.067992, 0.172392, -0.306494, 0.929084, 140.936554, 152.900620, -588.415894, 13.727078, 100.771746
1759223385.666490, 1.056441, 9.877129, -2.213290, 0.280731, 0.091675, 1.066173, 141.074722, 151.995117, -587.578491, 13.727078, 100.771746
1759223385.686498, 1.113004, 9.730484, -1.289577, 0.349290, 0.215917, 1.120516, 141.174515, 151.037827, -588.197693, 13.727078, 100.771746
1759223385.706488, 1.158195, 9.935189, -0.233435, 0.240642, -0.214772, 1.099321, 141.265518, 150.050430, -588.748413, 13.727078, 100.771746
1759223385.726085, 1.172261, 10.036942, 0.059107, 0.158886, -0.499351, 1.082034, 141.521164, 149.245865, -588.856812, 13.727078, 100.771746
1759223385.746505, 1.573290, 9.966014, -0.846799, -0.010208, -0.873730, 1.042189, 140.875137, 148.453262, -589.544800, 13.727078, 100.771746
1759223385.766506, 2.426224, 10.030358, -2.112584, 0.065338, -0.969208, 1.015012, 140.551559, 147.595474, -589.774170, 13.727078, 100.771746
1759223385.786499, 3.506907, 9.831041, -1.853112, 0.269755, -1.155897, 1.027196, 139.924118, 146.721481, -590.980713, 13.727078, 100.771746
1759223385.806509, 3.165733, 9.540295, -1.694496, 0.377009, -1.078915, 1.021633, 139.683517, 145.618576, -591.761414, 13.727078, 100.771746
1759223385.826107, 2.127398, 9.368062, -0.117316, 0.240927, -1.164234, 1.072801, 139.203445, 144.739334, -592.532593, 13.727078, 100.771746
1759223385.846512, 1.103727, 8.885182, -0.047585, 0.062394, -1.617291, 1.287791, 138.260071, 143.698471, -593.639648, 13.727078, 100.771746
1759223385.866515, 0.226102, 8.874258, -1.341950, -0.073526, -1.630181, 1.225782, 137.553223, 142.656143, -593.907593, 13.727078, 100.771746
1759223385.886509, 0.549918, 8.853159, -1.499967, -0.228539, -1.800623, 1.090553, 136.705002, 142.025269, -595.626465, 13.727078, 100.771746
1759223385.906505, 0.158765, 8.440309, -3.098546, -0.196214, -1.873927, 0.849104, 135.469421, 141.668808, -596.557617, 13.727078, 100.771746
1759223385.926119, 0.004489, 7.375189, -3.398719, -0.209438, -1.633127, 0.313291, 134.229034, 141.291702, -597.860840, 13.727078, 100.771746
1759223385.946504, 0.266205, 7.589021, -1.967884, -0.426711, -1.752038, -0.321674, 133.170761, 141.550171, -598.720886, 13.727078, 100.771746
1759223385.966378, 0.543334, 11.462390, -0.937779, -0.883321, -1.938420, -0.503704, 132.414429, 142.194748, -598.651001, 13.727078, 100.771746
1759223385.986511, -0.839467, 14.175918, -1.848922, -0.936602, -1.997354, -0.484048, 130.861572, 143.067184, -600.010132, 13.727078, 100.771746
1759223386.006503, -2.549226, 12.596942, -3.958663, -0.272617, -2.541054, -0.749093, 129.172943, 143.777527, -601.857056, 13.727078, 100.771746
1759223386.026139, -2.036867, 8.266580, -1.957709, -0.074152, -3.031194, -0.981226, 126.508041, 144.377579, -603.704163, 13.727078, 100.771746
1759223386.046513, 0.595109, 7.769484, 0.790535, -0.555639, -3.377551, -1.087235, 123.807602, 145.044800, -605.118530, 13.727078, 100.771746
1759223386.066513, 5.337274, 8.422951, 0.347010, -0.929985, -3.008708, -0.774229, 121.249588, 145.597839, -605.165405, 13.727078, 100.771746
1759223386.086514, 6.674286, 7.957877, 0.938677, -1.031490, -2.624883, -0.213375, 119.254776, 146.670395, -606.534180, 13.727078, 100.771746
1759223386.106508, 2.904616, 8.012046, 1.303344, -1.237733, -2.586687, 0.292793, 117.375488, 147.526184, -606.775269, 13.727078, 100.771746
1759223386.126155, -0.969801, 10.238654, 0.691475, -1.201702, -2.537060, 0.169652, 115.307083, 148.183914, -607.194336, 13.727078, 100.771746
1759223386.146518, -1.255759, 12.195614, 0.731429, -0.825049, -2.969633, -0.166846, 113.142334, 148.948914, -607.355347, 13.727078, 100.771746
1759223386.166514, 0.084396, 11.208305, 1.891719, -0.525597, -3.207208, -0.071378, 110.373154, 149.241150, -606.800598, 13.727078, 100.771746
1759223386.186507, 0.682198, 10.062830, 3.348291, -0.656859, -2.434578, 0.088948, 108.112076, 149.560532, -607.514160, 13.727078, 100.771746
1759223386.206502, 0.125995, 9.809343, 4.547936, -0.931575, -1.652931, 0.020006, 106.470871, 150.255661, -607.877380, 13.727078, 100.771746
1759223386.226171, -0.678158, 10.082582, 4.431967, -1.108183, -1.685074, -0.011739, 105.681793, 151.039276, -607.811462, 13.727078, 100.771746
1759223386.246506, -2.300529, 10.256461, 3.343203, -1.126827, -2.156340, 0.082161, 104.152588, 151.947510, -607.413330, 13.727078, 100.771746
1759223386.266065, -3.555090, 9.691279, 2.613421, -1.061663, -2.872102, 0.101955, 101.947769, 152.570389, -606.186279, 13.727078, 100.771746
1759223386.286510, -3.546112, 8.921992, 1.216105, -0.998851, -3.260780, -0.013971, 99.039825, 153.511993, -605.831299, 13.727078, 100.771746
1759223386.306508, -1.786374, 9.696517, -0.142455, -0.856527, -3.088742, 0.072031, 96.403015, 154.192398, -605.228455, 13.727078, 100.771746
1759223386.326191, -1.290624, 10.315119, -0.422128, -0.662420, -2.398697, 0.147107, 94.356537, 154.749176, -605.261108, 13.727078, 100.771746
1759223386.346513, -0.515502, 10.709264, 0.548571, -0.416568, -2.193296, 0.211392, 92.897339, 154.868866, -604.493652, 13.727078, 100.771746
1759223386.365994, -0.930297, 10.772261, 1.269376, -0.312431, -2.437779, 0.262257, 90.987000, 154.831848, -602.873169, 13.727078, 100.771746
1759223386.386513, -1.713949, 10.968736, 1.392228, -0.318171, -2.502465, 0.282865, 89.288422, 155.245651, -602.313232, 13.727078, 100.771746
1759223386.406509, -1.842787, 10.737546, 1.427543, -0.388901, -2.223902, 0.334758, 87.738541, 155.662857, -601.369019, 13.727078, 100.771746
1759223386.426207, -2.149843, 10.102932, 1.420510, -0.489316, -2.141348, 0.407757, 86.470566, 156.040573, -600.709229, 13.727078, 100.771746
1759223386.446515, -2.569577, 9.581146, 1.195754, -0.563985, -1.907715, 0.366251, 85.196899, 156.529709, -600.150635, 13.727078, 100.771746
1759223386.466510, -2.774580, 8.976311, 1.275511, -0.577835, -1.639597, 0.327354, 84.093750, 156.909668, -598.036316, 13.727078, 100.771746
1759223386.486510, -3.247136, 8.885930, 1.525106, -0.611842, -1.719748, 0.204254, 82.969910, 157.445267, -597.390686, 13.727078, 100.771746
1759223386.506508, -3.521272, 9.236381, 1.052102, -0.575646, -2.046710, 0.050997, 82.031708, 157.782974, -596.479736, 13.727078, 100.771746
1759223386.526229, -2.488174, 9.868001, -0.336535, -0.465232, -2.221578, 0.058030, 80.546524, 158.380295, -595.915588, 13.727078, 100.771746
1759223386.546514, -0.642843, 10.141090, -2.118868, -0.182253, -1.655953, 0.056741, 79.403748, 158.557327, -594.690063, 13.727078, 100.771746
1759223386.566523, 0.569221, 10.261698, -1.284489, 0.049640, -0.940699, 0.197196, 78.905396, 158.568237, -593.512634, 13.727078, 100.771746
1759223386.586517, 0.988207, 10.979360, 0.924162, -0.146880, -0.766576, 0.305339, 78.344849, 158.632599, -593.343262, 13.727078, 100.771746
1759223386.606510, 0.911592, 11.340286, 0.818368, -0.352528, -1.247882, 0.453711, 78.001007, 158.998688, -591.959229, 13.727078, 100.771746
1759223386.626250, -1.113304, 10.857405, -1.669357, -0.214000, -1.413742, 0.426056, 77.738205, 159.588623, -591.381836, 13.727078, 100.771746
1759223386.646519, -2.202366, 9.923068, -2.824859, 0.108070, -1.178290, 0.272322, 77.173111, 160.022430, -590.919250, 13.727078, 100.771746
1759223386.665534, -3.303998, 11.294646, -3.205686, 0.789964, -1.225936, 0.022509, 76.844559, 159.688873, -589.854004, 13.727078, 100.771746
1759223386.686508, -4.284125, 13.521104, -2.453009, 1.558613, -0.895509, -0.509171, 76.049973, 159.024048, -589.420410, 13.727078, 100.771746
1759223386.706515, -4.240131, 12.465112, -1.167622, 2.080601, -0.212534, -0.983370, 75.751633, 157.824661, -589.158142, 13.727078, 100.771746
1759223386.726261, -6.043564, 11.928062, -0.477194, 2.344168, 0.460297, -1.694696, 75.275024, 156.341949, -590.948486, 13.727078, 100.771746
1759223386.746518, -6.634632, 11.389517, 1.280299, 2.032766, 0.717101, -2.309279, 75.364990, 154.384415, -591.624207, 13.727078, 100.771746
1759223386.766513, -4.478504, 13.240683, 2.442086, 1.688846, 0.184587, -2.205585, 75.045303, 152.084442, -591.542175, 13.727078, 100.771746
1759223386.786509, -1.596484, 14.863204, 4.657022, 1.035940, -0.775800, -2.085156, 74.057571, 150.305618, -591.897766, 13.727078, 100.771746
1759223386.805586, 3.096002, 14.591911, 4.818630, 0.375074, -2.342057, -1.344562, 72.921753, 148.987000, -590.481323, 13.727078, 100.771746
1759223386.826278, 7.001244, 12.201001, -8.828170, 1.045413, -1.544551, -0.479592, 71.018280, 148.716064, -591.011536, 13.727078, 100.771746
1759223386.846513, 2.625990, 9.863363, -5.604976, 1.208756, 1.313519, -0.923912, 71.084015, 147.841858, -591.122070, 13.727078, 100.771746
1759223386.866513, 0.516848, 10.185083, 1.462857, 0.761490, 1.313982, -1.484008, 71.784988, 146.713379, -591.172241, 13.727078, 100.771746
1759223386.886510, -0.991499, 10.108170, 3.599981, 0.416760, 1.138985, -1.625800, 72.467377, 145.569519, -592.205444, 13.727078, 100.771746
1759223386.906514, -0.894983, 8.931120, 2.327164, 0.877642, 0.999363, -1.531034, 72.637802, 144.557190, -592.614990, 13.727078, 100.771746
1759223386.926296, 0.207398, 6.504597, 1.199345, 0.979522, 0.686807, -1.489255, 72.655960, 143.420059, -594.321716, 13.727078, 100.771746
1759223386.946544, 1.152808, 5.644630, -1.051204, 0.508012, 0.957921, -1.523578, 73.021606, 142.095261, -594.727173, 13.727078, 100.771746
1759223386.966513, 1.738190, 5.895572, -0.185700, 0.020454, 1.103735, -1.307500, 73.470871, 141.086380, -594.746033, 13.727078, 100.771746
1759223386.986515, 2.765303, 5.489755, 0.797120, -0.501853, 0.898491, -0.939207, 73.975464, 140.739716, -595.822205, 13.727078, 100.771746
1759223387.006512, 3.109320, 5.464167, 0.220117, -0.646713, 0.915039, -0.434119, 74.335052, 140.805328, -595.543518, 13.727078, 100.771746
1759223387.026307, 2.427720, 5.577891, 0.176123, -0.684877, 0.896582, 0.072360, 75.135803, 141.106964, -596.678345, 13.727078, 100.771746
1759223387.046504, 1.697489, 5.440674, 0.573411, -0.915658, 0.573957, 0.562934, 75.409286, 141.987488, -597.230225, 13.727078, 100.771746
1759223387.066244, 2.041805, 6.455217, -1.511190, -1.073416, 0.356959, 1.019898, 75.691971, 142.915741, -597.097961, 13.727078, 100.771746
1759223387.086516, 0.024989, 8.527847, -5.215469, -1.097008, 0.759134, 1.233921, 75.902725, 144.394470, -597.055786, 13.727078, 100.771746
1759223387.106511, -2.795979, 10.426000, -5.390695, -1.081690, 0.217879, 1.286947, 76.638763, 145.844238, -596.770996, 13.727078, 100.771746
1759223387.126332, -9.101857, 13.934852, -7.499687, -0.467917, -0.213347, 0.601970, 76.657837, 147.338699, -597.144897, 13.727078, 100.771746
1759223387.146188, -12.192322, 18.342278, -6.005855, 0.281158, -0.045945, -0.668217, 76.306244, 147.603134, -596.712280, 13.727078, 100.771746
1759223387.166525, -5.415235, 11.177330, -3.790321, 0.923905, -0.757773, -0.972885, 76.404877, 146.732590, -596.557373, 13.727078, 100.771746
1759223387.186512, -0.945710, 3.156755, -1.992574, 0.673891, -1.672771, -0.287737, 74.981659, 146.158768, -596.232727, 13.727078, 100.771746
1759223387.206513, 3.320309, 6.484695, 7.369951, -0.374030, -3.107941, 0.546502, 73.520035, 145.688797, -595.171326, 13.727078, 100.771746
1759223387.226352, 7.185747, 14.982166, 12.278813, -1.243853, -4.601270, 2.130882, 71.381287, 146.815216, -592.933594, 13.727078, 100.771746
1759223387.246513, 9.641450, 28.195615, -20.867413, 0.284086, -0.047676, 2.829961, 68.968109, 149.278992, -590.906677, 13.727078, 100.771746
1759223387.266096, -2.597709, 10.989386, 3.749320, 0.161538, -0.706909, -0.119948, 70.043243, 150.062576, -590.717468, 13.727078, 100.771746
1759223387.286518, 0.893037, 4.289063, 1.510891, -0.485616, -1.311870, 0.560175, 70.504044, 150.151703, -589.890503, 13.727078, 100.771746
1759223387.306518, 2.870199, 5.909339, 2.334197, -0.195365, -1.427593, 1.025855, 69.294312, 150.648575, -588.829956, 13.727078, 100.771746
1759223387.326370, 3.475333, 9.957784, 3.826383, 0.400733, -1.700883, 0.957802, 68.693130, 151.567200, -589.086792, 13.727078, 100.771746
1759223387.346536, 4.636970, 14.843003, 3.819949, 0.348305, -0.820376, 1.375063, 68.145950, 152.259140, -587.618652, 13.727078, 100.771746
1759223387.366525, 0.332644, 14.360721, 0.146196, -0.925665, 2.164000, 1.440146, 68.703094, 153.562332, -587.126953, 13.727078, 100.771746
1759223387.386525, -0.931793, 10.008062, 1.093552, -1.732284, 3.227255, 0.868620, 70.199326, 154.920670, -588.921143, 13.727078, 100.771746
1759223387.406528, 0.210989, 6.687903, 0.243760, -1.488818, 0.851300, 0.925809, 71.996475, 156.195068, -589.437134, 13.727078, 100.771746
1759223387.426382, -0.621744, 5.525817, 0.714968, -0.713240, -1.746104, 1.250057, 72.139450, 157.702194, -590.012939, 13.727078, 100.771746
1759223387.446537, -2.463933, 6.711546, 2.439991, -0.875656, -1.538967, 0.721736, 71.299164, 158.855820, -589.223633, 13.727078, 100.771746
1759223387.466523, -1.633444, 9.294141, 1.715146, -1.117176, -1.068618, 0.462927, 70.830109, 159.652832, -586.996460, 13.727078, 100.771746
1759223387.486542, -1.543811, 10.279505, -0.471957, -1.147101, -0.534267, 0.497322, 70.780045, 160.512772, -585.712097, 13.727078, 100.771746
1759223387.506525, -0.979228, 9.727941, -1.844732, -0.878578, -0.432298, 0.564701, 70.605865, 161.102936, -584.455505, 13.727078, 100.771746
1759223387.526408, -0.346411, 9.431359, -2.596961, -0.469360, -0.401025, 0.602050, 70.691864, 161.994888, -584.748047, 13.727078, 100.771746
1759223387.546525, -0.111480, 8.895956, 0.012570, -0.407122, -0.085615, 0.675729, 70.778397, 162.637924, -584.762573, 13.727078, 100.771746
1759223387.566527, 0.113425, 9.008633, 1.414075, -0.581189, 0.087247, 0.875991, 71.402710, 163.171753, -583.953125, 13.727078, 100.771746
1759223387.586554, -0.111330, 9.939528, -0.326958, -0.685947, 0.310952, 0.986093, 71.614090, 164.197418, -583.971741, 13.727078, 100.771746
1759223387.606524, -0.261118, 11.413459, -1.983895, -0.397003, 0.179896, 1.021798, 72.126236, 165.072556, -583.517883, 13.727078, 100.771746
1759223387.626425, -1.609502, 11.273697, -1.656488, 0.195512, 0.098666, 0.970280, 72.960922, 165.931931, -584.138306, 13.727078, 100.771746
1759223387.646524, -3.375824, 9.441834, 0.384868, 0.411957, 0.305641, 0.663750, 73.455948, 166.786072, -584.750244, 13.727078, 100.771746
1759223387.666513, -4.214842, 8.814403, -0.689231, 0.421275, 0.582005, -0.001081, 73.682663, 166.741806, -584.778503, 13.727078, 100.771746
1759223387.686524, -3.105130, 10.332626, -2.724302, 0.883465, -0.019939, -0.515614, 73.867966, 166.526672, -585.550720, 13.727078, 100.771746
1759223387.706506, -3.480870, 12.934674, -3.420716, 1.656204, -0.127975, -0.948949, 73.322601, 165.773788, -585.237671, 13.727078, 100.771746
1759223387.726443, -2.570175, 12.713809, -3.289035, 2.494488, -0.105028, -1.305721, 72.720718, 164.375107, -586.551514, 13.727078, 100.771746
1759223387.746498, -1.129764, 12.259659, -2.711882, 3.114823, -0.522466, -2.044168, 71.575760, 162.453461, -588.557373, 13.727078, 100.771746
1759223387.766513, -0.104447, 14.274380, -0.579247, 2.723317, -0.353776, -2.899847, 70.553925, 159.594315, -589.050476, 13.727078, 100.771746
1759223387.786525, 1.430236, 15.666010, 0.426467, 2.425701, -0.243475, -2.859319, 69.231644, 156.358032, -589.453369, 13.727078, 100.771746
1759223387.806499, 4.696825, 18.326417, 5.703288, 1.562885, -1.476352, -1.588089, 68.424484, 153.504395, -589.293396, 13.727078, 100.771746
1759223387.826448, 4.334852, 18.157625, 8.187571, 0.769033, -2.047879, -1.213408, 67.327652, 151.876083, -589.012207, 13.727078, 100.771746
1759223387.846523, 2.651578, 13.325378, 6.556222, -0.714461, -2.857608, -1.086699, 65.678207, 151.144241, -588.250427, 13.727078, 100.771746
1759223387.866531, -3.633949, 6.631939, -7.785944, -0.064227, -2.328093, -2.235958, 64.513535, 149.950073, -585.376648, 13.727078, 100.771746
1759223387.886529, -2.524237, 9.832986, -6.096236, -0.280930, 1.082872, -2.411251, 64.465866, 147.969254, -585.514404, 13.727078, 100.771746
1759223387.906529, -1.870769, 10.278906, -1.706916, -0.133804, 2.736594, -2.087118, 65.047531, 146.142120, -586.413574, 13.727078, 100.771746
1759223387.926478, 0.479439, 9.955390, 1.130662, 0.415035, 3.345224, -1.665630, 66.279892, 144.487610, -590.265137, 13.727078, 100.771746
1759223387.946523, 2.055272, 7.831883, 3.633051, 0.992650, 2.741009, -1.253875, 67.649506, 143.207718, -593.352051, 13.727078, 100.771746
1759223387.966526, 4.187608, 5.248090, 2.207005, 0.701153, 1.656124, -1.089794, 68.588760, 141.581314, -594.749512, 13.727078, 100.771746
1759223387.986530, 4.818780, 3.528155, 0.352696, -0.067681, 0.986553, -0.911494, 69.272079, 140.865067, -595.578552, 13.727078, 100.771746
1759223388.006505, 4.286668, 3.590105, 0.293439, -0.391308, 0.821161, -0.401412, 70.233521, 140.499725, -597.007080, 13.727078, 100.771746
1759223388.026492, 3.811719, 4.064307, 0.148740, -0.680048, 0.950239, 0.089101, 70.971970, 140.965408, -597.060608, 13.727078, 100.771746
1759223388.046506, 3.889680, 4.623652, -0.450559, -1.007754, 0.753954, 0.549064, 71.392212, 141.899765, -597.595093, 13.727078, 100.771746
1759223388.066505, 4.202871, 4.782268, -0.923114, -1.379919, 0.225692, 1.120037, 71.312592, 143.393326, -597.158936, 13.727078, 100.771746
1759223388.086511, 4.508880, 5.102792, -0.251840, -1.770751, -0.411272, 1.646453, 71.284500, 145.622955, -597.769897, 13.727078, 100.771746
1759223388.106510, 3.678990, 6.463746, -2.208052, -1.576298, -0.246241, 2.160509, 71.448486, 148.270340, -596.844421, 13.727078, 100.771746
1759223388.126209, 2.270302, 11.458948, -3.416077, -1.311491, 0.459873, 2.895906, 71.829559, 150.694839, -596.227051, 13.727078, 100.771746
1759223388.146504, -11.893945, 21.117457, -6.151153, -0.406465, -1.192036, 0.735997, 71.054184, 151.247055, -595.216980, 13.727078, 100.771746
1759223388.166516, -17.587805, 27.643602, -5.115661, -0.250985, -2.781980, -2.644161, 69.900620, 149.798630, -592.674561, 13.727078, 100.771746
1759223388.186501, -3.435530, 14.444219, -5.404761, 0.474787, -3.081857, -2.009989, 68.077316, 148.109894, -591.483765, 13.727078, 100.771746
1759223388.206567, 3.781193, 12.341062, -2.516306, 0.603823, -4.215693, 0.610298, 64.919418, 148.162354, -589.232117, 13.727078, 100.771746
1759223388.226220, 6.219986, 14.911986, 2.666991, 0.813386, -4.202461, 1.923275, 63.423752, 148.942169, -586.474976, 13.727078, 100.771746
1759223388.246518, 2.983325, 11.872247, 5.388450, 0.015075, -0.078049, 1.220336, 63.016846, 149.726837, -587.428955, 13.727078, 100.771746
1759223388.265503, 2.041057, 5.265747, 1.738639, -0.523590, 1.611308, 0.060993, 63.897675, 150.179474, -587.562927, 13.727078, 100.771746
1759223388.286528, 1.137096, 3.869030, 0.452354, -0.682008, 0.547452, 0.284867, 64.983856, 150.513702, -588.515564, 13.727078, 100.771746
1759223388.306518, 1.566855, 6.383989, 0.731429, -0.441135, -1.000502, 0.862332, 64.484863, 151.382812, -587.167236, 13.727078, 100.771746
1759223388.326242, 3.503316, 10.852766, 0.287155, 0.087596, -1.918878, 1.590481, 63.897324, 152.368683, -585.741089, 13.727078, 100.771746
1759223388.346517, 2.822913, 14.136564, -0.330549, -0.038652, -0.462979, 1.339353, 63.858856, 153.235901, -585.857605, 13.727078, 100.771746
1759223388.366518, 1.395371, 13.649194, 1.403152, -0.629282, 0.947012, 0.905357, 65.032974, 153.885132, -585.398315, 13.727078, 100.771746
1759223388.386530, 0.451457, 10.674698, 4.633678, -1.174532, 0.502715, 1.040307, 65.755280, 155.352432, -587.031250, 13.727078, 100.771746
1759223388.406539, -1.395969, 7.529166, 2.085499, -0.975012, 0.904045, 0.858430, 66.585236, 156.447327, -587.235291, 13.727078, 100.771746
1759223388.426261, -1.459565, 6.107908, 2.654870, -1.147149, 0.953611, 0.901967, 67.281036, 157.640610, -586.860596, 13.727078, 100.771746
1759223388.446543, -3.215263, 7.726388, 2.076970, -1.449390, -0.576510, 0.773278, 67.248734, 158.573349, -586.406372, 13.727078, 100.771746
1759223388.466527, -2.275389, 8.507796, -1.102530, -1.011365, -1.848086, 0.473512, 66.464172, 159.261871, -584.575439, 13.727078, 100.771746
1759223388.486529, 0.265906, 8.517672, -3.106477, -0.672321, -1.098138, 0.325086, 66.156174, 159.736420, -584.362427, 13.727078, 100.771746
1759223388.506551, 1.043273, 8.494179, -1.268927, -0.602128, -0.708031, 0.404838, 65.942139, 160.235870, -583.364563, 13.727078, 100.771746
1759223388.526276, 0.908899, 9.231144, 0.329352, -0.531530, -0.602367, 0.528191, 66.102982, 160.600601, -582.248535, 13.727078, 100.771746
1759223388.546529, 0.517746, 9.569774, 1.307084, -0.530225, -0.586867, 0.760160, 66.260025, 161.251968, -581.632629, 13.727078, 100.771746
1759223388.566528, -0.244358, 9.635614, -0.614113, -0.594167, -0.354010, 0.858791, 66.388382, 162.001328, -580.872314, 13.727078, 100.771746
1759223388.586521, -0.090980, 10.649259, -1.604564, -0.375513, -0.215322, 0.999662, 66.802597, 162.887085, -580.921021, 13.727078, 100.771746
1759223388.606521, -1.507599, 10.706271, -0.441880, -0.047667, -0.082516, 1.080533, 67.473068, 163.480652, -581.046997, 13.727078, 100.771746
1759223388.626284, -2.920327, 10.976068, 1.150713, 0.112637, -0.092247, 0.943613, 67.907410, 163.913300, -580.526855, 13.727078, 100.771746
1759223388.646516, -4.288614, 11.044752, 0.216376, 0.102900, -0.171924, 0.318664, 67.564514, 164.137970, -580.595093, 13.727078, 100.771746
1759223388.666521, -1.932570, 9.860669, -3.195810, 0.564107, -0.432977, -0.330272, 67.666443, 163.538239, -580.722534, 13.727078, 100.771746
1759223388.686517, -2.313248, 12.375030, -4.049343, 1.081707, -0.249835, -0.670569, 67.119949, 162.779739, -581.403198, 13.727078, 100.771746
1759223388.706520, -3.176507, 13.344083, -3.473538, 2.110393, 0.282812, -1.001047, 66.394958, 161.284286, -582.437012, 13.727078, 100.771746
1759223388.726299, -4.045303, 13.677924, -1.597232, 2.805368, 0.209975, -1.605166, 66.056335, 158.893570, -583.211060, 13.727078, 100.771746
1759223388.746522, -1.739836, 13.658472, -1.372177, 3.099478, -0.487958, -2.105851, 65.048126, 155.879669, -584.231567, 13.727078, 100.771746
1759223388.766521, 0.512060, 14.958523, 0.389058, 2.783934, -1.236696, -2.577513, 64.236282, 152.616028, -583.659363, 13.727078, 100.771746
1759223388.786520, 3.610905, 16.367660, 2.885013, 2.049535, -1.637507, -2.191758, 63.220520, 149.837494, -583.481384, 13.727078, 100.771746
1759223388.806518, 3.867085, 14.680197, 5.789778, 0.832002, -1.440957, -1.705135, 62.412750, 147.820206, -582.835815, 13.727078, 100.771746
1759223388.826500, 4.360140, 11.633127, 5.102792, -0.363549, -2.115009, -1.399533, 61.855988, 146.532959, -581.242676, 13.726879, 100.771866
1759223388.846532, -0.900070, 9.162610, -5.378574, 0.034570, -2.403295, -1.758783, 61.231903, 144.964706, -578.043579, 13.726879, 100.771866
1759223388.866536, -1.771859, 10.372579, -5.851878, 0.228050, 0.512377, -1.798864, 61.521194, 143.302094, -578.273743, 13.726879, 100.771866
1759223388.886536, -1.537227, 10.743232, -1.194557, 0.198844, 2.454217, -1.593252, 62.008133, 141.674988, -580.909485, 13.726879, 100.771866
1759223388.906535, -1.734001, 9.502586, 2.084601, 0.174937, 3.061276, -1.647132, 63.140488, 140.063614, -583.362793, 13.726879, 100.771866
1759223388.926349, 0.563236, 8.258499, 4.307019, 0.491130, 2.443401, -1.371136, 63.979797, 138.613678, -585.467163, 13.726879, 100.771866
1759223388.946532, 2.032827, 5.692514, 3.392733, 0.665702, 1.657251, -1.249184, 64.832626, 137.298050, -587.257080, 13.726879, 100.771866
1759223388.966529, 4.134936, 4.074931, 0.589871, -0.171671, 1.506960, -1.115356, 65.872070, 136.330170, -587.551880, 13.726879, 100.771866
1759223388.986526, 4.646547, 3.848679, 0.468066, -0.655736, 1.280921, -0.593670, 66.807648, 135.812973, -589.559265, 13.726879, 100.771866
1759223389.006536, 4.107552, 3.634099, 0.285957, -0.823508, 1.277563, -0.009433, 67.430237, 136.177505, -591.068970, 13.726879, 100.771866
1759223389.026363, 3.408745, 3.987244, -0.037409, -0.978150, 1.216218, 0.474078, 68.028915, 136.785400, -591.255615, 13.726879, 100.771866
1759223389.046535, 2.987664, 4.545541, -0.658106, -1.210394, 0.791851, 0.930879, 68.717148, 137.644516, -592.086975, 13.726879, 100.771866
1759223389.066534, 3.249829, 5.335179, -0.833033, -1.508055, 0.379796, 1.330830, 68.584671, 139.221100, -591.865479, 13.726879, 100.771866
1759223389.086535, 3.785083, 7.408258, -2.688539, -1.421452, 0.511054, 1.855483, 69.019241, 141.141968, -592.394958, 13.726879, 100.771866
1759223389.106536, 2.656217, 12.003180, -5.373037, -1.116741, 1.361375, 2.369910, 69.448990, 143.381851, -593.070679, 13.726879, 100.771866
1759223389.126383, -7.475296, 18.195933, -6.966828, -0.478621, 0.522659, 0.976097, 70.225616, 144.689896, -593.148560, 13.726879, 100.771866
1759223389.146512, -19.050812, 25.737967, -3.715651, -0.152733, -1.819637, -2.367518, 70.065796, 143.844833, -592.219727, 13.726879, 100.771866
1759223389.166532, -6.038027, 18.973599, -6.773945, 0.560155, -1.075560, -1.998215, 69.879868, 141.882767, -589.943298, 13.726879, 100.771866
1759223389.186516, 1.581370, 14.098256, -3.622427, 1.067721, -1.642446, 0.385821, 68.312988, 141.245621, -590.402893, 13.726879, 100.771866
1759223389.206527, 5.369895, 13.758429, 2.021005, 0.852310, -2.442102, 1.356931, 66.739182, 141.176987, -590.001221, 13.726879, 100.771866
1759223389.226394, 4.055478, 8.089259, 6.577471, 0.252875, -2.296270, 1.216972, 65.724014, 141.709702, -587.936768, 13.726879, 100.771866
1759223389.246513, 2.510470, 3.990386, 2.763657, -0.346112, -0.963759, 0.737853, 65.221649, 142.677170, -587.349426, 13.726879, 100.771866
1759223389.266527, 1.457321, 2.554314, -0.329352, -0.798265, -0.741709, 0.490709, 65.513123, 142.997940, -585.750488, 13.726879, 100.771866
1759223389.286529, 2.141613, 6.160281, -0.217124, -1.053628, -0.755110, 0.883543, 65.278229, 144.047974, -585.404175, 13.726879, 100.771866
1759223389.306542, 3.332130, 11.601403, -0.864905, -0.339035, -0.421713, 1.481803, 64.990784, 145.203400, -585.296204, 13.726879, 100.771866
1759223389.326418, 2.327613, 13.849409, -0.470910, 0.575987, 0.206816, 1.631099, 65.003433, 146.345734, -585.026001, 13.726879, 100.771866
1759223389.346521, 1.165976, 13.894151, 0.625934, -0.093629, 0.910153, 1.461051, 65.672562, 147.347000, -585.460571, 13.726879, 100.771866
1759223389.366526, -1.017386, 10.453084, 1.630302, -0.892794, 0.707592, 1.068918, 66.276108, 148.394333, -585.413818, 13.726879, 100.771866
1759223389.386523, -1.038635, 9.237429, 1.864784, -0.756352, 0.451749, 0.724239, 66.621063, 149.424530, -586.591858, 13.726879, 100.771866
1759223389.406530, -0.904260, 7.399729, 4.057424, -0.887611, 0.462593, 0.551973, 67.092209, 150.383301, -586.753662, 13.726879, 100.771866
1759223389.426427, -1.504756, 7.899219, 2.927061, -1.308096, 0.963908, 0.582338, 67.479706, 151.035477, -585.932312, 13.726879, 100.771866
1759223389.446526, -3.469198, 9.757270, 0.790386, -1.640098, 0.101347, 0.607930, 68.157593, 152.243759, -586.428955, 13.726879, 100.771866
1759223389.466525, -3.110367, 8.912266, -2.882320, -0.704871, -0.889596, 0.484961, 67.576416, 152.638718, -585.757935, 13.726879, 100.771866
1759223389.486559, -0.085293, 7.832780, -1.815403, -0.423938, -0.791970, 0.121316, 67.176224, 153.232803, -585.970764, 13.726879, 100.771866
1759223389.506524, 1.144578, 9.036316, -0.233135, -0.770408, -0.451465, 0.264340, 67.280182, 153.425079, -585.458984, 13.726879, 100.771866
1759223389.526445, 1.376666, 9.657012, 0.869843, -0.818571, -0.262128, 0.457245, 67.106644, 153.854889, -584.437195, 13.726879, 100.771866
1759223389.546524, 1.317260, 9.097817, 1.186925, -0.790674, -0.325515, 0.665924, 67.071671, 154.548737, -584.307007, 13.726879, 100.771866
1759223389.566525, 1.032799, 8.905832, -0.677110, -0.816757, 0.250615, 0.944616, 67.456909, 155.212524, -583.173950, 13.726879, 100.771866
1759223389.586204, 0.448913, 9.444826, -0.832135, -0.658556, 0.567216, 1.148966, 68.025955, 156.330093, -584.365356, 13.726879, 100.771866
1759223389.606574, -0.744597, 10.741286, 0.204106, -0.343500, 0.181807, 1.137329, 68.636368, 157.241821, -584.106567, 13.726879, 100.771866
1759223389.626462, -1.909077, 11.579856, 1.319804, -0.270667, 0.080545, 0.903810, 68.931488, 158.147018, -583.691528, 13.726879, 100.771866
1759223389.646525, -1.767968, 12.002283, 0.672022, -0.287767, 0.371025, 0.609106, 69.182770, 158.697311, -584.606323, 13.726879, 100.771866
1759223389.666525, -0.819864, 11.217882, -0.395043, 0.027280, 0.542906, 0.515463, 69.667862, 158.951950, -583.895996, 13.726879, 100.771866
1759223389.686515, -0.729932, 11.184363, -0.096367, 0.106212, 0.557256, 0.302119, 69.948654, 159.244598, -585.116699, 13.726879, 100.771866
1759223389.706513, -0.996287, 12.844293, 0.041150, 0.111024, 0.299559, 0.114269, 70.199265, 159.188095, -585.376892, 13.726879, 100.771866
1759223389.726479, -2.488024, 12.160898, -1.768118, 0.591995, -0.256635, -0.094803, 70.093414, 159.049561, -585.079956, 13.726879, 100.771866
1759223389.746066, -3.500472, 12.397027, -2.676119, 0.907305, -0.206436, -0.294332, 69.849289, 158.437424, -585.431885, 13.726879, 100.771866
1759223389.766507, -2.287061, 10.334422, -3.128324, 2.221163, 0.076570, -0.906702, 69.591888, 156.937759, -585.713562, 13.726879, 100.771866
1759223389.786514, -1.007959, 9.143456, -3.355773, 2.663113, 0.020271, -0.996057, 69.404434, 155.288315, -587.151794, 13.726879, 100.771866
1759223389.806509, -0.167594, 8.180089, -3.377620, 3.338670, 0.158849, -1.130890, 68.631073, 152.956772, -588.202881, 13.726879, 100.771866
1759223389.826502, -0.402226, 8.154352, -2.627487, 3.521439, 0.157062, -1.657498, 68.334137, 150.147507, -588.335449, 13.726879, 100.771866
1759223389.846529, -1.105972, 12.228684, 0.424372, 2.838567, 0.479122, -2.505311, 68.160080, 146.848740, -589.905273, 13.726882, 100.771902
1759223389.866167, 2.344821, 15.258098, 6.453421, 2.269454, -0.985752, -2.375292, 67.315735, 143.970795, -588.779724, 13.726882, 100.771902
1759223389.886536, 2.996044, 16.127941, 11.995100, 0.611238, -3.161364, -1.761858, 66.293045, 142.309235, -587.228271, 13.726882, 100.771902
1759223389.906027, 3.212719, 17.117644, 4.787954, -1.404909, -2.432490, -1.293756, 65.060043, 141.581757, -585.227173, 13.726882, 100.771902
1759223389.926506, -4.857835, 12.974478, -9.155876, -0.822996, -1.763800, -2.230422, 65.086777, 140.259125, -582.872620, 13.726882, 100.771902
1759223389.946531, -2.183362, 13.338995, -4.916493, -0.347655, 0.819337, -2.207653, 64.960022, 138.662537, -584.061829, 13.726882, 100.771902
1759223389.966322, 0.914435, 10.298210, -0.114622, -0.080277, 1.309005, -1.565547, 65.656036, 137.079468, -584.643738, 13.726882, 100.771902
1759223389.986534, 1.155950, 8.094646, -1.163432, 0.195190, 2.525797, -1.056215, 66.785919, 136.056198, -587.252930, 13.726882, 100.771902
1759223390.006527, 1.548450, 5.634305, 1.330578, 0.385929, 2.671270, -0.767860, 67.743820, 135.530197, -589.763611, 13.726882, 100.771902
1759223390.026501, 2.825906, 3.566014, 1.877353, 0.280762, 2.148593, -0.730645, 68.869476, 134.680664, -590.703979, 13.726882, 100.771902
1759223390.046532, 4.866514, 3.193117, 1.701380, -0.031562, 1.786662, -0.654067, 69.772324, 134.330811, -592.519043, 13.726882, 100.771902
1759223390.066526, 5.736657, 4.049044, 1.866430, -0.387166, 1.093687, -0.387952, 70.787338, 133.895996, -592.194031, 13.726882, 100.771902
1759223390.086530, 5.047875, 3.899855, 0.696563, -0.648938, 0.574170, -0.018540, 71.385651, 134.301071, -593.796631, 13.726882, 100.771902
1759223390.106578, 2.887557, 3.862147, -0.572065, -0.991090, 0.354087, 0.344135, 71.465973, 134.942627, -593.650391, 13.726882, 100.771902
1759223390.126506, 1.757045, 5.481076, -1.716942, -1.235815, 0.342325, 0.751948, 71.836136, 136.135376, -593.589600, 13.726882, 100.771902
1759223390.146534, -0.363919, 9.554511, -3.050063, -1.072016, 0.528119, 1.224321, 71.904495, 137.416489, -594.047729, 13.726882, 100.771902
1759223390.166540, -3.096002, 13.913604, -3.916016, -0.762773, 0.548762, 1.330221, 72.549942, 138.434204, -593.654785, 13.726882, 100.771902
1759223390.186537, -7.398382, 16.667684, -6.339247, -0.342240, 0.489392, 0.340065, 72.576660, 139.281769, -594.770447, 13.726882, 100.771902
1759223390.206539, -10.654048, 16.412402, -6.786814, -0.024818, -0.056733, -0.762222, 73.122986, 138.840317, -594.537598, 13.726882, 100.771902
1759223390.226506, -6.145018, 14.920066, -4.890307, -0.123215, 0.235509, -0.684634, 72.908936, 138.226318, -595.090454, 13.726882, 100.771902
1759223390.246530, -0.631620, 11.308862, -2.825757, 0.109464, -0.544468, -0.229496, 72.636124, 137.851654, -595.186401, 13.726882, 100.771902
1759223390.266525, 3.071312, 11.292402, -1.595137, 0.392962, -1.846137, 0.584755, 71.740158, 137.673737, -593.313904, 13.726882, 100.771902
1759223390.286570, 5.548712, 13.218687, 3.202544, 0.502424, -3.235478, 1.323988, 69.784424, 138.195053, -592.608459, 13.726882, 100.771902
1759223390.306542, 4.295647, 13.094039, 2.794632, 0.364946, -2.854409, 1.169635, 68.060410, 138.699997, -590.667358, 13.726882, 100.771902
1759223390.326506, 2.026542, 8.054843, -1.857152, -0.010840, -1.827879, 0.260919, 67.388901, 139.071930, -588.995667, 13.726882, 100.771902
1759223390.346532, 1.947533, 5.255123, 1.097741, -0.975269, -1.533213, 0.405555, 67.157349, 139.591843, -588.109009, 13.726882, 100.771902
1759223390.366539, 2.609530, 5.770325, 2.785354, -0.991573, -1.777044, 0.890479, 66.329773, 140.102631, -584.940979, 13.726882, 100.771902
1759223390.386531, 1.508197, 9.352201, 2.226159, -0.171774, -1.862456, 1.114203, 65.712708, 141.153259, -584.068420, 13.726882, 100.771902
1759223390.406535, 1.676390, 13.360693, 0.308104, 0.900410, -0.696422, 1.474429, 65.713974, 141.772186, -583.386902, 13.726882, 100.771902
1759223390.426516, 0.271592, 16.797270, -1.059285, -0.015521, 2.972709, 2.003718, 66.094559, 143.178024, -585.158203, 13.726882, 100.771902
1759223390.446536, -2.732233, 12.119598, 1.453580, -1.572528, 4.695725, 1.266763, 68.182953, 144.635849, -588.798462, 13.726882, 100.771902
1759223390.466526, -1.323994, 7.481132, 4.792444, -2.163054, 2.195200, 0.725604, 69.761841, 146.067627, -590.211121, 13.726882, 100.771902
1759223390.486530, -0.667982, 3.321506, 2.305018, -1.253165, -1.580722, 0.940148, 69.859406, 147.607468, -590.115051, 13.726882, 100.771902
1759223390.506528, -3.139098, 3.482666, -1.152509, -0.453789, -2.317404, 0.773738, 69.092377, 148.646790, -587.975037, 13.726882, 100.771902
1759223390.526507, -3.826234, 7.958476, -2.274940, -0.993087, -1.107468, 0.426163, 68.363846, 149.087479, -587.063660, 13.726882, 100.771902
1759223390.546536, -1.548300, 11.472266, -1.245583, -0.830536, -0.085502, 0.195774, 68.016098, 149.722519, -586.808838, 13.726882, 100.771902
1759223390.566534, 0.926406, 12.340164, 0.391602, -0.664685, -0.625820, 0.356129, 67.865616, 150.087677, -585.461426, 13.726882, 100.771902
1759223390.586540, 1.414524, 9.298181, -0.147992, -0.743359, -0.309121, 0.547121, 68.153442, 150.780716, -586.129089, 13.726882, 100.771902
1759223390.606596, 1.058087, 7.651270, 1.198597, -0.794117, 0.180811, 0.801461, 68.528931, 151.550568, -585.535522, 13.726882, 100.771902
1759223390.626508, 1.019331, 8.814553, 0.345513, -0.744830, 0.187900, 1.207233, 68.843506, 152.481949, -585.514221, 13.726882, 100.771902
1759223390.646533, 0.658854, 9.940725, -0.087987, -0.641020, 0.204002, 1.329651, 69.430389, 153.702698, -585.747620, 13.726882, 100.771902
1759223390.666529, 0.793977, 10.926837, 0.744597, -0.557066, 0.125645, 1.347109, 69.951828, 154.429214, -584.890503, 13.726882, 100.771902
1759223390.686535, -0.558747, 11.173440, 0.202310, -0.244973, 0.066924, 1.268990, 70.580368, 155.832718, -585.800781, 13.726882, 100.771902
1759223390.706530, -2.113930, 10.402507, 0.314239, -0.107640, 0.068449, 0.817024, 70.931473, 156.352142, -585.107483, 13.726882, 100.771902
1759223390.726502, -1.515380, 9.735423, -1.138144, 0.158936, 0.254822, 0.255967, 71.285660, 156.657593, -585.687317, 13.726882, 100.771902
1759223390.746529, -1.153257, 11.801768, -2.037765, 0.356248, 0.134191, -0.003539, 71.728912, 156.480820, -585.564575, 13.726882, 100.771902
1759223390.765898, -2.111686, 12.829030, -2.258929, 1.020276, -0.199844, -0.169623, 71.520340, 156.136490, -584.915894, 13.726882, 100.771902
1759223390.786532, -2.958784, 13.604303, -1.474978, 1.809195, -0.270303, -0.749306, 71.231918, 155.283203, -585.860718, 13.726882, 100.771902
1759223390.806535, -2.337339, 12.521076, -1.445948, 2.737343, -0.418440, -1.274051, 71.239960, 153.699783, -585.375977, 13.726882, 100.771902
1759223390.826510, -0.352696, 11.164312, -2.664896, 3.261366, -0.720290, -1.484282, 70.357208, 151.749680, -586.314636, 13.726882, 100.771902
1759223390.846536, -0.569072, 10.763433, -2.315043, 2.900263, -0.365421, -2.413713, 69.775116, 149.188690, -586.470276, 13.726887, 100.771895
1759223390.866548, -0.684293, 13.107057, -1.111358, 2.361835, 0.855636, -2.949697, 70.084778, 146.464630, -586.083862, 13.726887, 100.771895
1759223390.886535, 1.376516, 14.595652, 2.984672, 2.087099, 0.543604, -2.483817, 70.323486, 143.836411, -587.122925, 13.726887, 100.771895
1759223390.906536, 1.437718, 16.027983, 6.593182, 1.191035, -0.888161, -2.099089, 70.176407, 141.742706, -586.244019, 13.726887, 100.771895
1759223390.926510, 0.981323, 14.787188, 7.535600, -0.264523, -2.812258, -1.890468, 69.417053, 140.636261, -585.809937, 13.726887, 100.771895
1759223390.946547, -2.790143, 11.506533, 0.170886, -0.853338, -3.284376, -2.101165, 68.274857, 139.600204, -583.294922, 13.726887, 100.771895
1759223390.966510, -3.353828, 10.666917, -8.078934, -0.622618, 0.403540, -2.320060, 67.986008, 138.555252, -581.232910, 13.726887, 100.771895
1759223390.986536, 0.624438, 12.024429, -3.168726, -0.312648, 3.124562, -1.786110, 68.762573, 137.440933, -583.313721, 13.726887, 100.771895
1759223391.006538, 2.148197, 8.985439, 1.543512, -0.091614, 3.449061, -1.229715, 69.590240, 136.450455, -585.751282, 13.726887, 100.771895
1759223391.026511, 4.669142, 5.265897, 2.767248, 0.574915, 2.795691, -1.160510, 70.456894, 135.916702, -588.691711, 13.726887, 100.771895
1759223391.046543, 5.038747, 4.345027, 1.070208, 0.474096, 2.236079, -1.146305, 71.973328, 135.216537, -589.860718, 13.726887, 100.771895
1759223391.066535, 4.905570, 4.060865, 1.153706, -0.180800, 1.381360, -0.814110, 72.843628, 134.588806, -590.270874, 13.726887, 100.771895
1759223391.086536, 4.228160, 4.245219, 0.555156, -0.438799, 1.250522, -0.429019, 73.689423, 134.654358, -591.464600, 13.726887, 100.771895
1759223391.106536, 3.981108, 4.438551, 0.300023, -0.629030, 1.069120, 0.059433, 74.462769, 134.655945, -591.850037, 13.726887, 100.771895
1759223391.126115, 4.190003, 4.010737, -0.053121, -0.872834, 0.637359, 0.568165, 74.688492, 135.783005, -592.891113, 13.726887, 100.771895
1759223391.146095, 4.639364, 3.877559, -0.685939, -1.324043, 0.339551, 1.134425, 74.918228, 136.885590, -593.384888, 13.726887, 100.771895
1759223391.166518, 4.166509, 5.170877, -2.886360, -1.454192, 0.642112, 1.627158, 74.796143, 138.639465, -592.354675, 13.726887, 100.771895
1759223391.186430, 1.755249, 9.277681, -4.537012, -1.200838, 1.225856, 2.266567, 75.522964, 140.734451, -592.951660, 13.726887, 100.771895
1759223391.206536, -5.933879, 13.864971, -4.674529, -0.872901, 0.599775, 1.742978, 76.123322, 142.653137, -592.663513, 13.726887, 100.771895
1759223391.225538, -20.577864, 24.206426, -3.212270, -0.415947, -2.351785, -1.761210, 75.313385, 143.396027, -592.572937, 13.726887, 100.771895
1759223391.246524, -11.711836, 22.612038, -7.575853, 0.191647, -1.050819, -2.923148, 75.220596, 142.583435, -590.210754, 13.726887, 100.771895
1759223391.266274, -1.653496, 8.895357, -3.979462, 0.825633, -1.865661, -0.685111, 74.116592, 141.053955, -589.785461, 13.726887, 100.771895
1759223391.286536, 5.114613, 6.835745, -0.332046, -0.006765, -2.778858, 0.962829, 71.976990, 140.894501, -589.536011, 13.726887, 100.771895
1759223391.306597, 6.409128, 9.981427, 6.428731, -0.107737, -4.387311, 2.116948, 69.947739, 141.898132, -585.671936, 13.726887, 100.771895
1759223391.325555, 8.231864, 17.639281, 0.666336, 0.433480, -2.427808, 3.377639, 68.009628, 144.104675, -584.146118, 13.726887, 100.771895
1759223391.346558, 2.407819, 11.323826, -9.821614, 0.368980, 3.028692, 1.271848, 67.346985, 145.727325, -585.769531, 13.726887, 100.771895
1759223391.366536, 0.556502, 8.703671, 3.795408, -0.177449, -0.521412, 0.182957, 69.132996, 146.429871, -585.369263, 13.726887, 100.771895
1759223391.386538, 1.195156, 7.708880, 4.094384, -0.120437, -2.178937, 0.440734, 68.595200, 146.951584, -584.532227, 13.726887, 100.771895
1759223391.406536, 1.165827, 8.981249, 3.129072, 0.144737, -1.958596, 0.788414, 67.796188, 147.422562, -582.351135, 13.726887, 100.771895
1759223391.425580, 1.041927, 9.070433, 2.645443, 0.194556, -1.469036, 0.922096, 67.173264, 148.181839, -582.115295, 13.726887, 100.771895
1759223391.446542, 1.471237, 12.433987, 1.592743, -0.600669, 1.232122, 1.315938, 67.145493, 149.370361, -581.552429, 13.726887, 100.771895
1759223391.466538, -0.462081, 11.039664, 1.629254, -1.532963, 2.500919, 1.090527, 67.955688, 150.373550, -582.541992, 13.726887, 100.771895
1759223391.486534, -0.610970, 9.077616, 1.361702, -1.585101, 2.174994, 0.616925, 68.829468, 151.718872, -584.497925, 13.726887, 100.771895
1759223391.506537, 1.676540, 6.529437, -0.387262, -1.032678, -0.323542, 0.768636, 69.340149, 152.822647, -584.502136, 13.726887, 100.771895
1759223391.525593, 1.181838, 7.834426, 0.938228, -0.762010, -1.977711, 0.770679, 68.889725, 153.929825, -583.981934, 13.726887, 100.771895
1759223391.546541, -0.041300, 9.329007, 1.398513, -1.176240, -1.486163, 0.744315, 68.615646, 154.745026, -582.332397, 13.726887, 100.771895
1759223391.566540, -0.774824, 8.785074, 0.374393, -1.272413, -0.264162, 0.634986, 68.335785, 155.826965, -580.868896, 13.726887, 100.771895
1759223391.586535, -0.890194, 7.603685, -0.337433, -1.103560, 0.461402, 0.664135, 68.282272, 156.791260, -581.135986, 13.726887, 100.771895
1759223391.606416, -1.855806, 7.783550, -2.158672, -0.980420, 0.231657, 0.671532, 68.761627, 157.661667, -580.290955, 13.726887, 100.771895
1759223391.626304, -2.356942, 9.203461, -3.141492, -0.567164, -0.222292, 0.544393, 68.990433, 158.582764, -580.603699, 13.726887, 100.771895
1759223391.646588, -0.004788, 9.788843, 0.181959, -0.360967, -0.346198, 0.474443, 68.587219, 159.114944, -580.437378, 13.726887, 100.771895
1759223391.666344, 1.890821, 10.103082, 1.292121, -0.637576, 0.058968, 0.650291, 68.865845, 159.664246, -579.702637, 13.726887, 100.771895
1759223391.686531, 2.656666, 10.213066, 0.039654, -0.648358, 0.451192, 0.870946, 68.801682, 160.602127, -580.223572, 13.726887, 100.771895
1759223391.706526, 0.273388, 10.992827, -1.169418, -0.118834, 0.042243, 1.023537, 69.468033, 161.362122, -579.227112, 13.726887, 100.771895
1759223391.726514, -2.159420, 10.775553, 0.885406, 0.127742, 0.082130, 0.832426, 69.493790, 162.226913, -579.782715, 13.726887, 100.771895
1759223391.746522, -3.179649, 11.608885, 1.456572, -0.012422, 0.463760, 0.578034, 69.940231, 162.870987, -580.014404, 13.726887, 100.771895
1759223391.766521, -3.220949, 10.076596, -1.042376, 0.184873, 0.120583, 0.069046, 69.790527, 163.116013, -580.062866, 13.726887, 100.771895
1759223391.786531, -1.527501, 11.809998, -3.771017, 0.690892, -0.352672, -0.336789, 69.316666, 163.313065, -580.230164, 13.726887, 100.771895
1759223391.806539, -1.666364, 13.835343, -4.174740, 1.040008, -0.313936, -0.374588, 69.024353, 162.545090, -579.406311, 13.726887, 100.771895
1759223391.825635, -2.618658, 14.881310, -4.714183, 2.162944, -0.053483, -0.639860, 68.552505, 161.962265, -581.233337, 13.726887, 100.771895
1759223391.846552, -3.255665, 10.868478, -2.013673, 3.012578, 0.337233, -1.121508, 67.950714, 160.283768, -582.970276, 13.726884, 100.771890
1759223391.866259, -3.024176, 11.331308, -1.095647, 3.398952, -0.061905, -1.798305, 66.863831, 157.817200, -583.842651, 13.726884, 100.771890
1759223391.886194, -1.050306, 13.763068, 0.178817, 2.836856, -0.140267, -2.649528, 66.073822, 155.074020, -584.853760, 13.726884, 100.771890
1759223391.906540, 2.564190, 16.438140, 1.876306, 2.078366, -0.069203, -2.301584, 65.428467, 151.895996, -584.876343, 13.726884, 100.771890
1759223391.926304, 3.793014, 17.148469, 4.486135, 1.425933, -0.666862, -1.627670, 64.286972, 149.727921, -585.690857, 13.726884, 100.771890
1759223391.946540, 2.653673, 14.861109, 9.700407, -0.220178, -1.630529, -1.540502, 63.646408, 148.073868, -585.446716, 13.726884, 100.771890
1759223391.966540, -0.003741, 10.272173, 0.729783, -0.509120, -3.919432, -1.879040, 62.310287, 146.997681, -581.936401, 13.726884, 100.771890
1759223391.986542, -1.663970, 9.517101, -9.015067, -0.048762, -0.826598, -2.093429, 61.463455, 145.097733, -580.507202, 13.726884, 100.771890
1759223392.006538, 1.048511, 11.531223, -4.374057, 0.349813, 2.241357, -1.608215, 61.385086, 143.362411, -581.210571, 13.726884, 100.771890
1759223392.026112, 0.713472, 9.717167, 0.773477, 0.559644, 2.761459, -1.460150, 62.164612, 141.898697, -584.776001, 13.726884, 100.771890
1759223392.046544, 2.145055, 7.759009, 2.104354, 0.890982, 2.808274, -1.347185, 63.480103, 140.145782, -587.059998, 13.726884, 100.771890
1759223392.066541, 3.180398, 5.693112, 2.761562, 0.924657, 2.109620, -1.172747, 64.263443, 138.546982, -588.902039, 13.726884, 100.771890
1759223392.086548, 3.591751, 3.981557, 1.746271, 0.282933, 1.498947, -1.108596, 65.322021, 137.270844, -590.383057, 13.726884, 100.771890
1759223392.106541, 4.201076, 3.658490, 1.216703, -0.200930, 1.013934, -0.739751, 66.091660, 136.495041, -590.824158, 13.726884, 100.771890
1759223392.126141, 4.220529, 3.623026, 1.012897, -0.508295, 0.890217, -0.284562, 66.437119, 136.255478, -592.176270, 13.726884, 100.771890
1759223392.146545, 4.127604, 3.776404, 0.980276, -0.796476, 0.835101, 0.183151, 66.700897, 136.517181, -593.036804, 13.726884, 100.771890
1759223392.166556, 4.158878, 4.124761, 0.236128, -1.109157, 0.530321, 0.755250, 67.242615, 137.051788, -593.052734, 13.726884, 100.771890
1759223392.186536, 4.012532, 4.305523, -0.161309, -1.694420, 0.139823, 1.315247, 66.990814, 138.595886, -594.191345, 13.726884, 100.771890
1759223392.206542, 3.873220, 5.645827, -2.407968, -1.724251, 0.272131, 1.922050, 67.102264, 140.552368, -593.478210, 13.726884, 100.771890
1759223392.226476, 3.860351, 9.991452, -3.709815, -1.349153, 0.893230, 2.791425, 67.588715, 143.315186, -594.445251, 13.726884, 100.771890
1759223392.246545, -1.775899, 17.621773, -5.322909, -0.444831, 0.708919, 2.316547, 67.814453, 145.532501, -594.949341, 13.726884, 100.771890
1759223392.266446, -19.787329, 27.056723, -4.512920, -0.182531, -2.449590, -1.853423, 67.565521, 145.291534, -593.038147, 13.726884, 100.771890
1759223392.286543, -8.367136, 23.312641, -9.493907, 0.022730, -1.256185, -3.009422, 67.141800, 143.554352, -591.772766, 13.726884, 100.771890
1759223392.306569, -1.035043, 10.347440, -3.152415, 0.696205, -2.573882, -0.982368, 66.630478, 141.416168, -589.418823, 13.726884, 100.771890
1759223392.325734, 6.090250, 9.277980, -1.862240, 0.425890, -3.531534, 1.058112, 63.504990, 141.106781, -589.095825, 13.726884, 100.771890
1759223392.346543, 7.140108, 9.974693, 3.188029, 0.166677, -3.691342, 1.941503, 61.958313, 142.143356, -586.299500, 13.726884, 100.771890
1759223392.366544, 7.395689, 11.856236, 1.467496, 0.358716, -1.466920, 2.059282, 60.399368, 143.547531, -584.139771, 13.726884, 100.771890
1759223392.386544, 4.266916, 9.471761, 2.209100, -0.122689, 1.281024, 0.964171, 61.171326, 144.817856, -584.406128, 13.726884, 100.771890
1759223392.406544, 2.158672, 8.392126, 2.262521, -0.914660, 1.604618, 1.055636, 62.141571, 145.651062, -584.853821, 13.726884, 100.771890
1759223392.425750, 0.545878, 8.906879, 1.064372, -0.793223, 1.431435, 1.214034, 63.049622, 147.158142, -586.429199, 13.726884, 100.771890
1759223392.446562, -0.783951, 7.631069, 0.390255, -0.071876, 0.582198, 1.176215, 63.644012, 148.024246, -587.096558, 13.726884, 100.771890
1759223392.466542, -0.323516, 6.565799, 0.520589, -0.013566, -0.649428, 1.315529, 63.605545, 148.933899, -586.939941, 13.726884, 100.771890
1759223392.486541, -0.131831, 9.433753, 1.200243, -1.092010, -0.103676, 0.736516, 63.309891, 150.009430, -586.710876, 13.726884, 100.771890
1759223392.506541, 0.144550, 12.423512, 2.713079, -1.443122, 0.512685, 0.665878, 64.171585, 150.627075, -586.090454, 13.726884, 100.771890
1759223392.525772, -1.484255, 9.660304, 1.673248, -0.968637, 0.619426, 0.537715, 64.231506, 151.700089, -586.894897, 13.726884, 100.771890
1759223392.546543, -2.700510, 8.497321, 0.332495, -0.865701, -0.580116, 0.256580, 64.541458, 152.353760, -586.882141, 13.726884, 100.771890
1759223392.566549, -2.272097, 8.895956, -0.780809, -0.710224, -1.115249, 0.065905, 64.138855, 152.671310, -584.728271, 13.726884, 100.771890
1759223392.586543, -0.256329, 9.703999, -0.607080, -0.864826, -0.231827, -0.052236, 64.059418, 152.878387, -585.161194, 13.726884, 100.771890
1759223392.606538, 1.255310, 9.019855, 0.937180, -0.910452, -0.166336, 0.095493, 64.061264, 153.371704, -585.063477, 13.726884, 100.771890
1759223392.626108, 2.204760, 8.380005, -0.084096, -0.840042, -0.392048, 0.348262, 63.748245, 153.492569, -584.395996, 13.726884, 100.771890
1759223392.646528, 2.494758, 9.031378, -0.244508, -0.848110, -0.169089, 0.517332, 63.959412, 154.395889, -583.869141, 13.726884, 100.771890
1759223392.665971, 1.932270, 9.347562, 0.017508, -0.763755, 0.147669, 0.776466, 64.248260, 154.741974, -583.272156, 13.726884, 100.771890
1759223392.686525, -0.041150, 9.325864, -0.227300, -0.479599, 0.092527, 1.013180, 64.844040, 156.219009, -583.832458, 13.726884, 100.771890
1759223392.706532, -0.770035, 9.554361, 0.011971, -0.434601, 0.197025, 0.946664, 64.861771, 156.988739, -583.880920, 13.726884, 100.771890
1759223392.726139, 0.273837, 9.929951, 0.299724, -0.384383, 0.468214, 0.955589, 65.149780, 157.393478, -583.955750, 13.726884, 100.771890
1759223392.746567, -0.307056, 10.502315, 0.401178, -0.147991, 0.226690, 0.902872, 65.866928, 158.416428, -583.483582, 13.726884, 100.771890
1759223392.766527, -1.423503, 10.714950, 0.667982, 0.096142, 0.039379, 0.694296, 66.215759, 158.576584, -583.495972, 13.726884, 100.771890
1759223392.786532, -1.481412, 10.784681, 0.992397, 0.184333, 0.138598, 0.457753, 66.533096, 158.971313, -584.288940, 13.726884, 100.771890
1759223392.806534, -0.819715, 9.916334, -0.667084, 0.316079, 0.358753, 0.191811, 66.530334, 159.075958, -585.176147, 13.726884, 100.771890
1759223392.826521, -0.927155, 11.913398, -2.222867, 0.529697, 0.199342, -0.049184, 66.658218, 158.648056, -584.482971, 13.726884, 100.771890
1759223392.846588, -1.959654, 13.985280, -2.932298, 0.956310, -0.169910, -0.293022, 66.748947, 158.213943, -585.089600, 13.726877, 100.771864
1759223392.866545, -3.141193, 12.844742, -3.776703, 2.083306, -0.275874, -0.695104, 66.410355, 156.709320, -585.162048, 13.726877, 100.771864
1759223392.886546, -4.148254, 11.003900, -1.591546, 2.760330, 0.108634, -1.285532, 66.194733, 154.925858, -586.669434, 13.726877, 100.771864
1759223392.906546, -3.003825, 10.283246, -1.744176, 3.154449, -0.098888, -1.799520, 65.459106, 152.055710, -587.547607, 13.726877, 100.771864
1759223392.926522, -0.578200, 10.940753, -1.394024, 2.899372, -0.019050, -2.438188, 64.940063, 148.894272, -587.127563, 13.726877, 100.771864
1759223392.946544, 1.442806, 14.538191, 0.953042, 2.103987, 0.433700, -2.548646, 65.208694, 145.914124, -587.803345, 13.726877, 100.771864
1759223392.966196, 3.484761, 16.183307, 4.273650, 1.454260, 0.041786, -1.893927, 64.968857, 143.553848, -587.557861, 13.726877, 100.771864
1759223392.986544, 2.995595, 16.310948, 8.919000, 0.123685, -0.981713, -1.373277, 64.634232, 142.291382, -587.802612, 13.726877, 100.771864
1759223393.006545, 1.138593, 11.969811, 4.787954, -0.471660, -3.579503, -1.390408, 63.362259, 141.432846, -585.448975, 13.726877, 100.771864
1759223393.026205, -2.018462, 9.214384, -5.394136, -0.432064, -2.503878, -1.993977, 62.749390, 140.198792, -582.113831, 13.726877, 100.771864
1759223393.046548, 0.178218, 11.738771, -6.451925, -0.234120, 1.568989, -1.759231, 62.933411, 138.641602, -583.425537, 13.726877, 100.771864
1759223393.066547, 0.646135, 10.408193, 0.254683, 0.053730, 2.626282, -1.492925, 63.707870, 137.435471, -584.968506, 13.726877, 100.771864
1759223393.086550, 0.992546, 9.106496, 0.786346, 0.561052, 3.177783, -1.343600, 65.310684, 136.176849, -588.481750, 13.726877, 100.771864
1759223393.106547, 2.414552, 6.274604, 2.343624, 0.883984, 2.665567, -1.173364, 66.611084, 134.933838, -590.941284, 13.726877, 100.771864
1759223393.126133, 3.674950, 4.154389, 1.467346, 0.373294, 1.950544, -1.025904, 67.842789, 133.874374, -592.009521, 13.726877, 100.771864
1759223393.146552, 4.531476, 3.347842, 1.006463, -0.256787, 1.407371, -0.715838, 68.777176, 133.591415, -593.642090, 13.726877, 100.771864
1759223393.166550, 4.613178, 3.688717, 1.106420, -0.607653, 1.033849, -0.242197, 69.798004, 133.404083, -593.685974, 13.726877, 100.771864
1759223393.186550, 4.399346, 4.391864, 1.114052, -0.823407, 0.687624, 0.172388, 70.088760, 133.812195, -594.760559, 13.726877, 100.771864
1759223393.206550, 3.944447, 4.935796, 0.354940, -0.975646, 0.432790, 0.562342, 70.358170, 134.667953, -594.891602, 13.726877, 100.771864
1759223393.226523, 4.078074, 4.814590, -0.495749, -1.332558, 0.240485, 1.028762, 70.417923, 136.003220, -594.904541, 13.726877, 100.771864
1759223393.246554, 3.357868, 5.190928, -2.533065, -1.550896, 0.673395, 1.436750, 70.947647, 137.631882, -595.485596, 13.726877, 100.771864
1759223393.266550, 3.423708, 9.102306, -3.304298, -1.477791, 1.275264, 2.306666, 71.361343, 139.754288, -595.146545, 13.726877, 100.771864
1759223393.286551, -2.212392, 17.606360, -5.969942, -0.442525, 0.519558, 2.041244, 71.508926, 141.773865, -596.301941, 13.726877, 100.771864
1759223393.306568, -21.664383, 29.625253, -4.970961, -0.278737, -1.632987, -2.209485, 71.392166, 141.238235, -594.655029, 13.726877, 100.771864
1759223393.325907, -8.751256, 22.790406, -8.039430, 0.072646, -0.888170, -2.952553, 71.878143, 139.418793, -593.432922, 13.726877, 100.771864
1759223393.346548, -1.969530, 5.557092, -6.458509, 1.219861, -2.355904, -0.981503, 70.464020, 138.020615, -593.487793, 13.726877, 100.771864
1759223393.366527, 6.052991, 0.533159, -2.231097, 0.352377, -2.689347, 0.963567, 68.242752, 137.501282, -591.331909, 13.726877, 100.771864
1759223393.386553, 5.697601, 6.257994, 4.081964, -0.368481, -3.202159, 2.038472, 66.668854, 139.123627, -589.396606, 13.726877, 100.771864
1759223393.406564, 7.199065, 14.670620, 3.706972, 0.249355, -2.783834, 3.048972, 65.096542, 140.938156, -587.157104, 13.726877, 100.771864
1759223393.425946, 6.386383, 18.633174, -0.459836, 0.345212, 0.844720, 2.268426, 64.131622, 142.954681, -586.954468, 13.726877, 100.771864
1759223393.446543, 1.952471, 9.417293, -2.568230, -0.522517, 3.493214, 1.073862, 65.290222, 143.167007, -588.392151, 13.726877, 100.771864
1759223393.466433, -0.018854, 10.477026, -1.598429, -1.723465, 3.005392, 0.460952, 69.265884, 145.278580, -591.014832, 13.726877, 100.771864
1759223393.486540, -0.952443, 8.352172, -0.484826, 0.556996, -3.504921, 0.574903, 68.896149, 145.821167, -591.016785, 13.726877, 100.771864
1759223393.506269, -0.570119, 6.098181, 4.917840, 0.847626, -4.583874, 0.408286, 66.678085, 145.902023, -587.909119, 13.726877, 100.771864
1759223393.526519, 1.534085, 7.732972, 3.380463, 0.166744, -2.655750, 0.465334, 65.062256, 145.928497, -584.136841, 13.726877, 100.771864
1759223393.545745, 2.745551, 11.335198, 3.708618, -1.452372, 0.000465, 0.805151, 64.855026, 146.778091, -583.991699, 13.726877, 100.771864
1759223393.566547, -0.050578, 11.049839, -0.510713, -1.211320, 2.419873, 0.672012, 65.736328, 147.798859, -584.183960, 13.726877, 100.771864
1759223393.586288, -0.200215, 9.922918, 2.086247, -1.307927, 2.813582, 0.752610, 67.241714, 148.988190, -587.425293, 13.726877, 100.771864
1759223393.606555, -1.680131, 8.701277, 2.142511, -1.728992, 0.281083, 0.815900, 68.024551, 150.404953, -588.331970, 13.726877, 100.771864
1759223393.626531, -2.169895, 7.570765, -0.908899, -0.906531, -1.473482, 0.476952, 67.538727, 151.489563, -587.107483, 13.726877, 100.771864
1759223393.646532, 0.525677, 7.986309, -1.742530, -0.903670, -1.073373, 0.425598, 67.290939, 152.318512, -586.295044, 13.726877, 100.771864
1759223393.666597, 0.872687, 8.855853, -0.828992, -0.953995, -0.525707, 0.548964, 66.969849, 152.823730, -585.128296, 13.726877, 100.771864
1759223393.686531, 0.886154, 9.759514, -0.650774, -0.741951, -0.576162, 0.690213, 66.930130, 153.699127, -585.022949, 13.726877, 100.771864
1759223393.705691, 0.648529, 9.508273, -0.386215, -0.681872, -0.544955, 0.749166, 67.031158, 154.481033, -584.186646, 13.726877, 100.771864
1759223393.726518, -0.544232, 9.047389, 0.276381, -0.630846, -0.010390, 0.749059, 67.272415, 155.301758, -583.191833, 13.726877, 100.771864
1759223393.745792, -1.026664, 9.510218, 0.616208, -0.636994, 0.140262, 0.724742, 67.661407, 156.271271, -584.057678, 13.726877, 100.771864
1759223393.766551, -0.848296, 9.855731, -0.203208, -0.634111, 0.333234, 0.872855, 67.855286, 156.974091, -583.513916, 13.726877, 100.771864
1759223393.785551, 0.465822, 9.927408, -0.287304, -0.473544, 0.310344, 0.901624, 68.302094, 157.680786, -584.172485, 13.726877, 100.771864
1759223393.806553, 1.190816, 10.329484, 0.426916, -0.294594, -0.007347, 0.856332, 68.729477, 158.604584, -584.600952, 13.726877, 100.771864
1759223393.825996, 1.176152, 10.969185, -0.094721, -0.064362, -0.312500, 0.685375, 68.802414, 158.996490, -583.205627, 13.726877, 100.771864
1759223393.846171, 0.461033, 11.057022, -0.306009, 0.439398, -0.689044, 0.410482, 68.548447, 159.422318, -583.454285, 13.726871, 100.771865
1759223393.866551, -0.609773, 11.572823, -1.211765, 0.568145, -0.524496, -0.057862, 68.789917, 159.124802, -582.247375, 13.726871, 100.771865
1759223393.885565, -1.485303, 12.883199, -3.207033, 0.861635, -0.787759, -0.300542, 68.500305, 158.678894, -582.787964, 13.726871, 100.771865
1759223393.906568, -3.416226, 12.549507, -3.803788, 1.753095, -1.239503, -0.585567, 67.733597, 157.546921, -583.096191, 13.726871, 100.771865
1759223393.926537, -4.343680, 12.394034, -3.405303, 2.760903, -0.712840, -1.258622, 67.198044, 155.940399, -583.686646, 13.726871, 100.771865
1759223393.946562, -4.523694, 11.571326, -1.671602, 3.447195, -0.411109, -1.837172, 66.537109, 153.441528, -583.904968, 13.726871, 100.771865
1759223393.966566, -3.794660, 12.782194, -0.960973, 3.294641, -0.167508, -2.285508, 65.780640, 150.529785, -583.968628, 13.726871, 100.771865
1759223393.985589, -2.713977, 14.599243, 0.704643, 2.370476, 1.424400, -2.810521, 65.946533, 147.509384, -585.789673, 13.726871, 100.771865
1759223394.006542, 1.971176, 16.409709, 4.878485, 1.608441, 0.733642, -2.261141, 65.948029, 145.071579, -586.878662, 13.726871, 100.771865
1759223394.026538, 3.215562, 17.085771, 6.613384, 0.944935, -1.316027, -1.541287, 65.419342, 143.262741, -586.177856, 13.726871, 100.771865
1759223394.046567, -0.746243, 12.580482, 9.825504, -0.973486, -3.183917, -1.754372, 64.113846, 142.497269, -584.678345, 13.726871, 100.771865
1759223394.066537, -3.537433, 8.625710, -5.125686, -1.336705, -2.909963, -2.473491, 63.405273, 141.194275, -581.449768, 13.726871, 100.771865
1759223394.085614, -0.548721, 11.203367, -9.497199, -0.655831, 2.114974, -2.356777, 64.403763, 139.457993, -583.368042, 13.726871, 100.771865
1759223394.106546, 1.519720, 10.123732, -0.956334, 0.002966, 3.287283, -1.666629, 65.218460, 138.094208, -586.504883, 13.726871, 100.771865
1759223394.126537, 2.435801, 9.412205, 0.628029, 0.583704, 3.819050, -1.391671, 66.829468, 136.896179, -589.444214, 13.726871, 100.771865
1759223394.146566, 4.823119, 7.509563, 3.831321, 0.684293, 3.131674, -1.248978, 68.508530, 135.540237, -592.480835, 13.726871, 100.771865
1759223394.166565, 4.440047, 5.196764, 2.597260, 0.501801, 2.202513, -1.126168, 70.238327, 134.237686, -592.867249, 13.726871, 100.771865
1759223394.185624, 3.793762, 4.027646, 1.298405, -0.136028, 1.145373, -0.839761, 71.150192, 133.840271, -594.700745, 13.726871, 100.771865
1759223394.206541, 4.236390, 4.746654, 0.086790, -0.555468, 0.707912, -0.516995, 71.701813, 133.569489, -595.354492, 13.726871, 100.771865
1759223394.226068, 4.371812, 5.599289, -0.624887, -0.741258, 0.785803, -0.096702, 72.276550, 133.934341, -595.468018, 13.726871, 100.771865
1759223394.246555, 3.817704, 5.738901, -1.316961, -0.798412, 1.072014, 0.333138, 73.031174, 134.639374, -596.945923, 13.726871, 100.771865
1759223394.266569, 4.411915, 4.845116, -1.082778, -1.023619, 1.031618, 0.870663, 73.571198, 135.508270, -596.448486, 13.726871, 100.771865
1759223394.285633, 4.339939, 4.350115, -0.311845, -1.322481, 0.574749, 1.336722, 73.938263, 137.192444, -597.874390, 13.726871, 100.771865
1759223394.306604, 2.584391, 6.569689, -2.366369, -1.187622, 0.650838, 1.920915, 74.618576, 138.845444, -597.851318, 13.726871, 100.771865
1759223394.326086, -0.135422, 10.784382, -3.435380, -1.097569, 0.588880, 2.440677, 74.812454, 140.841766, -598.156433, 13.726871, 100.771865
1759223394.345652, -9.665093, 16.514156, -4.646098, -0.926938, -0.636257, 0.984828, 74.586411, 142.047714, -597.887512, 13.726871, 100.771865
1759223394.366566, -17.241843, 25.635316, -4.001160, -0.527454, -1.630718, -1.826652, 74.104446, 141.613678, -595.690308, 13.726871, 100.771865
1759223394.385651, -7.897424, 18.569428, -6.256647, 0.626633, -1.040187, -2.059069, 73.464935, 140.355606, -596.104736, 13.726871, 100.771865
1759223394.406395, 2.168847, 12.674604, -3.183540, 0.956619, -2.550578, 0.130065, 71.843109, 139.411011, -595.407837, 13.726871, 100.771865
1759223394.426539, 5.722142, 11.686996, 0.541389, 0.296663, -2.943625, 1.562375, 69.759354, 139.711212, -593.861206, 13.726871, 100.771865
1759223394.446557, 6.822427, 12.404808, 3.013252, 0.241418, -3.205406, 2.113107, 67.386230, 141.033997, -592.487549, 13.726871, 100.771865
1759223394.466554, 5.038298, 9.219472, 0.817919, -0.103794, -0.480066, 1.197833, 66.521698, 141.861832, -591.352051, 13.726871, 100.771865
1759223394.485666, 2.639607, 5.531803, -0.032022, -0.604770, 1.011698, 0.205266, 67.875565, 142.357208, -592.282349, 13.726871, 100.771865
1759223394.506558, 1.620725, 6.660370, 0.242563, -0.501487, 0.412835, 0.389073, 68.432877, 142.983994, -592.452209, 13.726871, 100.771865
1759223394.526136, 2.529624, 8.942044, 0.566079, 0.059590, -0.527763, 1.094750, 68.508514, 143.544434, -591.789185, 13.726871, 100.771865
1759223394.546553, 2.427272, 9.373748, 0.343718, 0.085174, -0.605326, 1.670380, 68.035492, 144.591782, -591.714417, 13.726871, 100.771865
1759223394.566417, 1.584513, 11.495161, 1.160140, -0.460422, 0.357373, 1.354669, 68.014313, 145.411255, -591.151611, 13.726871, 100.771865
1759223394.585688, 0.511611, 12.179603, 4.639664, -1.047489, 0.555568, 1.076735, 68.755249, 146.934967, -592.214478, 13.726871, 100.771865
1759223394.606558, -0.895581, 10.580725, 1.538723, -1.307789, 1.322221, 0.906695, 69.823990, 148.058655, -592.774292, 13.726871, 100.771865
1759223394.626532, -1.529596, 8.585158, 0.701501, -1.227983, 1.315699, 0.990490, 70.639511, 149.409348, -592.995605, 13.726871, 100.771865
1759223394.645948, -1.965939, 7.969250, 1.501015, -1.085336, 0.148878, 1.161909, 71.241364, 150.747498, -593.558167, 13.726871, 100.771865
1759223394.666315, -2.286313, 8.016984, 0.959476, -1.215662, -0.572240, 0.773840, 70.787735, 151.788132, -592.888367, 13.726871, 100.771865
1759223394.685707, 0.086491, 8.475923, -1.821987, -1.038340, -0.566562, 0.496079, 70.681534, 152.912552, -593.035645, 13.726871, 100.771865
1759223394.706564, 0.950348, 7.992144, -2.105102, -0.750934, -0.286777, 0.439633, 71.027588, 153.491302, -592.802246, 13.726871, 100.771865
1759223394.726157, 1.067215, 8.202685, 0.198569, -0.552426, -0.486308, 0.452959, 70.909393, 154.003891, -592.298828, 13.726871, 100.771865
1759223394.746375, 0.330549, 7.634361, 0.260669, -0.629524, -0.454750, 0.547466, 70.684952, 154.662033, -591.995789, 13.726871, 100.771865
1759223394.765599, -0.825401, 8.298004, 0.353444, -0.639045, -0.179900, 0.574476, 71.131790, 155.038193, -591.580383, 13.726871, 100.771865
1759223394.785710, 0.406416, 9.617508, 1.780089, -0.818258, 0.035326, 0.744812, 71.251724, 155.924271, -592.249146, 13.726871, 100.771865
1759223394.806562, 1.655740, 11.482741, 0.335637, -0.822643, 0.332817, 0.855203, 71.622055, 156.716721, -592.477295, 13.726871, 100.771865
1759223394.826174, 3.276914, 12.544120, -1.053898, -0.356433, -0.118554, 1.139249, 72.139145, 157.499191, -592.412964, 13.726871, 100.771865
1759223394.846563, -0.652420, 12.570307, -2.218677, 0.058035, -0.092935, 1.046622, 72.417908, 158.229095, -591.951477, 13.726848, 100.771848
1759223394.866597, -2.877232, 11.099519, -0.418087, 0.386566, 0.162490, 0.794326, 73.203522, 158.377457, -591.999878, 13.726848, 100.771848
1759223394.885726, -3.691859, 10.781689, 1.103428, 0.228226, 0.741768, 0.431152, 73.666855, 158.614334, -593.006531, 13.726848, 100.771848
1759223394.905906, -2.439542, 12.057648, -0.474351, 0.142584, 0.181160, -0.106540, 73.862274, 158.328674, -593.429443, 13.726848, 100.771848
1759223394.926543, -0.892289, 12.528558, -4.526089, 0.879829, -0.607613, -0.463910, 73.620087, 157.811188, -593.749146, 13.726848, 100.771848
1759223394.946572, -1.217601, 12.175264, -4.351013, 1.702692, -0.477722, -0.670648, 73.418793, 156.391205, -594.592957, 13.726848, 100.771848
1759223394.966564, -1.261146, 10.279954, -3.072659, 2.630830, -0.039064, -0.999817, 73.549454, 153.926620, -594.902832, 13.726848, 100.771848
1759223394.985767, -2.887856, 10.631602, -1.830517, 3.118063, 0.319472, -1.671395, 73.561447, 151.301270, -595.907837, 13.726848, 100.771848
1759223395.006564, -2.951003, 12.362760, -0.143951, 2.800365, 0.847358, -2.473094, 73.738739, 147.776703, -596.780396, 13.726848, 100.771848
1759223395.026535, 0.132878, 15.141380, 2.644246, 2.067034, 1.059276, -2.425651, 74.563522, 144.632263, -597.709656, 13.726848, 100.771848
1759223395.046571, 2.309806, 16.564135, 5.163096, 1.477735, 0.033479, -1.793058, 75.122513, 142.066040, -598.178833, 13.726848, 100.771848
1759223395.066544, 2.502390, 16.738911, 7.114370, 0.511833, -0.906162, -1.429090, 74.951279, 140.397354, -597.640503, 13.726848, 100.771848
1759223395.085784, 3.148076, 13.548189, 5.345504, -0.345281, -2.407179, -1.326966, 74.463654, 139.488770, -597.517456, 13.726848, 100.771848
1759223395.106574, 0.130634, 8.421455, -6.357503, -0.281392, -1.619085, -2.098532, 73.563934, 138.625244, -595.972229, 13.726848, 100.771848
1759223395.126531, -0.590470, 10.736199, -5.486612, -0.332482, 2.298096, -2.244547, 74.926727, 137.721237, -595.873779, 13.726848, 100.771848
1759223395.146563, 0.830040, 10.634744, 0.469862, 0.196143, 2.720030, -1.688782, 77.087997, 136.556915, -597.430542, 13.726848, 100.771848
1759223395.166563, 1.278354, 8.620473, 1.173009, 0.769428, 3.031445, -1.339500, 79.144196, 135.494812, -597.527039, 13.726848, 100.771848
1759223395.185815, 2.879925, 7.030723, 3.268833, 1.101099, 2.805089, -1.161250, 81.411087, 134.405334, -599.641724, 13.726848, 100.771848
1759223395.206611, 3.993528, 5.748777, 3.130718, 0.723304, 1.970690, -1.059047, 83.334900, 133.733841, -600.092163, 13.726848, 100.771848
1759223395.226246, 4.580557, 4.353556, 1.659481, 0.028575, 1.175429, -0.994369, 84.735718, 133.225342, -600.815125, 13.726848, 100.771848
1759223395.246552, 5.130026, 4.007744, 0.483329, -0.534364, 0.741035, -0.792675, 85.888931, 133.225464, -601.015686, 13.726848, 100.771848
1759223395.266565, 4.805462, 4.041263, 0.154725, -0.880415, 0.734041, -0.466625, 86.944916, 133.502289, -600.433777, 13.726848, 100.771848
1759223395.285808, 4.043058, 4.495263, -0.650624, -0.837922, 0.862939, -0.016650, 87.661682, 134.217667, -600.574524, 13.726848, 100.771848
1759223395.306563, 4.090494, 4.164714, -0.441880, -1.104719, 0.800381, 0.700569, 88.648346, 134.983490, -600.694031, 13.726848, 100.771848
1759223395.326263, 3.853019, 5.266944, -1.376217, -1.364156, 0.911967, 1.385349, 89.452148, 136.207489, -600.811523, 13.726848, 100.771848
1759223395.346566, 2.112284, 7.584681, -3.355324, -1.439155, 1.252428, 2.059202, 90.663589, 137.978561, -601.208740, 13.726848, 100.771848
1759223395.366560, -1.843685, 11.203218, -3.308787, -1.336313, 0.402036, 2.172235, 91.351776, 139.344971, -600.187439, 13.726848, 100.771848
1759223395.385821, -10.380510, 17.144130, -2.293795, -0.608301, -2.415993, 0.262030, 91.037842, 140.500641, -599.882080, 13.726848, 100.771848
1759223395.406568, -12.590807, 20.005650, -4.024803, -0.333220, -3.395299, -1.863073, 89.905045, 140.588165, -598.227661, 13.726848, 100.771848
1759223395.426277, -5.813271, 13.739575, -7.724443, 0.521055, -2.861277, -1.698426, 88.270721, 140.445511, -597.306519, 13.726848, 100.771848
1759223395.446570, 4.513669, 14.434941, -2.908805, 0.678442, -3.115913, 0.349259, 86.205078, 139.921524, -596.139954, 13.726848, 100.771848
1759223395.466232, 6.831106, 16.478991, 4.258237, 0.638731, -3.150959, 1.340521, 83.821915, 139.777069, -594.531738, 13.726848, 100.771848
1759223395.485819, 6.218041, 16.345215, -0.208445, 0.134482, 0.133645, 0.665055, 81.614166, 140.603088, -594.202209, 13.726848, 100.771848
1759223395.505867, 3.528604, 7.911639, 0.152780, -0.206303, 1.080659, -0.388688, 82.933823, 140.762238, -593.145081, 13.726848, 100.771848
1759223395.526543, 2.502689, 5.044733, 0.310947, -0.043660, -0.441666, 0.030366, 83.810730, 141.156815, -593.792236, 13.726848, 100.771848
1759223395.546561, 3.921104, 5.688174, 2.753631, -0.043351, -2.235918, 0.811699, 83.036499, 141.378906, -593.003357, 13.726848, 100.771848
1759223395.566562, 3.167230, 8.355764, 2.071583, -0.135948, -1.822390, 0.921787, 81.715317, 141.973404, -591.343994, 13.726848, 100.771848
1759223395.585843, 3.701286, 10.252869, 1.586608, -0.191468, -1.072108, 0.857124, 81.368378, 142.699722, -590.220459, 13.726848, 100.771848
1759223395.606568, 4.125658, 15.317204, 2.551471, -0.771259, 1.126772, 1.812857, 81.551849, 143.616653, -589.404114, 13.726848, 100.771848
1759223395.626543, -0.099060, 14.461128, 2.069638, -1.134477, 2.533264, 1.663721, 82.520157, 144.990875, -590.824036, 13.726848, 100.771848
1759223395.645890, -2.155380, 10.200347, 1.797746, -1.197065, 2.894699, 1.511966, 84.141647, 146.563019, -591.285522, 13.726848, 100.771848
1759223395.666552, -4.453814, 6.256947, 2.469170, -1.513832, -0.286208, 1.062845, 84.745941, 147.782684, -590.978760, 13.726848, 100.771848
1759223395.685879, -5.214721, 5.880459, 2.027590, -1.455784, -1.379627, 0.838495, 84.432953, 149.177734, -590.637207, 13.726848, 100.771848
1759223395.706551, -1.970578, 6.180482, -1.005714, -1.030195, -1.747827, 0.425714, 83.341461, 150.094818, -588.682251, 13.726848, 100.771848
1759223395.725552, -0.644788, 7.004686, -1.516278, -1.104971, -0.950595, 0.368031, 82.827713, 151.073654, -588.651855, 13.726848, 100.771848
1759223395.746548, 2.271648, 9.093178, -0.193332, -0.873509, -0.394413, 0.527501, 82.812836, 151.934464, -587.767700, 13.726848, 100.771848
1759223395.766539, 2.207005, 10.290877, -0.347159, -0.792770, -0.567293, 0.791419, 82.645737, 152.648987, -586.520935, 13.726848, 100.771848
1759223395.785898, 1.393575, 10.219650, -1.330278, -0.733731, -0.383311, 0.879118, 82.955643, 153.431595, -585.891235, 13.726848, 100.771848
1759223395.806568, -0.262464, 10.500669, -0.835876, -0.605914, -0.389338, 1.026795, 83.164673, 154.250809, -584.771851, 13.726848, 100.771848
1759223395.825558, -0.935235, 9.728090, -0.831087, -0.489101, -0.328381, 0.985822, 83.301270, 155.082947, -584.964905, 13.726848, 100.771848
1759223395.846564, -0.756717, 10.269479, -0.910545, -0.239551, -0.128993, 0.860952, 83.454941, 155.854233, -584.752441, 13.726809, 100.771897
1759223395.866563, -1.194407, 10.387693, -0.286556, 0.071444, -0.076255, 0.725074, 83.609360, 156.430099, -583.591736, 13.726809, 100.771897
1759223395.885911, -2.102857, 9.100959, 0.502034, 0.312880, -0.136172, 0.530371, 83.768219, 156.950821, -584.055603, 13.726809, 100.771897
1759223395.906561, -2.068590, 8.735544, -0.190938, 0.342834, 0.088523, 0.133391, 83.421051, 157.074661, -582.902100, 13.726809, 100.771897
1759223395.925580, -2.219874, 12.355727, -2.220323, 0.696550, 0.163443, -0.184763, 83.256332, 157.277206, -582.964355, 13.726809, 100.771897
1759223395.946566, -2.169296, 16.795774, -1.295413, 1.412852, -0.115765, -0.556716, 82.699142, 157.051483, -583.132324, 13.726809, 100.771897
1759223395.966564, -0.825102, 17.089811, -1.438915, 2.310908, -0.390416, -0.847471, 82.298904, 156.300842, -583.440369, 13.726809, 100.771897
1759223395.985936, 0.978929, 13.790302, -2.957138, 2.757724, -0.509562, -1.503499, 81.080200, 155.289444, -584.415100, 13.726809, 100.771897
1759223396.006565, 1.709909, 13.093590, -3.586963, 2.786208, -0.355596, -2.104355, 80.560303, 153.735611, -583.791016, 13.726809, 100.771897
1759223396.025598, 1.235258, 11.751041, -0.472705, 2.433281, 0.315889, -2.435663, 79.414627, 152.165497, -584.794556, 13.726809, 100.771897
1759223396.046568, 2.018911, 11.957541, 3.669563, 1.816505, -0.005189, -2.247161, 78.998840, 150.632751, -585.329590, 13.726809, 100.771897
1759223396.066564, 2.288109, 10.590302, 4.327520, 1.272376, -0.132963, -1.887899, 78.038773, 149.476471, -584.797974, 13.726809, 100.771897
1759223396.085951, 2.130839, 8.208221, 4.510526, 0.614691, -1.731106, -1.715838, 76.920212, 148.741501, -584.537964, 13.726809, 100.771897
1759223396.106562, -0.521487, 7.713669, -0.335787, -0.304981, -2.787626, -2.041572, 75.644440, 147.673798, -582.504272, 13.726809, 100.771897
1759223396.125622, -0.389357, 10.497826, -5.622932, -0.647625, -0.484176, -2.035349, 74.617889, 147.256378, -581.684875, 13.726809, 100.771897
1759223396.146570, -0.082450, 12.167782, -2.921225, -0.211212, 1.716757, -1.801391, 74.406784, 146.344986, -582.405518, 13.726809, 100.771897
1759223396.166576, 1.384297, 11.137527, 0.905607, 0.414898, 2.002342, -1.528680, 74.071106, 145.459183, -583.553528, 13.726809, 100.771897
1759223396.185962, 3.954473, 7.897573, 1.744176, 0.654037, 1.702055, -1.274324, 74.258835, 144.722855, -585.389771, 13.726809, 100.771897
1759223396.206568, 4.506336, 5.484218, 0.313192, 0.220079, 1.655369, -1.140201, 74.402802, 144.053406, -585.628418, 13.726809, 100.771897
1759223396.225639, 3.301754, 5.504419, -0.525378, -0.134390, 1.365672, -0.667311, 74.870438, 143.744858, -587.253784, 13.726809, 100.771897
1759223396.246565, 2.466028, 5.685630, -0.465822, -0.326035, 0.946658, -0.166602, 75.173325, 143.690247, -587.842651, 13.726809, 100.771897
1759223396.266573, 2.545336, 5.805789, -0.411204, -0.519564, 0.504837, 0.284873, 75.119843, 143.986710, -587.496826, 13.726809, 100.771897
1759223396.285984, 3.337367, 5.688324, -0.406715, -0.786063, 0.087698, 0.641992, 74.672516, 144.779968, -588.595459, 13.726809, 100.771897
1759223396.306563, 4.657171, 5.027225, 0.065242, -1.081145, -0.178914, 1.016190, 74.374237, 145.990952, -587.314209, 13.726809, 100.771897
1759223396.325649, 5.070769, 4.364779, -0.056563, -1.296699, -0.082730, 1.404164, 74.165161, 147.309067, -587.915649, 13.726809, 100.771897
1759223396.346570, 4.816386, 6.703765, -1.626411, -1.371109, 0.339815, 2.079060, 74.423828, 149.260895, -587.743958, 13.726809, 100.771897
1759223396.366414, 1.460014, 12.700791, -3.685574, -1.191251, 0.404638, 2.520094, 74.747559, 151.282257, -586.595764, 13.726809, 100.771897
1759223396.386001, -16.387113, 21.610513, -6.896348, -0.674912, -1.163488, -0.389875, 74.390701, 152.620819, -585.928284, 13.726809, 100.771897
1759223396.406551, -16.704495, 26.010008, -7.925705, -0.183384, -1.081385, -2.860721, 74.472076, 151.594223, -583.349670, 13.726809, 100.771897
1759223396.425674, -6.191705, 11.790096, -7.057658, 1.363345, -1.812842, -1.379832, 73.298889, 150.448975, -583.945557, 13.726809, 100.771897
1759223396.446579, 3.379116, 6.355408, -2.667590, 0.994970, -2.530909, 0.661816, 70.710236, 149.905914, -583.606567, 13.726809, 100.771897
1759223396.466568, 5.344606, 7.899968, 2.761113, 0.233958, -2.690299, 1.174192, 69.096115, 150.240814, -581.802612, 13.726809, 100.771897
1759223396.486024, 6.872855, 11.583297, 2.860772, 0.306733, -1.666704, 1.529219, 68.011810, 151.398560, -580.815430, 13.726809, 100.771897
1759223396.506566, 6.663512, 14.345159, 2.725499, -0.385665, 0.519813, 1.260617, 67.563660, 152.598465, -580.086304, 13.726809, 100.771897
1759223396.525693, 2.780117, 7.444920, 0.221314, -1.450749, 2.287110, 0.274164, 68.561234, 153.492188, -581.437988, 13.726809, 100.771897
1759223396.546568, 0.504728, 8.192808, -0.957681, -1.164852, 0.544728, 0.425173, 69.229111, 154.432693, -581.973022, 13.726809, 100.771897
1759223396.566566, -0.330400, 7.048380, -2.151190, 0.151370, -1.444257, 0.738732, 68.918701, 154.960922, -581.042603, 13.726809, 100.771897
1759223396.586080, 1.309778, 7.527370, -2.035820, -0.254709, -0.883672, 1.480063, 68.497452, 156.134720, -580.534363, 13.726809, 100.771897
1759223396.606566, 1.363498, 12.360216, 0.771980, -0.486646, 0.818588, 1.481030, 68.240753, 157.160431, -580.111755, 13.726809, 100.771897
1759223396.625709, 1.188571, 14.053365, 8.937704, -0.441288, -0.109001, 1.063483, 68.356506, 158.440125, -580.926514, 13.726809, 100.771897
1759223396.646582, -1.113902, 10.606912, 3.785382, -1.198310, 0.854579, 0.742425, 68.883652, 159.598328, -580.795227, 13.726809, 100.771897
1759223396.666543, -1.785925, 8.255207, -0.908001, -1.986980, 1.897591, 0.964207, 69.551300, 160.738373, -580.787964, 13.726809, 100.771897
1759223396.686080, -2.087145, 5.321263, -3.887136, -0.965732, -0.635955, 0.900036, 69.571579, 161.939560, -581.592163, 13.726809, 100.771897
1759223396.706572, -2.777723, 7.400627, -1.570746, -0.089721, -1.563102, 0.362918, 68.847870, 162.532547, -579.499023, 13.726809, 100.771897
1759223396.725726, -0.599149, 9.866056, 2.895937, -0.518164, -1.043388, 0.327641, 68.601074, 163.124481, -579.217102, 13.726809, 100.771897
1759223396.746570, -0.110133, 10.688614, 1.627159, -0.843687, -0.162721, 0.521803, 68.368408, 163.722244, -578.376648, 13.726809, 100.771897
1759223396.766575, 0.323367, 10.004471, 0.557250, -0.902139, 0.103235, 0.639774, 68.167084, 164.398407, -577.913635, 13.726809, 100.771897
1759223396.786078, 0.177021, 9.431808, -0.594809, -0.788596, 0.029024, 0.713550, 68.242096, 165.145554, -578.288818, 13.726809, 100.771897
1759223396.806563, 0.400730, 8.712201, -0.341623, -0.672837, 0.171766, 0.679569, 68.066696, 166.015533, -577.411377, 13.726809, 100.771897
1759223396.825738, 1.205780, 8.681824, 0.178218, -0.568605, 0.259660, 0.790578, 68.369415, 166.817093, -578.308716, 13.726809, 100.771897
1759223396.846574, 1.148618, 9.276783, 0.256329, -0.464396, 0.419404, 1.044410, 68.562195, 167.862778, -578.348145, 13.726817, 100.771897
1759223396.866570, 0.515801, 10.317363, 0.248249, -0.451752, 0.319988, 1.209265, 68.775452, 168.912155, -578.594482, 13.726817, 100.771897
1759223396.886093, 0.413299, 10.004621, 0.613664, -0.402931, 0.076691, 1.219450, 69.068024, 170.058762, -578.882812, 13.726817, 100.771897
1759223396.906595, 0.578649, 10.446201, 0.529418, -0.367867, -0.100736, 1.066311, 69.463196, 170.830505, -578.819519, 13.726817, 100.771897
1759223396.925761, 0.544382, 11.078270, -0.595408, 0.004051, -0.293442, 0.830425, 69.427002, 171.962952, -579.361877, 13.726817, 100.771897
1759223396.946577, -0.243760, 11.549778, 0.010624, 0.031095, 0.017334, 0.558885, 69.339783, 172.591812, -579.522705, 13.726817, 100.771897
1759223396.966592, -1.093103, 12.959215, -1.472883, 0.312829, -0.147123, 0.248084, 69.283844, 172.945206, -579.385010, 13.726817, 100.771897
1759223396.986114, -3.046622, 14.080450, -1.622072, 1.253039, -0.319737, -0.305806, 68.800339, 172.904663, -580.771484, 13.726817, 100.771897
1759223397.006573, -2.742109, 14.202704, 0.675464, 2.010974, -0.466272, -0.981282, 68.048477, 171.838303, -581.025024, 13.726817, 100.771897
1759223397.025774, -2.436100, 12.459276, -1.875109, 2.742432, -0.686158, -1.559310, 66.755432, 170.356827, -584.048828, 13.726817, 100.771897
1759223397.046572, 0.575506, 10.720487, -5.014356, 3.075193, -0.777296, -2.179871, 65.157364, 167.793488, -585.854004, 13.726817, 100.771897
1759223397.066571, 0.494103, 10.877457, -5.107131, 2.955907, 0.029737, -2.712452, 63.509827, 164.329178, -587.345154, 13.726817, 100.771897
1759223397.086156, 1.348085, 12.845042, -0.606631, 2.453093, 1.280699, -2.560560, 62.504959, 160.573990, -589.350708, 13.726817, 100.771897
1759223397.106579, 2.444630, 14.601488, 5.161600, 1.855025, 0.780490, -1.825369, 62.150696, 156.796036, -590.775452, 13.726817, 100.771897
1759223397.125791, 0.304363, 13.211654, 9.482834, 0.341635, -0.068566, -1.509298, 61.843231, 154.595154, -593.006042, 13.726817, 100.771897
1759223397.146573, -1.194407, 11.365575, 7.689727, -0.690346, -2.756467, -1.693147, 61.064011, 152.857193, -592.914185, 13.726817, 100.771897
1759223397.166573, -4.380342, 10.746823, -3.431938, -0.639827, -4.032622, -2.213487, 59.095657, 151.183578, -589.670288, 13.726817, 100.771897
1759223397.186157, -0.344915, 12.451944, -10.759991, -0.438076, 0.723255, -2.113074, 57.600327, 148.966324, -588.445496, 13.726817, 100.771897
1759223397.206583, 3.938761, 11.552622, -2.411260, 0.106869, 2.189579, -1.296696, 58.460159, 146.533173, -592.104309, 13.726817, 100.771897
1759223397.225814, 3.933673, 7.672518, 0.504728, 0.583867, 2.145849, -1.181311, 58.514786, 145.182877, -593.740845, 13.726817, 100.771897
1759223397.246576, 4.396203, 4.648043, 0.897227, 0.750721, 1.807268, -1.317706, 60.250046, 143.383026, -596.130188, 13.726817, 100.771897
1759223397.266464, 3.686622, 4.112790, 0.835726, 0.310044, 1.334771, -1.126151, 62.171432, 141.316681, -597.836060, 13.726817, 100.771897
1759223397.286159, 2.836231, 4.213945, 0.786944, -0.016926, 0.996976, -0.831794, 62.714264, 140.395874, -599.197388, 13.726817, 100.771897
1759223397.306551, 3.079392, 5.277868, 0.841861, -0.301524, 0.705349, -0.430636, 64.030869, 139.780182, -600.404785, 13.726817, 100.771897
1759223397.325829, 3.510498, 5.875820, -0.103549, -0.553349, 0.533972, -0.009656, 64.430466, 139.503418, -600.801819, 13.726817, 100.771897
1759223397.346559, 2.687791, 5.500978, -1.884237, -0.632055, 0.758620, 0.483910, 65.485794, 140.433701, -602.169861, 13.726817, 100.771897
1759223397.366562, 2.176629, 5.132271, -1.486949, -0.894924, 0.867209, 0.996475, 66.256393, 141.304520, -602.542053, 13.726817, 100.771897
1759223397.386158, 0.588225, 6.975955, -2.772186, -0.976049, 1.129035, 1.229597, 67.428864, 142.870819, -604.458435, 13.726817, 100.771897
1759223397.406577, -1.237653, 11.510424, -4.093636, -1.053960, 1.638358, 1.489087, 68.901520, 144.425827, -605.992554, 13.726817, 100.771897
1759223397.425843, -5.499481, 14.963611, -2.121861, -0.969420, 0.343348, 0.927176, 69.284988, 144.956207, -606.649780, 13.726817, 100.771897
1759223397.446617, -10.351331, 16.185252, -4.338892, -0.361379, -1.560792, -0.523681, 69.353500, 146.050583, -606.473389, 13.726817, 100.771897
1759223397.466573, -9.342624, 16.888848, -7.907898, 0.393103, -1.949419, -1.639680, 68.613800, 144.596329, -604.229736, 13.726817, 100.771897
1759223397.486181, -3.305644, 11.561301, -6.866870, 1.012745, -1.286947, -1.108999, 67.732254, 142.708221, -605.239380, 13.726817, 100.771897
1759223397.506560, 3.403807, 2.988113, -0.356137, 0.662308, -2.160003, -0.067811, 66.639450, 141.446930, -604.974121, 13.726817, 100.771897
1759223397.525860, 4.657171, 2.351256, 5.937022, -0.103831, -3.045189, 0.924513, 64.591476, 141.608383, -602.391541, 13.726817, 100.771897
1759223397.546572, 8.638729, 11.258284, 2.568679, -0.423637, -1.987010, 2.406355, 62.933990, 143.219772, -600.795654, 13.726817, 100.771897
1759223397.566267, 22.948573, 35.628564, -18.205659, 0.957771, 1.809013, 3.238396, 62.779800, 144.781891, -603.812134, 13.726817, 100.771897
1759223397.586203, 1.967435, 12.358570, 9.712528, 0.227040, -0.504487, 0.697554, 65.835663, 145.412598, -602.997559, 13.726817, 100.771897
1759223397.606582, 0.672621, 7.980622, 5.348796, -0.328224, -1.048209, 1.078438, 65.922424, 145.997421, -602.961487, 13.726817, 100.771897
1759223397.625881, 0.384569, 7.347655, 3.701436, -0.497317, -1.427239, 1.175406, 65.425446, 146.295685, -602.653809, 13.726817, 100.771897
1759223397.646559, -0.709881, 7.741651, 5.409699, -0.949480, -1.940548, 0.675822, 63.633118, 148.072159, -600.837036, 13.726817, 100.771897
1759223397.666560, -0.195726, 10.084527, 3.914819, -1.057952, -0.924851, 0.735842, 63.525284, 148.951004, -598.728638, 13.726817, 100.771897
1759223397.686227, -0.238971, 12.773515, 0.195876, -0.987449, 0.157888, 1.116250, 63.981171, 149.748093, -599.107117, 13.726817, 100.771897
1759223397.706562, -5.223101, 11.212046, -0.088735, -2.299225, 0.892062, 1.682508, 66.187820, 153.254669, -600.690247, 13.726817, 100.771897
1759223397.725896, -5.766584, 8.463802, -1.126921, -1.791685, -0.255325, 1.436099, 66.439682, 155.255051, -599.991943, 13.726817, 100.771897
1759223397.746573, -5.399374, 4.491073, -1.589002, -0.649116, -1.458861, 0.744269, 65.742218, 156.243652, -599.461731, 13.726817, 100.771897
1759223397.766592, -1.363199, 6.484396, 0.227898, -0.772053, -0.850476, 0.302697, 65.982407, 156.633087, -598.091064, 13.726817, 100.771897
1759223397.786278, -0.957381, 7.743147, 0.453252, -1.171888, -0.014972, 0.260234, 66.196655, 157.359421, -598.570618, 13.726817, 100.771897
1759223397.806569, -0.110283, 9.211242, 0.118363, -1.114475, -0.039938, 0.187304, 66.784470, 158.029099, -598.422241, 13.726817, 100.771897
1759223397.825915, 1.308730, 9.672874, -0.978929, -0.754652, -0.143141, 0.187619, 67.369843, 158.393402, -597.789917, 13.726799, 100.771903
1759223397.846572, 2.379687, 10.184635, -1.256208, -0.745213, -0.192049, 0.404954, 67.672623, 159.202499, -598.171936, 13.726799, 100.771903
1759223397.866577, 2.976890, 10.190321, -1.032799, -0.643022, 0.135215, 0.832429, 68.557617, 159.837936, -597.286194, 13.726799, 100.771903
1759223397.886319, 2.092532, 10.046669, 0.494103, -0.524046, 0.402799, 1.172739, 69.926910, 160.767044, -598.562683, 13.726799, 100.771903
1759223397.906579, 1.166874, 10.780791, 0.817171, -0.480732, 0.321444, 1.265179, 71.298157, 161.919174, -598.597595, 13.726799, 100.771903
1759223397.925931, 0.121805, 11.408072, 0.190040, -0.409468, 0.173506, 1.193842, 72.422256, 162.512558, -598.253906, 13.726799, 100.771903
1759223397.946582, -0.346561, 11.394604, 0.547823, -0.187417, -0.002460, 1.026056, 73.412704, 163.068802, -598.479736, 13.726799, 100.771903
1759223397.966575, -1.172411, 11.055825, 0.644639, 0.034858, -0.013648, 0.641067, 73.871841, 162.988663, -597.381958, 13.726799, 100.771903
1759223397.986284, -1.877952, 10.553042, -0.481683, 0.232743, 0.008154, 0.190979, 74.395340, 162.711716, -598.331482, 13.726799, 100.771903
1759223398.006591, -1.756446, 11.223868, -1.934066, 0.609093, -0.202604, -0.184546, 75.091537, 162.018829, -598.052063, 13.726799, 100.771903
1759223398.025954, -2.672528, 13.059472, -2.692130, 1.326058, -0.165555, -0.585683, 75.087570, 160.469711, -597.736572, 13.726799, 100.771903
1759223398.046579, -2.166603, 12.939762, -2.124704, 2.141228, -0.022383, -0.898409, 75.285233, 158.340561, -598.708252, 13.726799, 100.771903
1759223398.066583, -3.484611, 12.035801, -1.566406, 3.047837, -0.463754, -1.555333, 74.938843, 155.246613, -598.137817, 13.726799, 100.771903
1759223398.086303, -2.229451, 9.879075, -1.410933, 3.319496, -0.460730, -2.055626, 74.076248, 152.048279, -598.878418, 13.726799, 100.771903
1759223398.106579, -1.067515, 11.655423, -1.318008, 2.851794, -0.156105, -2.718216, 74.134933, 148.172699, -598.600708, 13.726799, 100.771903
1759223398.125966, 1.323994, 15.820436, 0.804152, 2.098517, 0.387694, -2.602999, 74.081985, 145.191467, -597.649109, 13.726799, 100.771903
1759223398.146581, 3.540875, 15.557522, 4.592228, 1.474238, -0.168155, -1.759512, 74.058304, 143.139267, -597.841187, 13.726799, 100.771903
1759223398.166584, 2.432659, 14.635605, 6.358850, 0.526641, -0.043420, -1.358213, 74.132812, 141.895538, -596.462036, 13.726799, 100.771903
1759223398.186315, 1.019182, 11.392809, 5.629816, -0.366262, -2.200048, -1.457108, 72.817520, 141.358658, -595.622375, 13.726799, 100.771903
1759223398.206603, -1.881693, 9.639804, -4.683507, -0.695922, -2.118085, -2.145126, 71.845901, 140.613388, -593.475952, 13.726799, 100.771903
1759223398.225983, 1.206678, 11.516559, -5.634903, -0.493561, 0.690332, -2.008165, 72.264618, 139.647095, -592.676758, 13.726799, 100.771903
1759223398.246577, 2.448670, 10.119842, -2.219874, 0.035227, 1.992993, -1.397357, 73.135620, 138.655334, -594.020325, 13.726799, 100.771903
1759223398.266587, 3.048717, 7.043891, -0.320973, 0.590337, 2.746675, -1.252502, 74.624771, 137.450394, -594.831055, 13.726799, 100.771903
1759223398.286329, 3.727772, 4.927716, 1.161038, 0.900164, 2.582909, -1.176518, 76.193878, 136.535309, -596.705322, 13.726799, 100.771903
1759223398.305861, 3.442263, 3.801693, 0.889895, 0.606125, 1.887914, -0.942968, 77.568329, 135.845810, -597.482422, 13.726799, 100.771903
1759223398.326003, 4.018817, 3.429395, 1.137844, -0.044260, 1.045796, -0.536315, 78.119461, 135.353577, -596.968750, 13.726799, 100.771903
1759223398.346577, 5.075259, 4.164415, 0.486921, -0.507329, 0.503096, -0.100108, 78.470383, 135.652725, -597.665283, 13.726799, 100.771903
