SamplingTime,AccelerationX,AccelerationY,AccelerationZ,GyroX,GyroY,GyroZ,Durations,Subject,Activity
1759223388.80651,3.867085,14.680197,5.789778,0.832002,-1.440957,-1.705135,7.50,1,WALK
1759223388.82650,4.36014,11.633127,5.102792,-0.363549,-2.115009,-1.399533,7.52,1,WALK
1759223388.84653,-0.90007,9.16261,-5.378574,0.03457,-2.403295,-1.758783,7.54,1,WALK
1759223388.86653,-1.771859,10.372579,-5.851878,0.22805,0.512377,-1.798864,7.56,1,WALK
1759223388.88653,-1.537227,10.743232,-1.194557,0.198844,2.454217,-1.593252,7.58,1,WALK
1759223388.90653,-1.734001,9.502586,2.084601,0.174937,3.061276,-1.647132,7.60,1,WALK
1759223388.92634,0.563236,8.258499,4.307019,0.49113,2.443401,-1.371136,7.62,1,WALK
1759223388.94653,2.032827,5.692514,3.392733,0.665702,1.657251,-1.249184,7.64,1,WALK
1759223388.96652,4.134936,4.074931,0.589871,-0.171671,1.50696,-1.115356,7.66,1,WALK
1759223388.98652,4.646547,3.848679,0.468066,-0.655736,1.280921,-0.59367,7.68,1,WALK
1759223389.00653,4.107552,3.634099,0.285957,-0.823508,1.277563,-0.009433,7.70,1,WALK
1759223389.02636,3.408745,3.987244,-0.037409,-0.97815,1.216218,0.474078,7.72,1,WALK
1759223389.04653,2.987664,4.545541,-0.658106,-1.210394,0.791851,0.930879,7.74,1,WALK
1759223389.06653,3.249829,5.335179,-0.833033,-1.508055,0.379796,1.33083,7.76,1,WALK
1759223389.08653,3.785083,7.408258,-2.688539,-1.421452,0.511054,1.855483,7.78,1,WALK
1759223389.10653,2.656217,12.00318,-5.373037,-1.116741,1.361375,2.36991,7.80,1,WALK
1759223389.12638,-7.475296,18.195933,-6.966828,-0.478621,0.522659,0.976097,7.82,1,WALK
1759223389.14651,-19.050812,25.737967,-3.715651,-0.152733,-1.819637,-2.367518,7.84,1,WALK
1759223389.16653,-6.038027,18.973599,-6.773945,0.560155,-1.07556,-1.998215,7.86,1,WALK
1759223389.18651,1.58137,14.098256,-3.622427,1.067721,-1.642446,0.385821,7.88,1,WALK
1759223389.20652,5.369895,13.758429,2.021005,0.85231,-2.442102,1.356931,7.90,1,WALK
1759223389.22639,4.055478,8.089259,6.577471,0.252875,-2.29627,1.216972,7.92,1,WALK
1759223389.24651,2.51047,3.990386,2.763657,-0.346112,-0.963759,0.737853,7.94,1,WALK
1759223389.26652,1.457321,2.554314,-0.329352,-0.798265,-0.741709,0.490709,7.96,1,WALK
1759223389.28652,2.141613,6.160281,-0.217124,-1.053628,-0.75511,0.883543,7.98,1,WALK
1759223389.30654,3.33213,11.601403,-0.864905,-0.339035,-0.421713,1.481803,8.00,1,WALK
1759223389.32641,2.327613,13.849409,-0.47091,0.575987,0.206816,1.631099,8.02,1,WALK
1759223389.34652,1.165976,13.894151,0.625934,-0.093629,0.910153,1.461051,8.04,1,WALK
1759223389.36652,-1.017386,10.453084,1.630302,-0.892794,0.707592,1.068918,8.06,1,WALK
1759223389.38652,-1.038635,9.237429,1.864784,-0.756352,0.451749,0.724239,8.08,1,WALK
1759223389.40653,-0.90426,7.399729,4.057424,-0.887611,0.462593,0.551973,8.10,1,WALK
1759223389.42642,-1.504756,7.899219,2.927061,-1.308096,0.963908,0.582338,8.12,1,WALK
1759223389.44652,-3.469198,9.75727,0.790386,-1.640098,0.101347,0.60793,8.14,1,WALK
1759223389.46652,-3.110367,8.912266,-2.88232,-0.704871,-0.889596,0.484961,8.16,1,WALK
1759223389.48655,-0.085293,7.83278,-1.815403,-0.423938,-0.79197,0.121316,8.18,1,WALK
1759223389.50652,1.144578,9.036316,-0.233135,-0.770408,-0.451465,0.26434,8.20,1,WALK
1759223389.52644,1.376666,9.657012,0.869843,-0.818571,-0.262128,0.457245,8.22,1,WALK
1759223389.54652,1.31726,9.097817,1.186925,-0.790674,-0.325515,0.665924,8.24,1,WALK
1759223389.56652,1.032799,8.905832,-0.67711,-0.816757,0.250615,0.944616,8.26,1,WALK
1759223389.58620,0.448913,9.444826,-0.832135,-0.658556,0.567216,1.148966,8.28,1,WALK
1759223389.60657,-0.744597,10.741286,0.204106,-0.3435,0.181807,1.137329,8.30,1,WALK
1759223389.62646,-1.909077,11.579856,1.319804,-0.270667,0.080545,0.90381,8.32,1,WALK
1759223389.64652,-1.767968,12.002283,0.672022,-0.287767,0.371025,0.609106,8.34,1,WALK
1759223389.66652,-0.819864,11.217882,-0.395043,0.02728,0.542906,0.515463,8.36,1,WALK
1759223389.68651,-0.729932,11.184363,-0.096367,0.106212,0.557256,0.302119,8.38,1,WALK
1759223389.70651,-0.996287,12.844293,0.04115,0.111024,0.299559,0.114269,8.40,1,WALK
1759223389.72647,-2.488024,12.160898,-1.768118,0.591995,-0.256635,-0.094803,8.42,1,WALK
1759223389.74606,-3.500472,12.397027,-2.676119,0.907305,-0.206436,-0.294332,8.44,1,WALK
1759223389.76650,-2.287061,10.334422,-3.128324,2.221163,0.07657,-0.906702,8.46,1,WALK
1759223389.78651,-1.007959,9.143456,-3.355773,2.663113,0.020271,-0.996057,8.48,1,WALK
1759223389.80650,-0.167594,8.180089,-3.37762,3.33867,0.158849,-1.13089,8.50,1,WALK
1759223389.82650,-0.402226,8.154352,-2.627487,3.521439,0.157062,-1.657498,8.52,1,WALK
1759223389.84652,-1.105972,12.228684,0.424372,2.838567,0.479122,-2.505311,8.54,1,WALK
1759223389.86616,2.344821,15.258098,6.453421,2.269454,-0.985752,-2.375292,8.56,1,WALK
1759223389.88653,2.996044,16.127941,11.9951,0.611238,-3.161364,-1.761858,8.58,1,WALK
1759223389.90602,3.212719,17.117644,4.787954,-1.404909,-2.43249,-1.293756,8.60,1,WALK
1759223389.92650,-4.857835,12.974478,-9.155876,-0.822996,-1.7638,-2.230422,8.62,1,WALK
1759223389.94653,-2.183362,13.338995,-4.916493,-0.347655,0.819337,-2.207653,8.64,1,WALK
1759223389.96632,0.914435,10.29821,-0.114622,-0.080277,1.309005,-1.565547,8.66,1,WALK
1759223389.98653,1.15595,8.094646,-1.163432,0.19519,2.525797,-1.056215,8.68,1,WALK
1759223390.00652,1.54845,5.634305,1.330578,0.385929,2.67127,-0.76786,8.70,1,WALK
1759223390.02650,2.825906,3.566014,1.877353,0.280762,2.148593,-0.730645,8.72,1,WALK
1759223390.04653,4.866514,3.193117,1.70138,-0.031562,1.786662,-0.654067,8.74,1,WALK
1759223390.06652,5.736657,4.049044,1.86643,-0.387166,1.093687,-0.387952,8.76,1,WALK
1759223390.08653,5.047875,3.899855,0.696563,-0.648938,0.57417,-0.01854,8.78,1,WALK
1759223390.10657,2.887557,3.862147,-0.572065,-0.99109,0.354087,0.344135,8.80,1,WALK
1759223390.12650,1.757045,5.481076,-1.716942,-1.235815,0.342325,0.751948,8.82,1,WALK
1759223390.14653,-0.363919,9.554511,-3.050063,-1.072016,0.528119,1.224321,8.84,1,WALK
1759223390.16654,-3.096002,13.913604,-3.916016,-0.762773,0.548762,1.330221,8.86,1,WALK
1759223390.18653,-7.398382,16.667684,-6.339247,-0.34224,0.489392,0.340065,8.88,1,WALK
1759223390.20653,-10.654048,16.412402,-6.786814,-0.024818,-0.056733,-0.762222,8.90,1,WALK
1759223390.22650,-6.145018,14.920066,-4.890307,-0.123215,0.235509,-0.684634,8.92,1,WALK
1759223390.24653,-0.63162,11.308862,-2.825757,0.109464,-0.544468,-0.229496,8.94,1,WALK
1759223390.26652,3.071312,11.292402,-1.595137,0.392962,-1.846137,0.584755,8.96,1,WALK
1759223390.28657,5.548712,13.218687,3.202544,0.502424,-3.235478,1.323988,8.98,1,WALK
1759223390.30654,4.295647,13.094039,2.794632,0.364946,-2.854409,1.169635,9.00,1,WALK
1759223390.32650,2.026542,8.054843,-1.857152,-0.01084,-1.827879,0.260919,9.02,1,WALK
1759223390.34653,1.947533,5.255123,1.097741,-0.975269,-1.533213,0.405555,9.04,1,WALK
1759223390.36653,2.60953,5.770325,2.785354,-0.991573,-1.777044,0.890479,9.06,1,WALK
1759223390.38653,1.508197,9.352201,2.226159,-0.171774,-1.862456,1.114203,9.08,1,WALK
1759223390.40653,1.67639,13.360693,0.308104,0.90041,-0.696422,1.474429,9.10,1,WALK
1759223390.42651,0.271592,16.79727,-1.059285,-0.015521,2.972709,2.003718,9.12,1,WALK
1759223390.44653,-2.732233,12.119598,1.45358,-1.572528,4.695725,1.266763,9.14,1,WALK
1759223390.46652,-1.323994,7.481132,4.792444,-2.163054,2.1952,0.725604,9.16,1,WALK
1759223390.48653,-0.667982,3.321506,2.305018,-1.253165,-1.580722,0.940148,9.18,1,WALK
1759223390.50652,-3.139098,3.482666,-1.152509,-0.453789,-2.317404,0.773738,9.20,1,WALK
1759223390.52650,-3.826234,7.958476,-2.27494,-0.993087,-1.107468,0.426163,9.22,1,WALK
1759223390.54653,-1.5483,11.472266,-1.245583,-0.830536,-0.085502,0.195774,9.24,1,WALK
1759223390.56653,0.926406,12.340164,0.391602,-0.664685,-0.62582,0.356129,9.26,1,WALK
1759223390.58654,1.414524,9.298181,-0.147992,-0.743359,-0.309121,0.547121,9.28,1,WALK
1759223390.60659,1.058087,7.65127,1.198597,-0.794117,0.180811,0.801461,9.30,1,WALK
1759223390.62650,1.019331,8.814553,0.345513,-0.74483,0.1879,1.207233,9.32,1,WALK
1759223390.64653,0.658854,9.940725,-0.087987,-0.64102,0.204002,1.329651,9.34,1,WALK
1759223390.66652,0.793977,10.926837,0.744597,-0.557066,0.125645,1.347109,9.36,1,WALK
1759223390.68653,-0.558747,11.17344,0.20231,-0.244973,0.066924,1.26899,9.38,1,WALK
1759223390.70653,-2.11393,10.402507,0.314239,-0.10764,0.068449,0.817024,9.40,1,WALK
1759223390.72650,-1.51538,9.735423,-1.138144,0.158936,0.254822,0.255967,9.42,1,WALK
1759223390.74652,-1.153257,11.801768,-2.037765,0.356248,0.134191,-0.003539,9.44,1,WALK
1759223390.76589,-2.111686,12.82903,-2.258929,1.020276,-0.199844,-0.169623,9.46,1,WALK
1759223390.78653,-2.958784,13.604303,-1.474978,1.809195,-0.270303,-0.749306,9.48,1,WALK
1759223390.80653,-2.337339,12.521076,-1.445948,2.737343,-0.41844,-1.274051,9.50,1,WALK
1759223390.82651,-0.352696,11.164312,-2.664896,3.261366,-0.72029,-1.484282,9.52,1,WALK
1759223390.84653,-0.569072,10.763433,-2.315043,2.900263,-0.365421,-2.413713,9.54,1,WALK
1759223390.86654,-0.684293,13.107057,-1.111358,2.361835,0.855636,-2.949697,9.56,1,WALK
1759223390.88653,1.376516,14.595652,2.984672,2.087099,0.543604,-2.483817,9.58,1,WALK
1759223390.90653,1.437718,16.027983,6.593182,1.191035,-0.888161,-2.099089,9.60,1,WALK
1759223390.92651,0.981323,14.787188,7.5356,-0.264523,-2.812258,-1.890468,9.62,1,WALK
1759223390.94654,-2.790143,11.506533,0.170886,-0.853338,-3.284376,-2.101165,9.64,1,WALK
1759223390.96651,-3.353828,10.666917,-8.078934,-0.622618,0.40354,-2.32006,9.66,1,WALK
1759223390.98653,0.624438,12.024429,-3.168726,-0.312648,3.124562,-1.78611,9.68,1,WALK
1759223391.00653,2.148197,8.985439,1.543512,-0.091614,3.449061,-1.229715,9.70,1,WALK
1759223391.02651,4.669142,5.265897,2.767248,0.574915,2.795691,-1.16051,9.72,1,WALK
1759223391.04654,5.038747,4.345027,1.070208,0.474096,2.236079,-1.146305,9.74,1,WALK
1759223391.06653,4.90557,4.060865,1.153706,-0.1808,1.38136,-0.81411,9.76,1,WALK
1759223391.08653,4.22816,4.245219,0.555156,-0.438799,1.250522,-0.429019,9.78,1,WALK
1759223391.10653,3.981108,4.438551,0.300023,-0.62903,1.06912,0.059433,9.80,1,WALK
1759223391.12611,4.190003,4.010737,-0.053121,-0.872834,0.637359,0.568165,9.82,1,WALK
1759223391.14609,4.639364,3.877559,-0.685939,-1.324043,0.339551,1.134425,9.84,1,WALK
1759223391.16651,4.166509,5.170877,-2.88636,-1.454192,0.642112,1.627158,9.86,1,WALK
1759223391.18643,1.755249,9.277681,-4.537012,-1.200838,1.225856,2.266567,9.88,1,WALK
1759223391.20653,-5.933879,13.864971,-4.674529,-0.872901,0.599775,1.742978,9.90,1,WALK
1759223391.22553,-20.577864,24.206426,-3.21227,-0.415947,-2.351785,-1.76121,9.92,1,WALK
1759223391.24652,-11.711836,22.612038,-7.575853,0.191647,-1.050819,-2.923148,9.94,1,WALK
1759223391.26627,-1.653496,8.895357,-3.979462,0.825633,-1.865661,-0.685111,9.96,1,WALK
1759223391.28653,5.114613,6.835745,-0.332046,-0.006765,-2.778858,0.962829,9.98,1,WALK
1759223391.30659,6.409128,9.981427,6.428731,-0.107737,-4.387311,2.116948,10.00,1,WALK
1759223391.32555,8.231864,17.639281,0.666336,0.43348,-2.427808,3.377639,10.02,1,WALK
1759223391.34655,2.407819,11.323826,-9.821614,0.36898,3.028692,1.271848,10.04,1,WALK
1759223391.36653,0.556502,8.703671,3.795408,-0.177449,-0.521412,0.182957,10.06,1,WALK
1759223391.38653,1.195156,7.70888,4.094384,-0.120437,-2.178937,0.440734,10.08,1,WALK
1759223391.40653,1.165827,8.981249,3.129072,0.144737,-1.958596,0.788414,10.10,1,WALK
1759223391.42558,1.041927,9.070433,2.645443,0.194556,-1.469036,0.922096,10.12,1,WALK
1759223391.44654,1.471237,12.433987,1.592743,-0.600669,1.232122,1.315938,10.14,1,WALK
1759223391.46653,-0.462081,11.039664,1.629254,-1.532963,2.500919,1.090527,10.16,1,WALK
1759223391.48653,-0.61097,9.077616,1.361702,-1.585101,2.174994,0.616925,10.18,1,WALK
1759223391.50653,1.67654,6.529437,-0.387262,-1.032678,-0.323542,0.768636,10.20,1,WALK
1759223391.52559,1.181838,7.834426,0.938228,-0.76201,-1.977711,0.770679,10.22,1,WALK
1759223391.54654,-0.0413,9.329007,1.398513,-1.17624,-1.486163,0.744315,10.24,1,WALK
1759223391.56654,-0.774824,8.785074,0.374393,-1.272413,-0.264162,0.634986,10.26,1,WALK
1759223391.58653,-0.890194,7.603685,-0.337433,-1.10356,0.461402,0.664135,10.28,1,WALK
1759223391.60641,-1.855806,7.78355,-2.158672,-0.98042,0.231657,0.671532,10.30,1,WALK
1759223391.62630,-2.356942,9.203461,-3.141492,-0.567164,-0.222292,0.544393,10.32,1,WALK
1759223391.64658,-0.004788,9.788843,0.181959,-0.360967,-0.346198,0.474443,10.34,1,WALK
1759223391.66634,1.890821,10.103082,1.292121,-0.637576,0.058968,0.650291,10.36,1,WALK
1759223391.68653,2.656666,10.213066,0.039654,-0.648358,0.451192,0.870946,10.38,1,WALK
1759223391.70652,0.273388,10.992827,-1.169418,-0.118834,0.042243,1.023537,10.40,1,WALK
1759223391.72651,-2.15942,10.775553,0.885406,0.127742,0.08213,0.832426,10.42,1,WALK
1759223391.74652,-3.179649,11.608885,1.456572,-0.012422,0.46376,0.578034,10.44,1,WALK
1759223391.76652,-3.220949,10.076596,-1.042376,0.184873,0.120583,0.069046,10.46,1,WALK
1759223391.78653,-1.527501,11.809998,-3.771017,0.690892,-0.352672,-0.336789,10.48,1,WALK
1759223391.80653,-1.666364,13.835343,-4.17474,1.040008,-0.313936,-0.374588,10.50,1,WALK
1759223391.82563,-2.618658,14.88131,-4.714183,2.162944,-0.053483,-0.63986,10.52,1,WALK
1759223391.84655,-3.255665,10.868478,-2.013673,3.012578,0.337233,-1.121508,10.54,1,WALK
1759223391.86625,-3.024176,11.331308,-1.095647,3.398952,-0.061905,-1.798305,10.56,1,WALK
1759223391.88619,-1.050306,13.763068,0.178817,2.836856,-0.140267,-2.649528,10.58,1,WALK
1759223391.90654,2.56419,16.43814,1.876306,2.078366,-0.069203,-2.301584,10.60,1,WALK
1759223391.92630,3.793014,17.148469,4.486135,1.425933,-0.666862,-1.62767,10.62,1,WALK
1759223391.94654,2.653673,14.861109,9.700407,-0.220178,-1.630529,-1.540502,10.64,1,WALK
1759223391.96654,-0.003741,10.272173,0.729783,-0.50912,-3.919432,-1.87904,10.66,1,WALK
1759223391.98654,-1.66397,9.517101,-9.015067,-0.048762,-0.826598,-2.093429,10.68,1,WALK
1759223392.00653,1.048511,11.531223,-4.374057,0.349813,2.241357,-1.608215,10.70,1,WALK
1759223392.02611,0.713472,9.717167,0.773477,0.559644,2.761459,-1.46015,10.72,1,WALK
1759223392.04654,2.145055,7.759009,2.104354,0.890982,2.808274,-1.347185,10.74,1,WALK
1759223392.06654,3.180398,5.693112,2.761562,0.924657,2.10962,-1.172747,10.76,1,WALK
1759223392.08654,3.591751,3.981557,1.746271,0.282933,1.498947,-1.108596,10.78,1,WALK
1759223392.10654,4.201076,3.65849,1.216703,-0.20093,1.013934,-0.739751,10.80,1,WALK
1759223392.12614,4.220529,3.623026,1.012897,-0.508295,0.890217,-0.284562,10.82,1,WALK
1759223392.14654,4.127604,3.776404,0.980276,-0.796476,0.835101,0.183151,10.84,1,WALK
1759223392.16655,4.158878,4.124761,0.236128,-1.109157,0.530321,0.75525,10.86,1,WALK
1759223392.18653,4.012532,4.305523,-0.161309,-1.69442,0.139823,1.315247,10.88,1,WALK
1759223392.20654,3.87322,5.645827,-2.407968,-1.724251,0.272131,1.92205,10.90,1,WALK
1759223392.22647,3.860351,9.991452,-3.709815,-1.349153,0.89323,2.791425,10.92,1,WALK
1759223392.24654,-1.775899,17.621773,-5.322909,-0.444831,0.708919,2.316547,10.94,1,WALK
1759223392.26644,-19.787329,27.056723,-4.51292,-0.182531,-2.44959,-1.853423,10.96,1,WALK
1759223392.28654,-8.367136,23.312641,-9.493907,0.02273,-1.256185,-3.009422,10.98,1,WALK
1759223392.30656,-1.035043,10.34744,-3.152415,0.696205,-2.573882,-0.982368,11.00,1,WALK
1759223392.32573,6.09025,9.27798,-1.86224,0.42589,-3.531534,1.058112,11.02,1,WALK
1759223392.34654,7.140108,9.974693,3.188029,0.166677,-3.691342,1.941503,11.04,1,WALK
1759223392.36654,7.395689,11.856236,1.467496,0.358716,-1.46692,2.059282,11.06,1,WALK
1759223392.38654,4.266916,9.471761,2.2091,-0.122689,1.281024,0.964171,11.08,1,WALK
1759223392.40654,2.158672,8.392126,2.262521,-0.91466,1.604618,1.055636,11.10,1,WALK
1759223392.42575,0.545878,8.906879,1.064372,-0.793223,1.431435,1.214034,11.12,1,WALK
1759223392.44656,-0.783951,7.631069,0.390255,-0.071876,0.582198,1.176215,11.14,1,WALK
1759223392.46654,-0.323516,6.565799,0.520589,-0.013566,-0.649428,1.315529,11.16,1,WALK
1759223392.48654,-0.131831,9.433753,1.200243,-1.09201,-0.103676,0.736516,11.18,1,WALK
1759223392.50654,0.14455,12.423512,2.713079,-1.443122,0.512685,0.665878,11.20,1,WALK
1759223392.52577,-1.484255,9.660304,1.673248,-0.968637,0.619426,0.537715,11.22,1,WALK
1759223392.54654,-2.70051,8.497321,0.332495,-0.865701,-0.580116,0.25658,11.24,1,WALK
1759223392.56654,-2.272097,8.895956,-0.780809,-0.710224,-1.115249,0.065905,11.26,1,WALK
1759223392.58654,-0.256329,9.703999,-0.60708,-0.864826,-0.231827,-0.052236,11.28,1,WALK
1759223392.60653,1.25531,9.019855,0.93718,-0.910452,-0.166336,0.095493,11.30,1,WALK
1759223392.62610,2.20476,8.380005,-0.084096,-0.840042,-0.392048,0.348262,11.32,1,WALK
1759223392.64652,2.494758,9.031378,-0.244508,-0.84811,-0.169089,0.517332,11.34,1,WALK
1759223392.66597,1.93227,9.347562,0.017508,-0.763755,0.147669,0.776466,11.36,1,WALK
1759223392.68652,-0.04115,9.325864,-0.2273,-0.479599,0.092527,1.01318,11.38,1,WALK
1759223392.70653,-0.770035,9.554361,0.011971,-0.434601,0.197025,0.946664,11.40,1,WALK
1759223392.72613,0.273837,9.929951,0.299724,-0.384383,0.468214,0.955589,11.42,1,WALK
1759223392.74656,-0.307056,10.502315,0.401178,-0.147991,0.22669,0.902872,11.44,1,WALK
1759223392.76652,-1.423503,10.71495,0.667982,0.096142,0.039379,0.694296,11.46,1,WALK
1759223392.78653,-1.481412,10.784681,0.992397,0.184333,0.138598,0.457753,11.48,1,WALK
1759223392.80653,-0.819715,9.916334,-0.667084,0.316079,0.358753,0.191811,11.50,1,WALK
1759223392.82652,-0.927155,11.913398,-2.222867,0.529697,0.199342,-0.049184,11.52,1,WALK
1759223392.84658,-1.959654,13.98528,-2.932298,0.95631,-0.16991,-0.293022,11.54,1,WALK
1759223392.86654,-3.141193,12.844742,-3.776703,2.083306,-0.275874,-0.695104,11.56,1,WALK
1759223392.88654,-4.148254,11.0039,-1.591546,2.76033,0.108634,-1.285532,11.58,1,WALK
1759223392.90654,-3.003825,10.283246,-1.744176,3.154449,-0.098888,-1.79952,11.60,1,WALK
1759223392.92652,-0.5782,10.940753,-1.394024,2.899372,-0.01905,-2.438188,11.62,1,WALK
1759223392.94654,1.442806,14.538191,0.953042,2.103987,0.4337,-2.548646,11.64,1,WALK
1759223392.96619,3.484761,16.183307,4.27365,1.45426,0.041786,-1.893927,11.66,1,WALK
1759223392.98654,2.995595,16.310948,8.919,0.123685,-0.981713,-1.373277,11.68,1,WALK
1759223393.00654,1.138593,11.969811,4.787954,-0.47166,-3.579503,-1.390408,11.70,1,WALK
1759223393.02620,-2.018462,9.214384,-5.394136,-0.432064,-2.503878,-1.993977,11.72,1,WALK
1759223393.04654,0.178218,11.738771,-6.451925,-0.23412,1.568989,-1.759231,11.74,1,WALK
1759223393.06654,0.646135,10.408193,0.254683,0.05373,2.626282,-1.492925,11.76,1,WALK
1759223393.08655,0.992546,9.106496,0.786346,0.561052,3.177783,-1.3436,11.78,1,WALK
1759223393.10654,2.414552,6.274604,2.343624,0.883984,2.665567,-1.173364,11.80,1,WALK
1759223393.12613,3.67495,4.154389,1.467346,0.373294,1.950544,-1.025904,11.82,1,WALK
1759223393.14655,4.531476,3.347842,1.006463,-0.256787,1.407371,-0.715838,11.84,1,WALK
1759223393.16655,4.613178,3.688717,1.10642,-0.607653,1.033849,-0.242197,11.86,1,WALK
1759223393.18655,4.399346,4.391864,1.114052,-0.823407,0.687624,0.172388,11.88,1,WALK
1759223393.20655,3.944447,4.935796,0.35494,-0.975646,0.43279,0.562342,11.90,1,WALK
1759223393.22652,4.078074,4.81459,-0.495749,-1.332558,0.240485,1.028762,11.92,1,WALK
1759223393.24655,3.357868,5.190928,-2.533065,-1.550896,0.673395,1.43675,11.94,1,WALK
1759223393.26655,3.423708,9.102306,-3.304298,-1.477791,1.275264,2.306666,11.96,1,WALK
1759223393.28655,-2.212392,17.60636,-5.969942,-0.442525,0.519558,2.041244,11.98,1,WALK
1759223393.30656,-21.664383,29.625253,-4.970961,-0.278737,-1.632987,-2.209485,12.00,1,WALK
1759223393.32590,-8.751256,22.790406,-8.03943,0.072646,-0.88817,-2.952553,12.02,1,WALK
1759223393.34654,-1.96953,5.557092,-6.458509,1.219861,-2.355904,-0.981503,12.04,1,WALK
1759223393.36652,6.052991,0.533159,-2.231097,0.352377,-2.689347,0.963567,12.06,1,WALK
1759223393.38655,5.697601,6.257994,4.081964,-0.368481,-3.202159,2.038472,12.08,1,WALK
1759223393.40656,7.199065,14.67062,3.706972,0.249355,-2.783834,3.048972,12.10,1,WALK
1759223393.42594,6.386383,18.633174,-0.459836,0.345212,0.84472,2.268426,12.12,1,WALK
1759223393.44654,1.952471,9.417293,-2.56823,-0.522517,3.493214,1.073862,12.14,1,WALK
1759223393.46643,-0.018854,10.477026,-1.598429,-1.723465,3.005392,0.460952,12.16,1,WALK
1759223393.48654,-0.952443,8.352172,-0.484826,0.556996,-3.504921,0.574903,12.18,1,WALK
1759223393.50626,-0.570119,6.098181,4.91784,0.847626,-4.583874,0.408286,12.20,1,WALK
1759223393.52651,1.534085,7.732972,3.380463,0.166744,-2.65575,0.465334,12.22,1,WALK
1759223393.54574,2.745551,11.335198,3.708618,-1.452372,0.000465,0.805151,12.24,1,WALK
1759223393.56654,-0.050578,11.049839,-0.510713,-1.21132,2.419873,0.672012,12.26,1,WALK
1759223393.58628,-0.200215,9.922918,2.086247,-1.307927,2.813582,0.75261,12.28,1,WALK
1759223393.60655,-1.680131,8.701277,2.142511,-1.728992,0.281083,0.8159,12.30,1,WALK
1759223393.62653,-2.169895,7.570765,-0.908899,-0.906531,-1.473482,0.476952,12.32,1,WALK
1759223393.64653,0.525677,7.986309,-1.74253,-0.90367,-1.073373,0.425598,12.34,1,WALK
1759223393.66659,0.872687,8.855853,-0.828992,-0.953995,-0.525707,0.548964,12.36,1,WALK
1759223393.68653,0.886154,9.759514,-0.650774,-0.741951,-0.576162,0.690213,12.38,1,WALK
1759223393.70569,0.648529,9.508273,-0.386215,-0.681872,-0.544955,0.749166,12.40,1,WALK
1759223393.72651,-0.544232,9.047389,0.276381,-0.630846,-0.01039,0.749059,12.42,1,WALK
1759223393.74579,-1.026664,9.510218,0.616208,-0.636994,0.140262,0.724742,12.44,1,WALK
1759223393.76655,-0.848296,9.855731,-0.203208,-0.634111,0.333234,0.872855,12.46,1,WALK
1759223393.78555,0.465822,9.927408,-0.287304,-0.473544,0.310344,0.901624,12.48,1,WALK
1759223393.80655,1.190816,10.329484,0.426916,-0.294594,-0.007347,0.856332,12.50,1,WALK
1759223393.82599,1.176152,10.969185,-0.094721,-0.064362,-0.3125,0.685375,12.52,1,WALK
1759223393.84617,0.461033,11.057022,-0.306009,0.439398,-0.689044,0.410482,12.54,1,WALK
1759223393.86655,-0.609773,11.572823,-1.211765,0.568145,-0.524496,-0.057862,12.56,1,WALK
1759223393.88556,-1.485303,12.883199,-3.207033,0.861635,-0.787759,-0.300542,12.58,1,WALK
1759223393.90656,-3.416226,12.549507,-3.803788,1.753095,-1.239503,-0.585567,12.60,1,WALK
1759223393.92653,-4.34368,12.394034,-3.405303,2.760903,-0.71284,-1.258622,12.62,1,WALK
1759223393.94656,-4.523694,11.571326,-1.671602,3.447195,-0.411109,-1.837172,12.64,1,WALK
1759223393.96656,-3.79466,12.782194,-0.960973,3.294641,-0.167508,-2.285508,12.66,1,WALK
1759223393.98558,-2.713977,14.599243,0.704643,2.370476,1.4244,-2.810521,12.68,1,WALK
1759223394.00654,1.971176,16.409709,4.878485,1.608441,0.733642,-2.261141,12.70,1,WALK
1759223394.02653,3.215562,17.085771,6.613384,0.944935,-1.316027,-1.541287,12.72,1,WALK
1759223394.04656,-0.746243,12.580482,9.825504,-0.973486,-3.183917,-1.754372,12.74,1,WALK
1759223394.06653,-3.537433,8.62571,-5.125686,-1.336705,-2.909963,-2.473491,12.76,1,WALK
1759223394.08561,-0.548721,11.203367,-9.497199,-0.655831,2.114974,-2.356777,12.78,1,WALK
1759223394.10654,1.51972,10.123732,-0.956334,0.002966,3.287283,-1.666629,12.80,1,WALK
1759223394.12653,2.435801,9.412205,0.628029,0.583704,3.81905,-1.391671,12.82,1,WALK
1759223394.14656,4.823119,7.509563,3.831321,0.684293,3.131674,-1.248978,12.84,1,WALK
1759223394.16656,4.440047,5.196764,2.59726,0.501801,2.202513,-1.126168,12.86,1,WALK
1759223394.18562,3.793762,4.027646,1.298405,-0.136028,1.145373,-0.839761,12.88,1,WALK
1759223394.20654,4.23639,4.746654,0.08679,-0.555468,0.707912,-0.516995,12.90,1,WALK
1759223394.22606,4.371812,5.599289,-0.624887,-0.741258,0.785803,-0.096702,12.92,1,WALK
1759223394.24655,3.817704,5.738901,-1.316961,-0.798412,1.072014,0.333138,12.94,1,WALK
1759223394.26656,4.411915,4.845116,-1.082778,-1.023619,1.031618,0.870663,12.96,1,WALK
1759223394.28563,4.339939,4.350115,-0.311845,-1.322481,0.574749,1.336722,12.98,1,WALK
1759223394.30660,2.584391,6.569689,-2.366369,-1.187622,0.650838,1.920915,13.00,1,WALK
1759223394.32608,-0.135422,10.784382,-3.43538,-1.097569,0.58888,2.440677,13.02,1,WALK
1759223394.34565,-9.665093,16.514156,-4.646098,-0.926938,-0.636257,0.984828,13.04,1,WALK
1759223394.36656,-17.241843,25.635316,-4.00116,-0.527454,-1.630718,-1.826652,13.06,1,WALK
1759223394.38565,-7.897424,18.569428,-6.256647,0.626633,-1.040187,-2.059069,13.08,1,WALK
1759223394.40639,2.168847,12.674604,-3.18354,0.956619,-2.550578,0.130065,13.10,1,WALK
1759223394.42653,5.722142,11.686996,0.541389,0.296663,-2.943625,1.562375,13.12,1,WALK
1759223394.44655,6.822427,12.404808,3.013252,0.241418,-3.205406,2.113107,13.14,1,WALK
1759223394.46655,5.038298,9.219472,0.817919,-0.103794,-0.480066,1.197833,13.16,1,WALK
1759223394.48566,2.639607,5.531803,-0.032022,-0.60477,1.011698,0.205266,13.18,1,WALK
1759223394.50655,1.620725,6.66037,0.242563,-0.501487,0.412835,0.389073,13.20,1,WALK
1759223394.52613,2.529624,8.942044,0.566079,0.05959,-0.527763,1.09475,13.22,1,WALK
1759223394.54655,2.427272,9.373748,0.343718,0.085174,-0.605326,1.67038,13.24,1,WALK
1759223394.56641,1.584513,11.495161,1.16014,-0.460422,0.357373,1.354669,13.26,1,WALK
1759223394.58568,0.511611,12.179603,4.639664,-1.047489,0.555568,1.076735,13.28,1,WALK
1759223394.60655,-0.895581,10.580725,1.538723,-1.307789,1.322221,0.906695,13.30,1,WALK
1759223394.62653,-1.529596,8.585158,0.701501,-1.227983,1.315699,0.99049,13.32,1,WALK
1759223394.64594,-1.965939,7.96925,1.501015,-1.085336,0.148878,1.161909,13.34,1,WALK
1759223394.66631,-2.286313,8.016984,0.959476,-1.215662,-0.57224,0.77384,13.36,1,WALK
1759223394.68570,0.086491,8.475923,-1.821987,-1.03834,-0.566562,0.496079,13.38,1,WALK
1759223394.70656,0.950348,7.992144,-2.105102,-0.750934,-0.286777,0.439633,13.40,1,WALK
1759223394.72615,1.067215,8.202685,0.198569,-0.552426,-0.486308,0.452959,13.42,1,WALK
1759223394.74637,0.330549,7.634361,0.260669,-0.629524,-0.45475,0.547466,13.44,1,WALK
1759223394.76559,-0.825401,8.298004,0.353444,-0.639045,-0.1799,0.574476,13.46,1,WALK
1759223394.78571,0.406416,9.617508,1.780089,-0.818258,0.035326,0.744812,13.48,1,WALK
1759223394.80656,1.65574,11.482741,0.335637,-0.822643,0.332817,0.855203,13.50,1,WALK
1759223394.82617,3.276914,12.54412,-1.053898,-0.356433,-0.118554,1.139249,13.52,1,WALK
1759223394.84656,-0.65242,12.570307,-2.218677,0.058035,-0.092935,1.046622,13.54,1,WALK
1759223394.86659,-2.877232,11.099519,-0.418087,0.386566,0.16249,0.794326,13.56,1,WALK
1759223394.88572,-3.691859,10.781689,1.103428,0.228226,0.741768,0.431152,13.58,1,WALK
1759223394.90590,-2.439542,12.057648,-0.474351,0.142584,0.18116,-0.10654,13.60,1,WALK
1759223394.92654,-0.892289,12.528558,-4.526089,0.879829,-0.607613,-0.46391,13.62,1,WALK
1759223394.94657,-1.217601,12.175264,-4.351013,1.702692,-0.477722,-0.670648,13.64,1,WALK
1759223394.96656,-1.261146,10.279954,-3.072659,2.63083,-0.039064,-0.999817,13.66,1,WALK
1759223394.98576,-2.887856,10.631602,-1.830517,3.118063,0.319472,-1.671395,13.68,1,WALK
1759223395.00656,-2.951003,12.36276,-0.143951,2.800365,0.847358,-2.473094,13.70,1,WALK
1759223395.02653,0.132878,15.14138,2.644246,2.067034,1.059276,-2.425651,13.72,1,WALK
1759223395.04657,2.309806,16.564135,5.163096,1.477735,0.033479,-1.793058,13.74,1,WALK
1759223395.06654,2.50239,16.738911,7.11437,0.511833,-0.906162,-1.42909,13.76,1,WALK
1759223395.08578,3.148076,13.548189,5.345504,-0.345281,-2.407179,-1.326966,13.78,1,WALK
1759223395.10657,0.130634,8.421455,-6.357503,-0.281392,-1.619085,-2.098532,13.80,1,WALK
1759223395.12653,-0.59047,10.736199,-5.486612,-0.332482,2.298096,-2.244547,13.82,1,WALK
1759223395.14656,0.83004,10.634744,0.469862,0.196143,2.72003,-1.688782,13.84,1,WALK
1759223395.16656,1.278354,8.620473,1.173009,0.769428,3.031445,-1.3395,13.86,1,WALK
1759223395.18581,2.879925,7.030723,3.268833,1.101099,2.805089,-1.16125,13.88,1,WALK
1759223395.20661,3.993528,5.748777,3.130718,0.723304,1.97069,-1.059047,13.90,1,WALK
1759223395.22624,4.580557,4.353556,1.659481,0.028575,1.175429,-0.994369,13.92,1,WALK
1759223395.24655,5.130026,4.007744,0.483329,-0.534364,0.741035,-0.792675,13.94,1,WALK
1759223395.26656,4.805462,4.041263,0.154725,-0.880415,0.734041,-0.466625,13.96,1,WALK
1759223395.28580,4.043058,4.495263,-0.650624,-0.837922,0.862939,-0.01665,13.98,1,WALK
1759223395.30656,4.090494,4.164714,-0.44188,-1.104719,0.800381,0.700569,14.00,1,WALK
1759223395.32626,3.853019,5.266944,-1.376217,-1.364156,0.911967,1.385349,14.02,1,WALK
1759223395.34656,2.112284,7.584681,-3.355324,-1.439155,1.252428,2.059202,14.04,1,WALK
1759223395.36656,-1.843685,11.203218,-3.308787,-1.336313,0.402036,2.172235,14.06,1,WALK
1759223395.38582,-10.38051,17.14413,-2.293795,-0.608301,-2.415993,0.26203,14.08,1,WALK
1759223395.40656,-12.590807,20.00565,-4.024803,-0.33322,-3.395299,-1.863073,14.10,1,WALK
1759223395.42627,-5.813271,13.739575,-7.724443,0.521055,-2.861277,-1.698426,14.12,1,WALK
1759223395.44657,4.513669,14.434941,-2.908805,0.678442,-3.115913,0.349259,14.14,1,WALK
1759223395.46623,6.831106,16.478991,4.258237,0.638731,-3.150959,1.340521,14.16,1,WALK
1759223395.48581,6.218041,16.345215,-0.208445,0.134482,0.133645,0.665055,14.18,1,WALK
1759223395.50586,3.528604,7.911639,0.15278,-0.206303,1.080659,-0.388688,14.20,1,WALK
1759223395.52654,2.502689,5.044733,0.310947,-0.04366,-0.441666,0.030366,14.22,1,WALK
1759223395.54656,3.921104,5.688174,2.753631,-0.043351,-2.235918,0.811699,14.24,1,WALK
1759223395.56656,3.16723,8.355764,2.071583,-0.135948,-1.82239,0.921787,14.26,1,WALK
1759223395.58584,3.701286,10.252869,1.586608,-0.191468,-1.072108,0.857124,14.28,1,WALK
1759223395.60656,4.125658,15.317204,2.551471,-0.771259,1.126772,1.812857,14.30,1,WALK
1759223395.62654,-0.09906,14.461128,2.069638,-1.134477,2.533264,1.663721,14.32,1,WALK
1759223395.64589,-2.15538,10.200347,1.797746,-1.197065,2.894699,1.511966,14.34,1,WALK
1759223395.66655,-4.453814,6.256947,2.46917,-1.513832,-0.286208,1.062845,14.36,1,WALK
1759223395.68587,-5.214721,5.880459,2.02759,-1.455784,-1.379627,0.838495,14.38,1,WALK
1759223395.70655,-1.970578,6.180482,-1.005714,-1.030195,-1.747827,0.425714,14.40,1,WALK
1759223395.72555,-0.644788,7.004686,-1.516278,-1.104971,-0.950595,0.368031,14.42,1,WALK
1759223395.74654,2.271648,9.093178,-0.193332,-0.873509,-0.394413,0.527501,14.44,1,WALK
1759223395.76653,2.207005,10.290877,-0.347159,-0.79277,-0.567293,0.791419,14.46,1,WALK
1759223395.78589,1.393575,10.21965,-1.330278,-0.733731,-0.383311,0.879118,14.48,1,WALK
1759223395.80656,-0.262464,10.500669,-0.835876,-0.605914,-0.389338,1.026795,14.50,1,WALK
1759223395.82555,-0.935235,9.72809,-0.831087,-0.489101,-0.328381,0.985822,14.52,1,WALK
1759223395.84656,-0.756717,10.269479,-0.910545,-0.239551,-0.128993,0.860952,14.54,1,WALK
1759223395.86656,-1.194407,10.387693,-0.286556,0.071444,-0.076255,0.725074,14.56,1,WALK
1759223395.88591,-2.102857,9.100959,0.502034,0.31288,-0.136172,0.530371,14.58,1,WALK
1759223395.90656,-2.06859,8.735544,-0.190938,0.342834,0.088523,0.133391,14.60,1,WALK
1759223395.92558,-2.219874,12.355727,-2.220323,0.69655,0.163443,-0.184763,14.62,1,WALK
1759223395.94656,-2.169296,16.795774,-1.295413,1.412852,-0.115765,-0.556716,14.64,1,WALK
1759223395.96656,-0.825102,17.089811,-1.438915,2.310908,-0.390416,-0.847471,14.66,1,WALK
1759223395.98593,0.978929,13.790302,-2.957138,2.757724,-0.509562,-1.503499,14.68,1,WALK
1759223396.00656,1.709909,13.09359,-3.586963,2.786208,-0.355596,-2.104355,14.70,1,WALK
1759223396.02559,1.235258,11.751041,-0.472705,2.433281,0.315889,-2.435663,14.72,1,WALK
1759223396.04656,2.018911,11.957541,3.669563,1.816505,-0.005189,-2.247161,14.74,1,WALK
1759223396.06656,2.288109,10.590302,4.32752,1.272376,-0.132963,-1.887899,14.76,1,WALK
1759223396.08595,2.130839,8.208221,4.510526,0.614691,-1.731106,-1.715838,14.78,1,WALK
1759223396.10656,-0.521487,7.713669,-0.335787,-0.304981,-2.787626,-2.041572,14.80,1,WALK
1759223396.12562,-0.389357,10.497826,-5.622932,-0.647625,-0.484176,-2.035349,14.82,1,WALK
1759223396.14657,-0.08245,12.167782,-2.921225,-0.211212,1.716757,-1.801391,14.84,1,WALK
1759223396.16657,1.384297,11.137527,0.905607,0.414898,2.002342,-1.52868,14.86,1,WALK
1759223396.18596,3.954473,7.897573,1.744176,0.654037,1.702055,-1.274324,14.88,1,WALK
1759223396.20656,4.506336,5.484218,0.313192,0.220079,1.655369,-1.140201,14.90,1,WALK
1759223396.22563,3.301754,5.504419,-0.525378,-0.13439,1.365672,-0.667311,14.92,1,WALK
1759223396.24656,2.466028,5.68563,-0.465822,-0.326035,0.946658,-0.166602,14.94,1,WALK
1759223396.26657,2.545336,5.805789,-0.411204,-0.519564,0.504837,0.284873,14.96,1,WALK
1759223396.28598,3.337367,5.688324,-0.406715,-0.786063,0.087698,0.641992,14.98,1,WALK
1759223396.30656,4.657171,5.027225,0.065242,-1.081145,-0.178914,1.01619,15.00,1,WALK
1759223396.32564,5.070769,4.364779,-0.056563,-1.296699,-0.08273,1.404164,15.02,1,WALK
1759223396.34657,4.816386,6.703765,-1.626411,-1.371109,0.339815,2.07906,15.04,1,WALK
1759223396.36641,1.460014,12.700791,-3.685574,-1.191251,0.404638,2.520094,15.06,1,WALK
1759223396.38600,-16.387113,21.610513,-6.896348,-0.674912,-1.163488,-0.389875,15.08,1,WALK
1759223396.40655,-16.704495,26.010008,-7.925705,-0.183384,-1.081385,-2.860721,15.10,1,WALK
1759223396.42567,-6.191705,11.790096,-7.057658,1.363345,-1.812842,-1.379832,15.12,1,WALK
1759223396.44657,3.379116,6.355408,-2.66759,0.99497,-2.530909,0.661816,15.14,1,WALK
1759223396.46656,5.344606,7.899968,2.761113,0.233958,-2.690299,1.174192,15.16,1,WALK
1759223396.48602,6.872855,11.583297,2.860772,0.306733,-1.666704,1.529219,15.18,1,WALK
1759223396.50656,6.663512,14.345159,2.725499,-0.385665,0.519813,1.260617,15.20,1,WALK
1759223396.52569,2.780117,7.44492,0.221314,-1.450749,2.28711,0.274164,15.22,1,WALK
1759223396.54656,0.504728,8.192808,-0.957681,-1.164852,0.544728,0.425173,15.24,1,WALK
1759223396.56656,-0.3304,7.04838,-2.15119,0.15137,-1.444257,0.738732,15.26,1,WALK
1759223396.58608,1.309778,7.52737,-2.03582,-0.254709,-0.883672,1.480063,15.28,1,WALK
1759223396.60656,1.363498,12.360216,0.77198,-0.486646,0.818588,1.48103,15.30,1,WALK
1759223396.62570,1.188571,14.053365,8.937704,-0.441288,-0.109001,1.063483,15.32,1,WALK
1759223396.64658,-1.113902,10.606912,3.785382,-1.19831,0.854579,0.742425,15.34,1,WALK
1759223396.66654,-1.785925,8.255207,-0.908001,-1.98698,1.897591,0.964207,15.36,1,WALK
1759223396.68608,-2.087145,5.321263,-3.887136,-0.965732,-0.635955,0.900036,15.38,1,WALK
1759223396.70657,-2.777723,7.400627,-1.570746,-0.089721,-1.563102,0.362918,15.40,1,WALK
1759223396.72572,-0.599149,9.866056,2.895937,-0.518164,-1.043388,0.327641,15.42,1,WALK
1759223396.74657,-0.110133,10.688614,1.627159,-0.843687,-0.162721,0.521803,15.44,1,WALK
1759223396.76657,0.323367,10.004471,0.55725,-0.902139,0.103235,0.639774,15.46,1,WALK
1759223396.78607,0.177021,9.431808,-0.594809,-0.788596,0.029024,0.71355,15.48,1,WALK
1759223396.80656,0.40073,8.712201,-0.341623,-0.672837,0.171766,0.679569,15.50,1,WALK
1759223396.82573,1.20578,8.681824,0.178218,-0.568605,0.25966,0.790578,15.52,1,WALK
1759223396.84657,1.148618,9.276783,0.256329,-0.464396,0.419404,1.04441,15.54,1,WALK
1759223396.86657,0.515801,10.317363,0.248249,-0.451752,0.319988,1.209265,15.56,1,WALK
1759223396.88609,0.413299,10.004621,0.613664,-0.402931,0.076691,1.21945,15.58,1,WALK
1759223396.90659,0.578649,10.446201,0.529418,-0.367867,-0.100736,1.066311,15.60,1,WALK
1759223396.92576,0.544382,11.07827,-0.595408,0.004051,-0.293442,0.830425,15.62,1,WALK
1759223396.94657,-0.24376,11.549778,0.010624,0.031095,0.017334,0.558885,15.64,1,WALK
1759223396.96659,-1.093103,12.959215,-1.472883,0.312829,-0.147123,0.248084,15.66,1,WALK
1759223396.98611,-3.046622,14.08045,-1.622072,1.253039,-0.319737,-0.305806,15.68,1,WALK
1759223397.00657,-2.742109,14.202704,0.675464,2.010974,-0.466272,-0.981282,15.70,1,WALK
1759223397.02577,-2.4361,12.459276,-1.875109,2.742432,-0.686158,-1.55931,15.72,1,WALK
1759223397.04657,0.575506,10.720487,-5.014356,3.075193,-0.777296,-2.179871,15.74,1,WALK
1759223397.06657,0.494103,10.877457,-5.107131,2.955907,0.029737,-2.712452,15.76,1,WALK
1759223397.08615,1.348085,12.845042,-0.606631,2.453093,1.280699,-2.56056,15.78,1,WALK
1759223397.10657,2.44463,14.601488,5.1616,1.855025,0.78049,-1.825369,15.80,1,WALK
1759223397.12579,0.304363,13.211654,9.482834,0.341635,-0.068566,-1.509298,15.82,1,WALK
1759223397.14657,-1.194407,11.365575,7.689727,-0.690346,-2.756467,-1.693147,15.84,1,WALK
1759223397.16657,-4.380342,10.746823,-3.431938,-0.639827,-4.032622,-2.213487,15.86,1,WALK
1759223397.18615,-0.344915,12.451944,-10.759991,-0.438076,0.723255,-2.113074,15.88,1,WALK
1759223397.20658,3.938761,11.552622,-2.41126,0.106869,2.189579,-1.296696,15.90,1,WALK
1759223397.22581,3.933673,7.672518,0.504728,0.583867,2.145849,-1.181311,15.92,1,WALK
1759223397.24657,4.396203,4.648043,0.897227,0.750721,1.807268,-1.317706,15.94,1,WALK
1759223397.26646,3.686622,4.11279,0.835726,0.310044,1.334771,-1.126151,15.96,1,WALK
1759223397.28615,2.836231,4.213945,0.786944,-0.016926,0.996976,-0.831794,15.98,1,WALK
1759223397.30655,3.079392,5.277868,0.841861,-0.301524,0.705349,-0.430636,16.00,1,WALK
1759223397.32582,3.510498,5.87582,-0.103549,-0.553349,0.533972,-0.009656,16.02,1,WALK
1759223397.34655,2.687791,5.500978,-1.884237,-0.632055,0.75862,0.48391,16.04,1,WALK
1759223397.36656,2.176629,5.132271,-1.486949,-0.894924,0.867209,0.996475,16.06,1,WALK
1759223397.38615,0.588225,6.975955,-2.772186,-0.976049,1.129035,1.229597,16.08,1,WALK
1759223397.40657,-1.237653,11.510424,-4.093636,-1.05396,1.638358,1.489087,16.10,1,WALK
1759223397.42584,-5.499481,14.963611,-2.121861,-0.96942,0.343348,0.927176,16.12,1,WALK
1759223397.44661,-10.351331,16.185252,-4.338892,-0.361379,-1.560792,-0.523681,16.14,1,WALK
1759223397.46657,-9.342624,16.888848,-7.907898,0.393103,-1.949419,-1.63968,16.16,1,WALK
1759223397.48618,-3.305644,11.561301,-6.86687,1.012745,-1.286947,-1.108999,16.18,1,WALK
1759223397.50656,3.403807,2.988113,-0.356137,0.662308,-2.160003,-0.067811,16.20,1,WALK
1759223397.52586,4.657171,2.351256,5.937022,-0.103831,-3.045189,0.924513,16.22,1,WALK
1759223397.54657,8.638729,11.258284,2.568679,-0.423637,-1.98701,2.406355,16.24,1,WALK
1759223397.58620,1.967435,12.35857,9.712528,0.22704,-0.504487,0.697554,16.28,1,WALK
1759223397.60658,0.672621,7.980622,5.348796,-0.328224,-1.048209,1.078438,16.30,1,WALK
1759223397.62588,0.384569,7.347655,3.701436,-0.497317,-1.427239,1.175406,16.32,1,WALK
1759223397.64655,-0.709881,7.741651,5.409699,-0.94948,-1.940548,0.675822,16.34,1,WALK
1759223397.66656,-0.195726,10.084527,3.914819,-1.057952,-0.924851,0.735842,16.36,1,WALK
1759223397.68622,-0.238971,12.773515,0.195876,-0.987449,0.157888,1.11625,16.38,1,WALK
1759223397.70656,-5.223101,11.212046,-0.088735,-2.299225,0.892062,1.682508,16.40,1,WALK
1759223397.72589,-5.766584,8.463802,-1.126921,-1.791685,-0.255325,1.436099,16.42,1,WALK
1759223397.74657,-5.399374,4.491073,-1.589002,-0.649116,-1.458861,0.744269,16.44,1,WALK
1759223397.76659,-1.363199,6.484396,0.227898,-0.772053,-0.850476,0.302697,16.46,1,WALK
1759223397.78627,-0.957381,7.743147,0.453252,-1.171888,-0.014972,0.260234,16.48,1,WALK
1759223397.80656,-0.110283,9.211242,0.118363,-1.114475,-0.039938,0.187304,16.50,1,WALK
1759223397.82591,1.30873,9.672874,-0.978929,-0.754652,-0.143141,0.187619,16.52,1,WALK
1759223397.84657,2.379687,10.184635,-1.256208,-0.745213,-0.192049,0.404954,16.54,1,WALK
1759223397.86657,2.97689,10.190321,-1.032799,-0.643022,0.135215,0.832429,16.56,1,WALK
1759223397.88631,2.092532,10.046669,0.494103,-0.524046,0.402799,1.172739,16.58,1,WALK
1759223397.90657,1.166874,10.780791,0.817171,-0.480732,0.321444,1.265179,16.60,1,WALK
1759223397.92593,0.121805,11.408072,0.19004,-0.409468,0.173506,1.193842,16.62,1,WALK
1759223397.94658,-0.346561,11.394604,0.547823,-0.187417,-0.00246,1.026056,16.64,1,WALK
1759223397.96657,-1.172411,11.055825,0.644639,0.034858,-0.013648,0.641067,16.66,1,WALK
1759223397.98628,-1.877952,10.553042,-0.481683,0.232743,0.008154,0.190979,16.68,1,WALK
1759223398.00659,-1.756446,11.223868,-1.934066,0.609093,-0.202604,-0.184546,16.70,1,WALK
1759223398.02595,-2.672528,13.059472,-2.69213,1.326058,-0.165555,-0.585683,16.72,1,WALK
1759223398.04657,-2.166603,12.939762,-2.124704,2.141228,-0.022383,-0.898409,16.74,1,WALK
1759223398.06658,-3.484611,12.035801,-1.566406,3.047837,-0.463754,-1.555333,16.76,1,WALK
1759223398.08630,-2.229451,9.879075,-1.410933,3.319496,-0.46073,-2.055626,16.78,1,WALK
1759223398.10657,-1.067515,11.655423,-1.318008,2.851794,-0.156105,-2.718216,16.80,1,WALK
1759223398.12596,1.323994,15.820436,0.804152,2.098517,0.387694,-2.602999,16.82,1,WALK
1759223398.14658,3.540875,15.557522,4.592228,1.474238,-0.168155,-1.759512,16.84,1,WALK
1759223398.16658,2.432659,14.635605,6.35885,0.526641,-0.04342,-1.358213,16.86,1,WALK
1759223398.18631,1.019182,11.392809,5.629816,-0.366262,-2.200048,-1.457108,16.88,1,WALK
1759223398.20660,-1.881693,9.639804,-4.683507,-0.695922,-2.118085,-2.145126,16.90,1,WALK
1759223398.22598,1.206678,11.516559,-5.634903,-0.493561,0.690332,-2.008165,16.92,1,WALK
1759223398.24657,2.44867,10.119842,-2.219874,0.035227,1.992993,-1.397357,16.94,1,WALK
1759223398.26658,3.048717,7.043891,-0.320973,0.590337,2.746675,-1.252502,16.96,1,WALK
1759223398.28632,3.727772,4.927716,1.161038,0.900164,2.582909,-1.176518,16.98,1,WALK
1759223398.30586,3.442263,3.801693,0.889895,0.606125,1.887914,-0.942968,17.00,1,WALK
1759223398.32600,4.018817,3.429395,1.137844,-0.04426,1.045796,-0.536315,17.02,1,WALK
1759223398.34657,5.075259,4.164415,0.486921,-0.507329,0.503096,-0.100108,17.04,1,WALK
1759223398.36657,4.919336,5.209932,-0.539294,-0.717024,0.374809,0.280213,17.06,1,WALK
1759223398.38635,3.759645,5.509657,-1.350928,-1.103306,0.541589,0.692605,17.08,1,WALK
1759223398.40661,3.150021,6.068553,-2.585588,-1.266464,0.925505,1.183396,17.10,1,WALK
1759223398.42602,0.842909,8.393472,-3.755754,-1.171561,1.289915,1.555097,17.12,1,WALK
1759223398.44657,-3.156755,12.267889,-4.597615,-1.118464,1.056153,1.626118,17.14,1,WALK
1759223398.46657,-9.163807,17.76333,-5.905149,-0.525673,-0.658651,0.321715,17.16,1,WALK
1759223398.48636,-13.571233,20.69099,-5.622184,0.083096,-1.959791,-1.707039,17.18,1,WALK
1759223398.50658,-7.08564,14.380772,-6.734291,0.588575,-0.336006,-1.506591,17.20,1,WALK
1759223398.52603,0.818518,8.279149,-3.810372,0.578185,-0.544077,0.015921,17.22,1,WALK
1759223398.54658,4.223372,9.990854,2.048688,0.152908,-1.978071,0.839199,17.24,1,WALK
1759223398.56658,6.052542,11.002554,8.493879,-0.32521,-3.291338,1.880257,17.26,1,WALK
1759223398.58638,6.023063,13.852701,1.29242,0.27612,-2.585959,2.652264,17.28,1,WALK
1759223398.60658,1.469142,6.764218,-7.136068,-0.402501,0.793672,0.803291,17.30,1,WALK
1759223398.62606,1.761983,8.352023,-0.645686,-0.551466,0.127443,0.102951,17.32,1,WALK
1759223398.64658,2.89459,10.103381,1.840543,-0.11774,-0.709901,0.692807,17.34,1,WALK
1759223398.66658,1.660977,10.674847,1.990779,0.214042,-0.628335,1.067336,17.36,1,WALK
1759223398.68640,1.094001,10.768521,2.2299,-0.124644,0.077637,1.157831,17.38,1,WALK
1759223398.70658,0.636259,11.459098,1.157447,-0.88689,1.657506,1.08247,17.40,1,WALK
1759223398.72607,0.245705,10.170419,1.748066,-1.398648,2.52198,0.920239,17.42,1,WALK
1759223398.74658,0.24765,7.846098,2.080711,-1.389374,1.692179,0.935355,17.44,1,WALK
1759223398.76656,-0.109385,5.83437,1.959953,-1.050565,-0.287033,1.094027,17.46,1,WALK
1759223398.78642,-0.502633,7.045537,2.095226,-1.23047,-1.088662,0.814323,17.48,1,WALK
1759223398.80658,0.218022,8.67105,-0.025588,-1.511826,-0.194263,0.627591,17.50,1,WALK
1759223398.82608,1.153107,8.573935,-0.389956,-1.440785,0.43595,0.564801,17.52,1,WALK
1759223398.84657,2.123358,8.668357,-0.252139,-1.277235,0.016735,0.706745,17.54,1,WALK
1759223398.86658,0.981024,8.857349,-1.956063,-1.057239,-0.103683,0.80559,17.56,1,WALK
1759223398.88646,0.530465,9.929802,-1.133954,-0.780639,-0.049971,0.860593,17.58,1,WALK
1759223398.90659,1.057339,10.636091,-0.082151,-0.564733,-0.069392,0.963658,17.60,1,WALK
1759223398.92611,0.909348,11.408969,-0.147692,-0.465522,-0.036172,1.030658,17.62,1,WALK
1759223398.94659,-0.012719,11.309161,-0.919074,-0.145961,-0.1575,0.969341,17.64,1,WALK
1759223398.96617,-0.979378,10.319458,0.334889,0.094258,-0.10446,0.798087,17.66,1,WALK
1759223398.98648,-1.882291,10.005818,1.12722,0.127094,0.032723,0.584661,17.68,1,WALK
1759223399.00658,-2.03133,9.562741,-1.079037,0.33019,0.046455,0.10205,17.70,1,WALK
1759223399.02613,-1.513884,11.985523,-3.891176,0.802467,-0.141056,-0.358957,17.72,1,WALK
1759223399.04658,-1.859995,14.850934,-3.927538,1.534632,-0.002649,-0.724718,17.74,1,WALK
1759223399.06658,-2.05198,13.513772,-2.063503,2.519735,-0.10287,-1.166201,17.76,1,WALK
1759223399.08649,-2.138621,12.431892,-0.962619,3.095866,-0.171452,-1.683838,17.78,1,WALK
1759223399.10658,-1.082329,12.369493,-0.890194,2.904641,-0.027207,-2.415292,17.80,1,WALK
1759223399.12615,2.415899,15.096639,1.090708,2.342246,-0.36994,-2.490936,17.82,1,WALK
1759223399.14658,3.568857,16.754174,1.983147,1.914755,-0.84561,-2.121909,17.84,1,WALK
1759223399.16580,3.544316,15.398757,4.727501,0.935604,-0.477924,-1.772362,17.86,1,WALK
1759223399.18650,3.824438,11.964125,5.162497,0.189568,-1.604093,-1.590762,17.88,1,WALK
1759223399.20658,-0.306607,9.257181,-1.353622,-0.016549,-2.725084,-2.002385,17.90,1,WALK
1759223399.22616,-1.078139,10.678888,-4.663007,-0.097938,0.089547,-2.107799,17.92,1,WALK
1759223399.24659,0.382025,11.253646,-1.134552,0.077234,2.03137,-1.712825,17.94,1,WALK
1759223399.26570,0.635661,8.804527,1.432481,0.509031,2.581558,-1.513879,17.96,1,WALK
1759223399.28651,1.865831,6.426785,2.385373,1.073452,2.540349,-1.32237,17.98,1,WALK
1759223399.30659,2.4569,4.75279,1.974767,0.973629,2.246341,-1.273983,18.00,1,WALK
1759223399.32618,4.035577,4.234744,1.73026,0.189028,1.606825,-1.082003,18.02,1,WALK
1759223399.34658,5.468656,4.076128,1.296011,-0.38222,0.988863,-0.656887,18.04,1,WALK
1759223399.36658,6.19799,3.4683,0.814627,-0.696903,0.803937,-0.172095,18.06,1,WALK
1759223399.38652,5.719149,3.036746,-0.002095,-0.990016,0.588856,0.484928,18.08,1,WALK
1759223399.40656,5.077503,3.392135,-0.416591,-1.469175,0.171153,1.168298,18.10,1,WALK
1759223399.42620,2.656666,4.314202,-1.910723,-1.722838,0.32194,1.563205,18.12,1,WALK
1759223399.44658,2.44014,7.82455,-3.199851,-1.480246,0.851804,2.295999,18.14,1,WALK
1759223399.46658,0.670376,16.055816,-5.431845,-0.712989,1.198784,2.915969,18.16,1,WALK
1759223399.48654,-15.864429,28.162545,-12.761095,0.730097,-0.847725,-0.554607,18.18,1,WALK
1759223399.50659,-10.237307,27.735779,-5.995081,-0.189718,-0.805504,-3.127346,18.20,1,WALK
1759223399.52621,-2.847304,8.533533,-4.677223,0.813787,-1.429971,-1.642074,18.22,1,WALK
1759223399.54659,5.616498,4.766407,-4.285172,0.629599,-1.821471,0.491299,18.24,1,WALK
1759223399.56658,7.429806,7.933337,3.419519,0.223791,-2.491885,1.404937,18.26,1,WALK
1759223399.58656,5.692813,9.345168,6.749853,-0.132589,-1.847882,1.935251,18.28,1,WALK
1759223399.60658,3.861847,11.45012,2.827552,-0.075388,-0.680335,1.842853,18.30,1,WALK
1759223399.62623,-0.063596,8.375516,-0.312743,-0.826013,0.810905,0.791408,18.32,1,WALK
1759223399.64657,0.125995,10.603919,-0.756568,-1.070715,0.83146,0.572895,18.34,1,WALK
1759223399.66598,0.155324,11.055675,-0.683545,-0.752252,0.538709,0.571054,18.36,1,WALK
1759223399.68656,1.377863,10.845584,-0.600346,-0.152962,0.082401,1.176775,18.38,1,WALK
1759223399.70657,1.796399,8.87351,-0.75582,-0.367657,0.274337,0.92338,18.40,1,WALK
1759223399.72625,2.077868,9.213935,-0.344316,-0.531153,0.461509,0.783319,18.42,1,WALK
1759223399.74659,1.366341,10.981305,1.905036,-0.777101,0.475254,0.934033,18.44,1,WALK
1759223399.76658,-0.068085,9.766248,5.163246,-0.912611,0.208624,0.793547,18.46,1,WALK
1759223399.78658,-0.536301,8.909273,3.812317,-1.1128,0.228736,0.529141,18.48,1,WALK
1759223399.80658,-0.70614,7.682395,0.754922,-1.176896,0.30447,0.568648,18.50,1,WALK
1759223399.82626,-0.568324,7.839364,-0.515202,-1.093391,-0.340344,0.633856,18.52,1,WALK
1759223399.84658,0.608426,8.143428,-1.268029,-0.889712,-0.396627,0.432808,18.54,1,WALK
1759223399.86658,1.599177,8.833557,-0.69387,-0.848846,-0.243415,0.567511,18.56,1,WALK
1759223399.88660,1.107318,8.537274,-0.25199,-0.882698,-0.080059,0.671112,18.58,1,WALK
1759223399.90586,0.808193,8.890718,-0.154576,-0.841208,0.100777,0.735223,18.60,1,WALK
1759223399.92628,0.814627,9.432406,0.619949,-0.666772,-0.06138,0.820869,18.62,1,WALK
1759223399.94659,0.450708,9.917232,0.290746,-0.585915,0.061389,0.917395,18.64,1,WALK
1759223399.96628,0.776918,10.032304,-0.161309,-0.603756,0.359269,0.933834,18.66,1,WALK
1759223399.98661,0.915483,10.732159,0.042946,-0.409973,0.274121,0.94477,18.68,1,WALK
1759223400.00651,0.084845,11.03727,0.557999,-0.21406,0.250978,0.863231,18.70,1,WALK
1759223400.02630,-0.982521,11.170597,0.726491,-0.079442,0.331831,0.684869,18.72,1,WALK
1759223400.04659,-1.457021,11.324574,0.615609,0.047952,0.312143,0.472184,18.74,1,WALK
1759223400.06658,-0.65257,11.360936,0.027084,0.065229,0.028884,0.088968,18.76,1,WALK
1759223400.08661,0.314239,12.108076,-1.931971,0.34317,-0.580022,-0.163943,18.78,1,WALK
1759223400.10659,-0.811335,11.705102,-3.232472,0.984233,-0.896397,-0.303703,18.80,1,WALK
1759223400.12632,-1.917456,11.918486,-3.698443,1.75283,-0.770986,-0.593059,18.82,1,WALK
1759223400.14659,-1.292719,9.916933,-2.965368,2.749445,-0.635503,-0.740379,18.84,1,WALK
1759223400.16659,-1.612345,8.96853,-2.193538,3.307943,-0.353506,-1.118698,18.86,1,WALK
1759223400.18659,-2.356343,9.47236,-1.003769,2.850007,0.196446,-2.102057,18.88,1,WALK
1759223400.20658,-1.308431,13.655778,0.314987,2.030773,0.98018,-2.633639,18.90,1,WALK
1759223400.22633,2.087145,15.722423,3.544616,1.412449,0.151289,-2.148041,18.92,1,WALK
1759223400.24658,2.650681,17.095348,5.249736,1.001729,-1.055601,-1.538599,18.94,1,WALK
1759223400.26658,2.28332,16.536302,7.524677,-0.324629,-2.131056,-1.371205,18.96,1,WALK
1759223400.28623,0.446519,10.943297,-2.087445,-0.568146,-2.979002,-1.781039,18.98,1,WALK
1759223400.30659,-1.150414,10.287735,-9.151985,-0.28668,0.390919,-1.990584,19.00,1,WALK
1759223400.32635,1.596633,11.662306,-2.780716,0.124986,1.974234,-1.417024,19.02,1,WALK
1759223400.34659,2.248155,9.631275,-0.791583,0.467875,2.362551,-1.085877,19.04,1,WALK
1759223400.36600,4.057573,6.697181,1.383849,0.751005,2.317506,-0.918172,19.06,1,WALK
1759223400.38659,4.317643,4.578162,2.320131,0.676963,1.782694,-0.979188,19.08,1,WALK
1759223400.40659,4.3148,3.688118,0.881365,0.247645,1.401744,-0.919679,19.10,1,WALK
1759223400.42637,4.208258,3.601927,0.629675,-0.192578,0.900323,-0.714354,19.12,1,WALK
1759223400.44576,4.867113,4.134637,0.716315,-0.655472,0.41349,-0.40451,19.14,1,WALK
1759223400.46658,5.114314,4.638466,-0.244059,-0.848111,0.367115,-0.026859,19.16,1,WALK
1759223400.48658,4.540005,4.652532,-1.163582,-0.859866,0.633506,0.541876,19.18,1,WALK
1759223400.50659,3.942502,4.298789,-0.685191,-1.316993,0.561047,1.131042,19.20,1,WALK
1759223400.52639,2.53935,5.741595,-2.880374,-1.55788,0.740787,1.617631,19.22,1,WALK
1759223400.54659,0.503531,10.567856,-3.772514,-1.31276,0.379068,2.154631,19.24,1,WALK
1759223400.56659,-11.157878,21.474044,-8.264186,-0.282776,-0.640428,0.182261,19.26,1,WALK
1759223400.58657,-17.894712,29.375059,-5.378125,-0.542931,-1.16282,-2.710042,19.28,1,WALK
1759223400.60659,-6.760926,14.69142,-7.034913,0.60852,-0.769968,-1.65868,19.30,1,WALK
1759223400.62640,1.402853,5.117456,-6.424092,1.04354,-1.047712,-0.002796,19.32,1,WALK
1759223400.64659,8.125621,5.915324,-0.642394,0.424852,-1.233798,1.101494,19.34,1,WALK
1759223400.66656,6.648099,10.775853,6.675483,0.134703,-2.263375,1.695175,19.36,1,WALK
1759223400.68659,6.336105,14.948048,6.176591,-0.082471,-1.434692,1.916286,19.38,1,WALK
1759223400.70659,1.058387,8.912416,-2.883517,-0.776147,0.14922,0.231824,19.40,1,WALK
1759223400.72642,-0.942717,8.01444,-2.493561,-1.201641,-1.073074,-0.019714,19.42,1,WALK
1759223400.74659,1.643619,8.94788,-1.184831,-0.295801,-1.414547,0.528429,19.44,1,WALK
1759223400.76659,2.644096,9.409362,0.675464,0.226325,-1.068622,0.915807,19.46,1,WALK
1759223400.78659,3.109619,10.760739,3.569306,0.185779,-1.193451,0.912949,19.48,1,WALK
1759223400.80659,3.108123,11.87539,2.970606,-0.474588,-0.507343,0.847344,19.50,1,WALK
1759223400.82644,1.718588,11.363629,0.60693,-1.100735,1.29768,0.915017,19.52,1,WALK
1759223400.84659,0.917727,9.923068,1.378312,-1.103153,2.243405,0.814604,19.54,1,WALK
1759223400.86572,0.663942,8.294263,2.308759,-1.409212,1.879798,1.018895,19.56,1,WALK
1759223400.88659,0.201263,6.500108,0.973393,-1.332417,-0.087694,1.156736,19.58,1,WALK
1759223400.90659,0.168342,7.373692,2.104204,-1.116788,-1.598086,0.825062,19.60,1,WALK
1759223400.92646,0.050278,9.136124,0.702997,-1.371066,-1.066791,0.77277,19.62,1,WALK
1759223400.94659,0.454,8.497022,-0.526575,-1.41059,0.032021,0.750187,19.64,1,WALK
1759223400.96657,0.903063,7.778163,-0.464774,-1.206592,0.120367,0.855088,19.66,1,WALK
1759223400.98664,0.296731,8.292766,-1.228375,-0.928404,-0.503982,0.811539,19.68,1,WALK
1759223401.00659,0.396839,10.293271,-1.512088,-0.747747,-0.596445,0.727014,19.70,1,WALK
1759223401.02647,0.557849,11.94572,-0.707636,-0.523762,-0.512289,0.810893,19.72,1,WALK
1759223401.04659,-0.298527,11.921927,-0.382773,-0.306517,-0.382812,0.962475,19.74,1,WALK
1759223401.06661,-1.486949,10.941202,-0.612467,-0.00989,-0.089954,0.876424,19.76,1,WALK
1759223401.08663,-2.201169,10.571448,0.20216,0.145728,0.026933,0.702381,19.78,1,WALK
1759223401.10662,-2.561646,10.220997,0.797419,0.198238,0.091028,0.437285,19.80,1,WALK
1759223401.12649,-1.886032,10.552294,-0.617854,0.292878,0.362563,0.068118,19.82,1,WALK
1759223401.14657,-1.801337,13.153445,-2.387917,0.685409,0.220521,-0.226338,19.84,1,WALK
1759223401.16660,-2.012775,14.17098,-2.581099,1.453011,-0.193681,-0.635399,19.86,1,WALK
1759223401.18576,-1.678934,12.834118,-2.207155,2.464191,-0.303686,-0.989463,19.88,1,WALK
1759223401.20659,-1.1766,11.3343,-1.744625,2.997382,-0.238017,-1.37587,19.90,1,WALK
1759223401.22651,0.44173,10.606014,-2.00275,3.133246,-0.369521,-2.003436,19.92,1,WALK
1759223401.24658,0.515202,12.523171,-0.796671,2.481738,0.404856,-2.525862,19.94,1,WALK
1759223401.26579,2.346318,15.047408,2.897433,1.683939,0.504687,-2.275798,19.96,1,WALK
1759223401.28577,1.884985,15.385888,6.914155,0.89272,-0.286789,-1.979973,19.98,1,WALK
1759223401.30629,2.48982,14.439729,7.683891,0.004786,-2.939895,-1.919972,20.00,1,WALK
1759223401.32653,0.646434,11.158925,-0.440383,-0.081033,-4.761253,-1.890134,20.02,1,WALK
1759223401.34659,-0.437091,10.35597,-9.44722,-0.22234,-0.005803,-1.935665,20.04,1,WALK
1759223401.36659,0.275782,11.579556,-2.96462,0.126115,2.73425,-1.662293,20.06,1,WALK
1759223401.38659,-0.023044,9.321974,2.115876,0.447661,3.212487,-1.530164,20.08,1,WALK
1759223401.40661,0.695216,7.196671,2.962525,1.072711,2.948877,-1.382922,20.10,1,WALK
1759223401.42654,2.871546,5.195567,2.17588,0.862589,2.218158,-1.357078,20.12,1,WALK
1759223401.44659,5.3265,4.154987,0.985214,0.085367,1.864064,-1.192886,20.14,1,WALK
1759223401.46659,5.255422,3.963302,0.814477,-0.365012,1.499378,-0.682154,20.16,1,WALK
1759223401.48659,4.476559,4.090942,0.989553,-0.794776,1.035515,-0.187046,20.18,1,WALK
1759223401.50659,4.107702,4.608689,0.539144,-0.962236,0.698629,0.323821,20.20,1,WALK
1759223401.52657,4.230255,4.885368,-0.713622,-1.174415,0.380372,0.919399,20.22,1,WALK
1759223401.54659,5.196764,4.402937,-0.361524,-1.737504,0.069386,1.559643,20.24,1,WALK
1759223401.56659,4.342184,5.320964,-3.085078,-1.895525,0.410288,2.101634,20.26,1,WALK
1759223401.58667,5.649717,10.517728,-3.311929,-1.720425,0.349876,3.16224,20.28,1,WALK
1759223401.60661,-9.09662,21.845444,-11.535563,0.319435,-1.580611,0.981136,20.30,1,WALK
1759223401.64658,-6.240187,9.632472,-5.946149,0.810051,-2.239422,-3.216034,20.34,1,WALK
1759223401.66657,1.48665,4.662708,-2.303372,0.961909,-3.370821,-0.041808,20.36,1,WALK
1759223401.68658,6.488735,6.59423,7.123498,0.648747,-3.82915,1.931661,20.38,1,WALK
1759223401.70659,5.815815,14.390648,6.762123,0.672974,-2.562479,3.052407,20.40,1,WALK
1759223401.72657,5.964405,16.632968,2.527229,0.376042,0.317926,2.724383,20.42,1,WALK
1759223401.76658,0.915483,10.481216,-0.993444,-0.925235,3.832163,0.137274,20.46,1,WALK
1759223401.78660,2.571971,8.981997,-0.560094,-0.029433,-1.690108,1.02015,20.48,1,WALK
1759223401.80639,2.516605,7.969848,-0.281768,0.364794,-2.785922,0.834635,20.50,1,WALK
1759223401.82657,3.606566,9.808446,2.955193,-0.488887,-1.972421,0.378693,20.52,1,WALK
1759223401.84659,4.08376,10.733206,3.803189,-1.204423,-1.058143,0.726918,20.54,1,WALK
1759223401.86659,1.558925,9.65387,3.823241,-1.247701,0.565028,0.778256,20.56,1,WALK
1759223401.88658,0.342072,8.974515,2.837728,-1.15149,2.084997,0.780828,20.58,1,WALK
1759223401.90665,-0.289399,8.033444,1.339556,-1.622244,2.457898,1.189478,20.60,1,WALK
1759223401.92657,-2.060959,8.485051,-0.636259,-1.674545,-0.365782,1.094307,20.62,1,WALK
1759223401.94659,-1.450587,8.210615,-3.321955,-0.761165,-1.574852,0.533588,20.64,1,WALK
1759223401.96660,1.388188,9.152584,-1.386392,-0.630165,-0.791872,0.607101,20.66,1,WALK
1759223401.98659,1.486201,8.372074,0.365415,-0.689302,-0.558441,0.716824,20.68,1,WALK
1759223402.00659,-0.687286,9.107094,-0.687585,-0.62704,-0.268687,0.827261,20.70,1,WALK
1759223402.02657,-1.236904,10.404602,0.174178,-0.555934,-0.181916,0.869595,20.72,1,WALK
1759223402.04659,-1.33387,10.869077,0.252439,-0.71128,0.100481,1.039999,20.74,1,WALK
1759223402.06648,-0.331597,9.301174,-1.169568,-0.545207,0.67876,0.975664,20.76,1,WALK
1759223402.08634,0.197073,11.076325,-0.462081,-0.164835,0.243723,1.056859,20.78,1,WALK
1759223402.10662,-1.93646,11.132439,0.737564,0.193086,0.060003,0.817741,20.80,1,WALK
1759223402.12657,-2.099565,9.9717,1.855955,0.087262,0.314368,0.5257,20.82,1,WALK
1759223402.14660,-1.42051,10.627562,-1.048361,0.099694,0.470686,0.06806,20.84,1,WALK
1759223402.16660,-1.140687,13.434314,-3.088371,0.585082,-0.055723,-0.180432,20.86,1,WALK
1759223402.18660,-1.926584,14.434941,-2.298583,1.314408,-0.200496,-0.413938,20.88,1,WALK
1759223402.20660,-2.05213,12.946197,-2.310255,2.256649,-0.167913,-0.823455,20.90,1,WALK
1759223402.22657,-1.831564,11.682357,-2.063951,2.83559,-0.09674,-1.19918,20.92,1,WALK
1759223402.24659,0.552911,10.437073,-3.134908,3.268614,-0.331578,-1.673937,20.94,1,WALK
1759223402.26660,0.95364,11.329512,-2.111836,2.902346,-0.154579,-2.251736,20.96,1,WALK
1759223402.28595,2.119916,13.908217,1.543811,1.979702,0.270142,-2.277577,20.98,1,WALK
1759223402.30659,2.486229,14.128783,5.886893,1.132132,-0.190947,-1.858433,21.00,1,WALK
1759223402.32583,2.116175,14.330045,8.879495,-0.168015,-1.497015,-1.680105,21.02,1,WALK
1759223402.34660,0.101305,10.605715,3.029862,-0.054875,-4.414786,-1.813883,21.04,1,WALK
1759223402.36660,-1.131111,10.043227,-6.459706,-0.136985,-2.212364,-2.013241,21.06,1,WALK
1759223402.38660,-0.64838,11.902474,-6.777386,-0.171972,2.298973,-1.856447,21.08,1,WALK
1759223402.40660,0.318279,10.904092,0.707487,-0.023128,3.38726,-1.659892,21.10,1,WALK
1759223402.42657,1.414973,8.515128,2.016516,0.57274,3.280192,-1.457631,21.12,1,WALK
1759223402.44660,2.609231,5.552154,2.127248,0.949138,2.556773,-1.217721,21.14,1,WALK
1759223402.46660,3.85661,4.406528,1.352874,0.209424,1.803465,-1.031624,21.16,1,WALK
1759223402.48660,4.648791,4.535366,0.857872,-0.327708,1.26807,-0.604146,21.18,1,WALK
1759223402.50660,4.629189,4.654478,0.831985,-0.491293,1.089491,-0.212252,21.20,1,WALK
1759223402.52618,3.79481,4.755184,0.364068,-0.683843,0.916854,0.127263,21.22,1,WALK
1759223402.54660,3.853168,4.639664,-0.47076,-0.932327,0.635715,0.539115,21.24,1,WALK
1759223402.56660,5.194669,3.859453,-0.613215,-1.371736,0.166801,1.026076,21.26,1,WALK
1759223402.58660,5.369745,4.749498,-2.085499,-1.684098,0.223626,1.601336,21.28,1,WALK
1759223402.60665,4.222773,7.429507,-3.307889,-1.72193,0.691162,2.32296,21.30,1,WALK
1759223402.62657,-1.550545,14.87308,-5.520131,-1.123721,-0.318584,2.232334,21.32,1,WALK
1759223402.66660,-11.426327,25.115175,-9.733926,0.594259,-1.719789,-3.358307,21.36,1,WALK
1759223402.68660,-2.678214,4.959738,-7.921067,1.331396,-1.766295,-1.022929,21.38,1,WALK
1759223402.70662,7.151031,3.02672,1.675492,0.570387,-1.861403,1.022923,21.40,1,WALK
1759223402.72619,6.229713,9.628881,8.458714,0.142039,-2.998304,1.822309,21.42,1,WALK
1759223402.74660,7.231088,15.686211,5.17372,0.229591,-2.214209,2.485989,21.44,1,WALK
1759223402.76660,4.10007,9.8686,-4.430321,-1.111151,2.133577,0.366019,21.46,1,WALK
1759223402.78661,0.025738,11.501296,-4.213496,-1.062836,0.086134,0.010559,21.48,1,WALK
1759223402.80660,1.956362,9.36881,-0.27249,0.130855,-2.579948,0.843516,21.50,1,WALK
1759223402.82625,3.042132,8.068011,4.323629,-0.015339,-2.75479,1.316133,21.52,1,WALK
1759223402.84603,2.445976,8.877849,3.023428,-0.353361,-1.415585,0.834391,21.54,1,WALK
1759223402.86660,3.375076,11.394604,3.547608,-0.704828,-0.048276,1.042148,21.56,1,WALK
1759223402.88660,1.246332,12.324153,1.336713,-1.280144,1.903675,1.421953,21.58,1,WALK
1759223402.90571,-0.533458,11.492617,1.230769,-1.281607,2.803927,1.358359,21.60,1,WALK
1759223402.92658,-1.423353,8.523956,1.11884,-1.227532,1.216165,1.344744,21.62,1,WALK
1759223402.94660,-2.517054,6.871658,2.096423,-1.186539,-1.060289,1.088901,21.64,1,WALK
1759223402.96586,-2.247557,7.652916,1.590947,-1.346841,-1.541077,0.642186,21.66,1,WALK
1759223402.98648,-0.830938,8.092102,-0.830788,-1.205787,-0.683304,0.416906,21.68,1,WALK
1759223403.00667,1.050306,8.197148,-1.398812,-0.876404,-0.322571,0.475817,21.70,1,WALK
1759223403.02658,1.174206,8.30773,-1.31726,-0.650899,-0.666187,0.653565,21.72,1,WALK
1759223403.04660,-0.347159,8.768165,-0.819864,-0.493661,-0.572031,0.754008,21.74,1,WALK
1759223403.06661,-0.656161,8.97661,0.97444,-0.566573,-0.369305,0.821334,21.76,1,WALK
1759223403.08660,-0.742951,9.416545,0.703746,-0.734912,0.133732,0.920086,21.78,1,WALK
1759223403.10661,-0.230442,9.289203,0.157868,-0.608548,0.331587,0.987639,21.80,1,WALK
1759223403.12658,0.458939,9.885808,0.93329,-0.374335,-0.25269,0.96508,21.82,1,WALK
1759223403.14661,1.580921,10.509647,1.564012,-0.321874,-0.840746,0.711177,21.84,1,WALK
1759223403.16660,2.752284,10.676793,0.936133,-0.343285,-0.794455,0.443279,21.86,1,WALK
1759223403.18660,3.702783,13.995755,-0.801758,-0.403003,-0.92756,0.412679,21.88,1,WALK
1759223403.20660,0.67726,15.268871,-4.194342,0.159142,-1.173568,0.493944,21.90,1,WALK
1759223403.22657,-4.00954,12.541128,-3.266739,1.160354,-1.345528,0.011673,21.92,1,WALK
1759223403.24660,-3.089568,12.725032,-1.57748,2.096906,-1.012963,-0.700841,21.94,1,WALK
1759223403.26660,-2.187851,11.112537,-2.073379,2.931477,-0.524622,-1.415306,21.96,1,WALK
1759223403.28627,-2.57661,9.524134,-2.989909,3.297435,0.049436,-2.179215,21.98,1,WALK
1759223403.30566,-2.297985,10.414328,-2.175282,3.058232,0.710089,-3.12083,22.00,1,WALK
1759223403.32632,-0.422128,15.090354,0.651522,2.396457,1.195924,-3.318132,22.02,1,WALK
1759223403.34659,2.562843,18.115128,3.045275,1.90067,0.565827,-2.465754,22.04,1,WALK
1759223403.36642,2.587533,17.25127,6.747459,0.863405,-0.150948,-1.65034,22.06,1,WALK
1759223403.38660,0.134375,12.633005,6.847866,-0.410257,-1.395012,-1.530347,22.08,1,WALK
1759223403.40660,-3.316269,9.678859,-0.311545,-0.108858,-3.002812,-1.978344,22.10,1,WALK
1759223403.42658,-1.924938,10.905738,-6.753893,0.088643,0.699794,-2.218458,22.12,1,WALK
1759223403.44660,3.441515,11.602451,-1.25097,0.40266,2.456609,-1.604918,22.14,1,WALK
1759223403.46660,4.623353,7.037756,1.356465,0.855057,2.781564,-1.475725,22.16,1,WALK
1759223403.48660,4.626346,4.313902,0.8673,1.021519,2.806157,-1.428829,22.18,1,WALK
1759223403.50661,3.008614,3.928137,0.584784,0.249765,1.769242,-1.237774,22.20,1,WALK
1759223403.52659,2.814085,4.693383,0.161459,-0.318744,0.912248,-1.020268,22.22,1,WALK
1759223403.54661,2.737919,5.815815,-0.162656,-0.568899,0.982813,-0.728388,22.24,1,WALK
1759223403.56660,2.881272,6.132448,0.682048,-0.673194,1.008784,-0.279633,22.26,1,WALK
1759223403.58606,2.910302,5.467459,0.267552,-0.710723,0.959399,0.223931,22.28,1,WALK
1759223403.60661,2.713229,4.209904,0.005686,-0.869039,0.946544,0.734873,22.30,1,WALK
1759223403.62640,2.323273,3.798102,-0.464475,-1.167269,0.651757,1.122542,22.32,1,WALK
1759223403.64580,1.836502,4.615722,-2.078017,-1.25508,0.671362,1.260719,22.34,1,WALK
1759223403.66660,-0.825251,9.776573,-4.913351,-1.584262,0.901948,1.906596,22.36,1,WALK
1759223403.68659,-7.669825,17.669358,-5.737854,-1.180883,-0.41384,0.829379,22.38,1,WALK
1759223403.70596,-12.6969,23.390602,-5.503372,-0.725588,-1.333349,-0.488517,22.40,1,WALK
1759223403.72620,-11.55726,24.182035,-8.142081,0.431992,-0.637866,-1.881388,22.42,1,WALK
1759223403.74571,-2.144307,11.49127,-6.450279,1.385412,-1.494282,-0.58755,22.44,1,WALK
1759223403.76611,4.961833,8.681076,-1.568052,0.744456,-1.494779,0.760125,22.46,1,WALK
1759223403.78662,6.773346,11.950358,9.649381,0.038124,-3.38072,1.435286,22.48,1,WALK
1759223403.80661,7.766641,15.202432,4.920384,-0.27661,-2.261788,1.697716,22.50,1,WALK
1759223403.82658,2.802114,7.520187,-4.913351,-1.015541,0.111529,-0.096294,22.52,1,WALK
1759223403.84618,1.896507,5.796661,-2.218527,-0.92507,-1.136167,0.249773,22.54,1,WALK
1759223403.86661,4.31914,6.296002,3.028067,-0.547978,-2.308934,1.262772,22.56,1,WALK
1759223403.88665,3.364452,9.295937,3.862296,-0.021812,-2.619475,1.476157,22.58,1,WALK
1759223403.90661,3.148824,12.124536,1.270723,0.13855,-0.977984,1.539584,22.60,1,WALK
1759223403.92658,1.781885,14.078804,-0.077363,-0.770584,2.443781,1.744304,22.62,1,WALK
1759223403.94573,-0.290896,11.296592,1.049259,-1.29172,3.654537,1.47439,22.64,1,WALK
1759223403.96619,-0.818218,7.867047,0.842759,-1.421517,2.533239,1.481747,22.66,1,WALK
1759223403.98661,-2.862268,5.420173,1.026514,-1.216273,-0.183784,1.428307,22.68,1,WALK
1759223404.00660,-5.250634,7.751826,2.349759,-1.14343,-1.15501,0.744647,22.70,1,WALK
1759223404.02618,-4.159776,9.916484,-0.535553,-1.033928,-1.202327,0.579298,22.72,1,WALK
1759223404.04578,-1.56476,9.46383,-3.449446,-0.786121,-0.171546,0.265711,22.74,1,WALK
1759223404.06661,0.52029,10.412832,-2.177227,-0.566442,-0.111091,0.330851,22.76,1,WALK
1759223404.08665,1.332224,10.186131,0.697012,-0.52677,-0.332187,0.413342,22.78,1,WALK
1759223404.10661,1.64347,9.40622,1.480514,-0.53238,0.024652,0.593445,22.80,1,WALK
1759223404.12619,1.847426,9.316886,0.496198,-0.614987,0.571361,0.841688,22.82,1,WALK
1759223404.14569,2.591574,10.181492,0.256778,-0.455606,0.542916,1.043387,22.84,1,WALK
1759223404.16662,1.63943,11.787553,0.698957,-0.160819,0.22816,1.194538,22.86,1,WALK
1759223404.18661,-1.351078,11.004349,0.593912,0.031925,0.274577,0.931377,22.88,1,WALK
1759223404.20661,-1.835156,9.147796,-0.799065,0.228394,0.347706,0.375753,22.90,1,WALK
1759223404.22659,-1.212663,10.565013,-2.035221,0.37702,-0.004673,-0.086686,22.92,1,WALK
1759223404.24564,-0.960673,11.449072,-2.322376,0.764826,-0.313495,-0.250344,22.94,1,WALK
1759223404.26661,-2.380136,13.719224,-2.874688,1.447053,-0.308241,-0.488013,22.96,1,WALK
1759223404.28660,-1.416021,11.956942,-1.956212,2.400363,-0.33112,-0.799493,22.98,1,WALK
1759223404.30661,-2.182315,11.062708,-1.547103,2.982297,-0.199171,-1.393513,23.00,1,WALK
1759223404.32617,-0.818817,10.97113,-1.889923,2.989553,-0.483552,-2.17192,23.02,1,WALK
1759223404.34597,0.170587,13.727155,-0.798317,2.554564,0.05591,-2.49504,23.04,1,WALK
1759223404.36601,2.883517,15.283536,2.06874,1.88404,0.118027,-2.028819,23.06,1,WALK
1759223404.38660,3.491045,16.312294,5.391892,0.936432,-0.149115,-1.445719,23.08,1,WALK
1759223404.40597,3.160795,12.347197,6.02441,0.152947,-1.204229,-1.442572,23.10,1,WALK
1759223404.42641,0.286257,9.260323,1.052401,-0.51237,-2.419861,-1.870292,23.12,1,WALK
1759223404.44595,-1.661426,9.542091,-5.677849,-0.579131,-0.364748,-2.086716,23.14,1,WALK
1759223404.46661,0.326659,11.091887,-3.444358,-0.190928,1.70205,-1.770849,23.16,1,WALK
1759223404.48661,1.270124,9.52189,-0.884508,0.140564,2.349571,-1.536493,23.18,1,WALK
1759223404.50661,3.522619,7.323564,0.999729,0.415813,2.796367,-1.36585,23.20,1,WALK
1759223404.52659,4.514866,5.064634,2.857629,0.533552,2.176807,-1.392796,23.22,1,WALK
1759223404.54661,3.855712,4.03827,1.255459,0.286722,1.464249,-1.037601,23.24,1,WALK
1759223404.56658,3.970185,3.288586,0.343418,-0.365912,0.835383,-0.653651,23.26,1,WALK
1759223404.58661,4.291756,3.93098,0.008679,-0.770694,0.562896,-0.315072,23.28,1,WALK
1759223404.60661,3.941454,5.096058,-0.35928,-0.89487,0.468787,0.094095,23.30,1,WALK
1759223404.62659,3.454085,5.48347,-0.945111,-1.014453,0.477795,0.464763,23.32,1,WALK
1759223404.64576,3.73675,5.623082,-1.245135,-1.281263,0.5916,0.956858,23.34,1,WALK
1759223404.66565,3.061585,6.429479,-3.02657,-1.365506,0.842704,1.504389,23.36,1,WALK
1759223404.68662,0.782156,9.665093,-4.989816,-1.44034,0.883634,2.105733,23.38,1,WALK
1759223404.70662,-8.949077,17.45358,-7.054366,-0.902174,-0.840803,0.8157,23.40,1,WALK
1759223404.72659,-17.414525,29.723415,-4.314202,-0.345094,-1.799461,-2.261686,23.42,1,WALK
1759223404.74587,-8.3616,17.954717,-6.988824,0.908992,-1.636969,-2.359812,23.44,1,WALK
1759223404.76609,2.587982,8.770559,-6.923133,1.278018,-1.499599,0.093929,23.46,1,WALK
1759223404.78625,6.530185,9.61272,6.230162,0.588967,-3.03684,1.066795,23.48,1,WALK
1759223404.80661,7.990349,10.846033,8.064868,0.316439,-3.149627,1.777721,23.50,1,WALK
1759223404.82565,7.201609,8.544457,-5.476437,-0.497939,0.666879,0.959837,23.52,1,WALK
1759223404.84622,2.810045,5.328146,-1.906682,-0.876056,-0.241835,0.5867,23.54,1,WALK
1759223404.86638,3.232621,7.037307,4.15379,-0.771037,-1.966627,1.429235,23.56,1,WALK
1759223404.88661,3.850774,11.295843,4.269011,-0.264151,-2.451964,1.787523,23.58,1,WALK
1759223404.90664,2.821417,13.708002,0.881066,0.247052,-1.156626,1.172542,23.60,1,WALK
1759223404.92659,2.29993,14.067132,-0.215777,-0.7092,1.526643,1.223899,23.62,1,WALK
1759223404.94586,0.110732,10.883741,0.752827,-1.465548,1.956813,0.971366,23.64,1,WALK
1759223404.96641,-0.15697,8.26239,1.396867,-0.989487,-0.382397,0.737543,23.66,1,WALK
1759223404.98662,-0.636558,7.778013,2.70874,-0.452842,-1.911491,0.57519,23.68,1,WALK
1759223405.00653,-0.602441,8.463653,3.624372,-1.00277,-1.619475,0.599615,23.70,1,WALK
1759223405.02659,-0.399233,9.329755,1.551443,-1.519877,-0.07378,0.880919,23.72,1,WALK
1759223405.04612,-0.299874,8.554632,0.995838,-1.510346,0.623851,1.122877,23.74,1,WALK
1759223405.06661,0.285209,7.165247,-1.079336,-1.206777,0.538018,1.192236,23.76,1,WALK
1759223405.08657,1.450288,8.256704,-0.620846,-1.116617,-0.056799,1.176542,23.78,1,WALK
1759223405.10661,1.195604,9.432855,-1.543362,-0.86071,-0.144576,1.221318,23.80,1,WALK
1759223405.12620,-1.272967,10.435726,-1.130063,-0.624292,-0.340773,1.079324,23.82,1,WALK
1759223405.14580,-1.886332,10.825981,-0.551115,-0.434509,-0.330562,0.939916,23.84,1,WALK
1759223405.16662,-1.598728,10.526856,0.229544,-0.333971,0.039803,0.834926,23.86,1,WALK
1759223405.18663,-1.728165,10.704775,0.169689,-0.15286,0.326334,0.816763,23.88,1,WALK
1759223405.20664,-1.51942,10.480468,-0.035015,-0.190498,0.217223,0.701065,23.90,1,WALK
1759223405.22659,1.172261,10.474034,-1.458817,0.179027,0.063222,0.421113,23.92,1,WALK
1759223405.24585,0.697611,9.981127,-1.52376,0.46156,0.38313,0.209987,23.94,1,WALK
1759223405.26661,-1.379659,12.480973,-1.804031,0.896042,0.469409,0.042701,23.96,1,WALK
1759223405.28663,-1.624466,13.448979,-0.767491,1.615361,-0.153088,-0.416691,23.98,1,WALK
1759223405.30627,-1.180042,12.44087,-1.017087,2.455392,-0.425911,-0.958532,24.00,1,WALK
1759223405.32619,-0.248847,11.186009,-2.264765,2.97726,-0.500398,-1.51335,24.02,1,WALK
1759223405.34641,1.964293,12.059294,-2.330306,3.162691,-0.68968,-2.051178,24.04,1,WALK
1759223405.36655,2.905962,13.748104,2.141015,2.318423,-0.801798,-2.36734,24.06,1,WALK
1759223405.38646,2.896236,14.258069,2.570325,1.641931,-0.547885,-2.267827,24.08,1,WALK
1759223405.40662,2.686294,13.962086,5.203648,0.913173,-0.706854,-2.015743,24.10,1,WALK
1759223405.42589,2.908356,11.17733,4.636372,0.674895,-2.281094,-1.755405,24.12,1,WALK
1759223405.44598,0.076016,10.180594,0.262764,0.098273,-2.972856,-1.787687,24.14,1,WALK
1759223405.46579,-1.894412,12.370391,-3.857209,-0.648759,-1.039608,-1.821211,24.16,1,WALK
1759223405.48662,-0.551564,12.553248,-2.957138,-0.538161,1.174152,-1.784149,24.18,1,WALK
1759223405.50662,1.525256,10.494085,-0.13213,-0.071452,2.376404,-1.406798,24.20,1,WALK
1759223405.52575,3.193266,6.555474,1.533935,0.33206,2.658796,-1.261804,24.22,1,WALK
1759223405.54662,3.808576,4.156334,1.973271,0.81785,1.934922,-1.170264,24.24,1,WALK
1759223405.56662,4.569633,4.067749,0.507571,0.355391,1.668152,-1.041294,24.26,1,WALK
1759223405.58661,4.31495,4.305672,0.765097,-0.2652,1.146136,-0.654599,24.28,1,WALK
1759223405.60667,4.429872,4.866963,0.21473,-0.699215,1.006697,-0.277735,24.30,1,WALK
1759223405.62619,4.300585,4.78571,-0.43784,-0.753969,1.143566,0.147324,24.32,1,WALK
1759223405.64659,3.897311,4.273949,-0.565181,-0.922839,0.891645,0.719685,24.34,1,WALK
1759223405.66660,3.509451,4.445883,-1.627608,-1.244281,0.748873,1.167268,24.36,1,WALK
1759223405.68660,2.354847,7.530363,-4.636671,-1.105305,1.531313,1.658877,24.38,1,WALK
1759223405.70662,0.94541,9.704597,-4.642956,-1.087244,1.697657,1.846039,24.40,1,WALK
1759223405.72620,-4.851401,14.142848,-3.485359,-1.128484,0.499987,1.275702,24.42,1,WALK
1759223405.74663,-11.088146,20.679019,-4.587889,-0.356783,-1.998246,-0.638525,24.44,1,WALK
1759223405.76662,-10.867581,18.742858,-6.498611,0.212976,-1.213655,-2.150483,24.46,1,WALK
1759223405.78662,-2.923171,11.4377,-4.398897,0.852191,-1.377265,-1.086438,24.48,1,WALK
1759223405.80661,3.775506,11.741913,-1.434725,0.51542,-1.55793,0.602183,24.50,1,WALK
1759223405.82660,4.722712,10.555885,6.364835,-0.113764,-2.582451,1.373168,24.52,1,WALK
1759223405.84662,5.549909,12.108226,5.535394,-0.127397,-3.051768,1.961714,24.54,1,WALK
1759223405.86662,3.486706,8.520964,-5.282956,-0.530208,0.042608,0.697254,24.56,1,WALK
1759223405.88662,2.767847,10.484508,-2.46932,-0.445169,0.236121,0.469812,24.58,1,WALK
1759223405.90662,2.49416,10.574291,1.25097,0.040962,-0.491845,1.130967,24.60,1,WALK
1759223405.92620,2.041506,10.064625,2.56434,0.267553,-0.600592,1.435686,24.62,1,WALK
1759223405.94612,1.070358,9.265411,1.217601,0.203069,0.608914,0.820547,24.64,1,WALK
1759223405.96662,2.075324,10.077195,1.780089,-0.727454,1.793242,0.545123,24.66,1,WALK
1759223405.98662,1.559224,10.485406,1.810765,-1.207704,1.767708,0.867723,24.68,1,WALK
1759223406.00619,0.477344,9.004742,2.781015,-0.895572,0.523245,0.746446,24.70,1,WALK
1759223406.02620,0.084246,7.422175,2.916736,-0.734793,-1.010465,0.510785,24.72,1,WALK
1759223406.04662,0.849792,7.752874,1.068861,-1.197327,-0.910103,0.509104,24.74,1,WALK
1759223406.06649,1.598429,8.461408,-0.089334,-1.348002,-0.042123,0.525126,24.76,1,WALK
1759223406.08664,1.704672,8.698584,1.396119,-1.197275,-0.425605,0.690191,24.78,1,WALK
1759223406.10661,1.056591,8.219444,0.798466,-1.07222,-0.625497,0.773536,24.80,1,WALK
1759223406.12659,0.373495,8.259996,0.298377,-1.066949,-0.232572,0.70547,24.82,1,WALK
1759223406.14660,1.091008,8.060379,-0.204255,-1.13275,-0.047056,0.739573,24.84,1,WALK
1759223406.16660,1.281796,9.251195,-0.902764,-0.9081,-0.451614,0.890654,24.86,1,WALK
1759223406.18661,0.952593,10.263943,-0.240168,-0.647274,-0.462369,0.975626,24.88,1,WALK
1759223406.20661,0.162357,10.14094,0.214281,-0.604622,-0.181106,1.005383,24.90,1,WALK
1759223406.22660,-0.960075,10.158598,-0.511761,-0.417687,-0.220247,0.86465,24.92,1,WALK
1759223406.24661,-1.566107,11.734132,-0.959476,-0.060573,-0.318489,0.679065,24.94,1,WALK
1759223406.26661,-1.31292,11.34283,0.965462,0.043081,-0.206898,0.60131,24.96,1,WALK
1759223406.28661,-0.42946,10.829124,0.822708,0.001958,0.066197,0.431074,24.98,1,WALK
1759223406.30662,0.525378,10.386795,-1.266383,0.314507,0.015516,0.112845,25.00,1,WALK
1759223406.32660,-0.256329,12.728025,-2.430564,0.614692,0.213295,-0.081792,25.02,1,WALK
1759223406.34660,-1.417667,14.528614,-2.772785,1.315296,0.034598,-0.354272,25.04,1,WALK
1759223406.36662,-3.400664,14.009222,-1.742231,2.243126,-0.306469,-0.933177,25.06,1,WALK
1759223406.38662,-3.508852,11.909208,-1.195455,2.720058,-0.143854,-1.349022,25.08,1,WALK
1759223406.40645,-2.000804,10.684424,-1.836053,3.075478,-0.238288,-1.928473,25.10,1,WALK
1759223406.42660,1.408389,13.066954,-1.163283,2.675318,-0.253434,-2.381916,25.12,1,WALK
1759223406.44662,3.525612,16.035914,2.452111,1.873088,-0.462949,-2.15568,25.14,1,WALK
1759223406.46662,2.63422,14.42282,5.85921,0.920242,-0.411251,-2.066898,25.16,1,WALK
1759223406.48662,4.250007,11.814637,5.322759,0.340708,-1.871975,-1.786976,25.18,1,WALK
1759223406.50663,1.693748,9.704448,-0.383671,0.212784,-3.013499,-1.743361,25.20,1,WALK
1759223406.52587,0.016759,11.676671,-5.171775,0.136859,-0.488961,-1.559246,25.22,1,WALK
1759223406.54609,-0.316633,12.379968,-1.332523,0.049959,1.683995,-1.484026,25.24,1,WALK
1759223406.56662,-0.014365,10.646566,1.163133,0.217385,2.11008,-1.478304,25.26,1,WALK
1759223406.58667,0.835427,7.792677,1.572093,0.868827,2.275539,-1.398889,25.28,1,WALK
1759223406.60665,2.829348,5.123442,2.181417,1.13164,1.870165,-1.238941,25.30,1,WALK
1759223406.62620,4.644602,3.798401,0.879121,0.528207,1.709749,-1.139672,25.32,1,WALK
1759223406.64663,5.199757,3.983054,1.093851,-0.156909,1.26775,-0.791267,25.34,1,WALK
1759223406.66662,4.514118,4.428824,1.223587,-0.612863,0.91472,-0.432995,25.36,1,WALK
1759223406.68662,3.412486,4.747852,0.871489,-0.795268,0.76033,-0.043516,25.38,1,WALK
1759223406.70665,2.709787,4.464288,0.229694,-0.993335,0.380726,0.512168,25.40,1,WALK
1759223406.72621,3.102137,3.976021,-0.410905,-1.551712,0.109842,1.048332,25.42,1,WALK
1759223406.74662,2.209399,4.906916,-3.144185,-1.676001,0.598679,1.508846,25.44,1,WALK
1759223406.76662,1.74268,9.448418,-4.87235,-1.27512,1.226037,2.331519,25.46,1,WALK
1759223406.78662,-5.105036,17.47019,-9.23264,-0.048854,0.816888,1.737463,25.48,1,WALK
1759223406.80662,-17.401955,29.45721,-4.333355,0.018208,-1.405044,-1.883469,25.50,1,WALK
1759223406.82610,-5.775413,19.62991,-7.193828,0.413377,-1.102639,-2.410679,25.52,1,WALK
1759223406.84663,0.434697,8.439112,-5.872977,0.903633,-1.860815,-0.491604,25.54,1,WALK
1759223406.86663,7.732822,9.781511,-1.876456,0.571531,-1.790469,1.185204,25.56,1,WALK
1759223406.88633,5.807435,9.289353,6.179285,0.321049,-2.179375,1.365502,25.58,1,WALK
1759223406.90663,4.070292,9.014169,5.979219,-0.174452,-0.821838,1.09828,25.60,1,WALK
1759223406.92660,0.196025,6.175694,1.580323,-0.405632,-0.326966,0.506804,25.62,1,WALK
1759223406.94662,0.388908,6.716334,-0.490512,-0.942942,-1.419609,0.658972,25.64,1,WALK
1759223406.96662,1.001824,10.183437,-1.032499,-0.830496,-1.83271,1.263738,25.66,1,WALK
1759223406.98663,1.978808,11.874642,-1.275511,-0.002162,-0.569637,1.625917,25.68,1,WALK
1759223407.00663,1.726968,11.678916,-0.121057,0.394867,0.95648,1.174615,25.70,1,WALK
1759223407.02620,2.324022,10.310629,1.883638,-0.234701,1.794073,0.762403,25.72,1,WALK
1759223407.04663,2.005892,10.16982,2.095525,-0.849944,1.682124,0.949809,25.74,1,WALK
1759223407.06662,0.874931,9.06759,1.940949,-0.74777,1.077712,0.881406,25.76,1,WALK
1759223407.08667,0.852934,8.690054,3.557335,-0.989464,-0.114197,0.852821,25.78,1,WALK
1759223407.10661,0.337283,8.771607,2.530821,-1.34934,-0.743664,0.802125,25.80,1,WALK
1759223407.12621,0.104447,9.406818,0.942567,-1.354828,-0.300375,0.629945,25.82,1,WALK
1759223407.14663,0.269946,9.099762,0.650026,-1.226814,0.28332,0.645251,25.84,1,WALK
1759223407.16663,0.280571,8.078485,0.249745,-1.172066,0.30164,0.727484,25.86,1,WALK
1759223407.18665,-0.254982,7.549666,-1.379659,-0.992373,0.240247,0.717321,25.88,1,WALK
1759223407.20663,-0.533009,8.512883,-1.488445,-0.902952,0.087146,0.52106,25.90,1,WALK
1759223407.22619,0.638354,10.226084,-1.388188,-0.664775,-0.034761,0.43878,25.92,1,WALK
1759223407.24663,1.70108,10.915465,-0.312443,-0.367246,-0.205026,0.620324,25.94,1,WALK
1759223407.26660,1.331775,10.564415,0.283264,-0.298042,0.131901,0.909855,25.96,1,WALK
1759223407.28671,0.127491,10.864887,0.290297,-0.286196,0.568857,0.916525,25.98,1,WALK
1759223407.30663,-1.22209,10.828824,-0.246004,0.016454,0.486939,0.74712,26.00,1,WALK
1759223407.32660,-2.193388,10.273519,0.055216,0.262696,0.297096,0.501452,26.02,1,WALK
1759223407.34663,-1.788319,9.778518,1.111059,0.226971,0.643199,0.299362,26.04,1,WALK
1759223407.36638,-0.571167,10.495881,0.871489,0.085873,0.566694,0.097905,26.06,1,WALK
1759223407.38663,0.255431,12.254123,-1.23855,0.322509,0.214338,0.012754,26.08,1,WALK
1759223407.40663,-0.464475,13.971214,-1.88274,0.852233,-0.204164,-0.260124,26.10,1,WALK
1759223407.42648,-0.687286,13.41157,-2.184559,1.65503,-0.266627,-0.62202,26.12,1,WALK
1759223407.44663,-0.859818,12.727127,-2.816479,2.46145,-0.439138,-1.017529,26.14,1,WALK
1759223407.46663,0.490811,9.219023,-3.263596,2.933855,-0.369972,-1.435173,26.16,1,WALK
1759223407.48663,1.847875,9.700258,-2.598457,2.921289,-0.212176,-1.905987,26.18,1,WALK
1759223407.50663,2.48159,12.463166,0.13632,2.339558,0.276905,-2.209387,26.20,1,WALK
1759223407.52621,3.586664,14.468161,4.840328,1.614831,-0.629216,-1.981665,26.22,1,WALK
1759223407.54663,2.538452,13.240983,7.381024,0.852683,-1.940784,-1.839691,26.24,1,WALK
1759223407.56663,2.204012,11.323826,5.180155,-0.093321,-3.414521,-1.673181,26.26,1,WALK
1759223407.58662,-0.628029,10.746673,-2.463634,-0.471102,-3.412287,-1.770429,26.28,1,WALK
1759223407.60662,-1.558027,11.967267,-7.654861,-0.251034,0.195926,-1.868478,26.30,1,WALK
1759223407.62660,-0.287903,11.878832,-1.474828,-0.119216,1.903982,-1.617867,26.32,1,WALK
1759223407.64661,0.308403,9.562591,0.218172,0.194777,2.127153,-1.359795,26.34,1,WALK
1759223407.66622,1.136049,8.367884,-0.100108,0.518537,2.206574,-1.227956,26.36,1,WALK
1759223407.68663,2.731485,6.06152,0.789787,0.91634,2.099885,-1.033936,26.38,1,WALK
1759223407.70670,4.358494,4.742315,0.823905,0.488725,1.721406,-0.955681,26.40,1,WALK
1759223407.72621,4.867412,4.638766,0.823905,-0.085941,1.245582,-0.617754,26.42,1,WALK
1759223407.74663,4.035277,4.944176,0.650175,-0.4785,0.804856,-0.296303,26.44,1,WALK
1759223407.76663,3.322853,5.050269,0.554407,-0.744293,0.483271,0.003882,26.46,1,WALK
1759223407.78667,3.112612,5.048324,-0.057012,-0.915968,0.238943,0.40857,26.48,1,WALK
1759223407.80663,3.486107,5.183896,-1.152359,-1.221238,0.099755,0.951822,26.50,1,WALK
1759223407.82661,3.579481,5.024831,-1.315913,-1.623482,0.024212,1.524023,26.52,1,WALK
1759223407.84574,3.084031,6.621464,-2.984522,-1.617936,0.40516,2.175762,26.54,1,WALK
1759223407.86663,0.253785,12.697798,-4.321833,-1.137704,0.32652,2.535206,26.56,1,WALK
1759223407.88663,-15.573085,23.961918,-7.874978,-0.224011,-0.669562,-0.483996,26.58,1,WALK
1759223407.90670,-13.719973,25.892692,-6.524798,-0.214632,-1.158298,-2.822397,26.60,1,WALK
1759223407.92622,-4.64116,9.48448,-6.564302,0.72956,-2.107595,-1.755505,26.62,1,WALK
1759223407.94663,4.236689,6.613384,-4.277092,0.647026,-1.993627,0.466534,26.64,1,WALK
1759223407.96663,6.543802,10.028712,3.602226,0.37288,-2.4893,1.305617,26.66,1,WALK
1759223407.98605,5.81806,12.908189,6.145916,0.277091,-1.445368,1.774623,26.68,1,WALK
1759223408.00663,2.909703,10.833613,1.797896,-0.366928,1.295654,0.822696,26.70,1,WALK
1759223408.02622,0.881814,8.355165,-0.66484,-0.932765,1.018766,0.277764,26.72,1,WALK
1759223408.04663,-0.191985,9.197775,-0.647482,-0.583332,-0.786503,0.454023,26.74,1,WALK
1759223408.06663,1.528847,7.417686,-0.128239,-0.051886,-1.48151,0.91216,26.76,1,WALK
1759223408.08664,2.756624,8.293814,1.046565,-0.058052,-0.957841,0.976647,26.78,1,WALK
1759223408.10665,3.56362,10.847679,2.885312,-0.289881,-0.471732,0.760039,26.80,1,WALK
1759223408.12661,3.946841,12.077101,2.84491,-0.751915,0.301449,0.863103,26.82,1,WALK
1759223408.14663,1.689259,10.337265,1.929427,-1.067411,1.087512,0.836898,26.84,1,WALK
1759223408.16664,1.004368,9.13762,1.889175,-1.018791,1.282448,0.709541,26.86,1,WALK
1759223408.18667,0.94152,8.184429,1.161936,-1.115879,0.328699,0.865841,26.88,1,WALK
1759223408.20663,0.78874,8.453028,1.996315,-1.049937,-1.378531,0.773834,26.90,1,WALK
1759223408.22661,0.111929,9.389011,0.174777,-0.921923,-1.553772,0.585026,26.92,1,WALK
1759223408.24664,-0.085144,9.098565,0.161309,-0.927348,-1.1586,0.55039,26.94,1,WALK
1759223408.26663,-0.05387,8.572738,-0.364816,-0.79651,-0.645091,0.663503,26.96,1,WALK
1759223408.28664,-0.564882,8.988282,-1.058686,-0.787262,-0.392434,0.675697,26.98,1,WALK
1759223408.30663,-0.850241,9.876082,-1.466748,-0.587998,-0.252113,0.671008,27.00,1,WALK
1759223408.32661,-0.732177,10.053552,-0.582689,-0.442609,-0.112072,0.77886,27.02,1,WALK
1759223408.34585,-0.796371,9.684546,-0.350451,-0.464237,0.451059,0.928999,27.04,1,WALK
1759223408.36664,-1.266233,9.740809,0.105046,-0.385425,0.621767,0.935345,27.06,1,WALK
1759223408.38664,-2.046444,10.680983,-0.749235,-0.062666,0.375723,0.746293,27.08,1,WALK
1759223408.40663,-2.16376,10.980707,0.78859,0.202702,0.224324,0.49277,27.10,1,WALK
1759223408.42661,-1.022623,10.102184,1.491737,0.042662,0.52964,0.269817,27.12,1,WALK
1759223408.44587,0.609175,9.934291,0.032471,0.119825,0.369552,-0.103027,27.14,1,WALK
1759223408.46663,1.218499,11.73907,-1.61848,0.382008,0.083569,-0.137504,27.16,1,WALK
1759223408.48662,0.0618,13.832201,-2.60549,0.857351,-0.107396,-0.136649,27.18,1,WALK
1759223408.50663,-2.04824,13.995755,-2.290503,1.628252,-0.11883,-0.578718,27.20,1,WALK
1759223408.52661,-2.187253,12.661137,-1.616236,2.245676,-0.070866,-0.853147,27.22,1,WALK
1759223408.54588,-1.545008,10.3639,-3.054103,3.008653,-0.414418,-1.468881,27.24,1,WALK
1759223408.56663,0.915782,9.59207,-2.655768,3.076865,-0.414576,-1.887876,27.26,1,WALK
1759223408.58664,1.981052,12.006772,-0.113575,2.332556,-0.181443,-2.231101,27.28,1,WALK
1759223408.60664,2.926163,14.017602,5.226692,1.359949,-0.991924,-2.242453,27.30,1,WALK
1759223408.62661,3.925294,14.09691,7.3291,0.383454,-2.140608,-1.857219,27.32,1,WALK
1759223408.64591,2.846107,12.15626,2.823063,-0.1893,-3.075187,-1.384466,27.34,1,WALK
1759223408.66663,-1.495029,10.080188,-5.26036,0.125044,-1.939621,-1.639134,27.36,1,WALK
1759223408.68667,-1.323844,12.125135,-4.769399,0.151831,0.77575,-1.6917,27.38,1,WALK
1759223408.70663,0.957082,12.447454,-0.220117,0.198845,1.517902,-1.422394,27.40,1,WALK
1759223408.72661,1.401805,10.791415,-0.286706,0.528449,1.683331,-1.255178,27.42,1,WALK
1759223408.74592,2.678663,7.496395,-0.023044,0.893543,1.861369,-1.217393,27.44,1,WALK
1759223408.76664,4.05069,4.61213,0.454898,0.621805,1.560103,-1.048091,27.46,1,WALK
1759223408.78645,4.011335,3.976769,0.538396,0.219127,1.236144,-0.675056,27.48,1,WALK
1759223408.80664,3.056348,4.698621,0.871639,-0.235985,0.916752,-0.367746,27.50,1,WALK
1759223408.82614,2.431312,5.691017,1.083526,-0.623905,0.621838,-0.111158,27.52,1,WALK
1759223408.84663,2.540248,5.911434,0.661997,-0.798025,0.362858,0.187003,27.54,1,WALK
1759223408.86667,3.093009,5.14903,-0.328455,-1.006097,0.086602,0.596259,27.56,1,WALK
1759223408.88668,3.938312,4.525041,-1.207725,-1.438198,-0.053372,1.190511,27.58,1,WALK
1759223408.90667,3.060388,4.569633,-2.747197,-1.646956,0.143604,1.733215,27.60,1,WALK
1759223408.92661,2.774281,8.55568,-3.908534,-1.289832,0.604442,2.607967,27.62,1,WALK
1759223408.94664,-2.888754,16.068984,-6.586,-0.32569,0.295762,2.371102,27.64,1,WALK
1759223408.96664,-19.02268,25.95554,-5.188534,-0.307158,-0.80267,-1.4491,27.66,1,WALK
1759223408.98663,-8.426093,20.802919,-6.501904,-0.083102,-1.468906,-2.639579,27.68,1,WALK
1759223409.00664,-2.303072,11.351509,-5.450999,0.701733,-2.040901,-1.034133,27.70,1,WALK
1759223409.02662,5.537938,11.539154,-1.951723,0.830698,-1.813656,0.881152,27.72,1,WALK
1759223409.04665,5.055955,10.525509,4.288015,0.755205,-1.922217,1.084253,27.74,1,WALK
1759223409.06664,3.768773,7.518691,5.097704,0.192689,-0.940687,0.977804,27.76,1,WALK
1759223409.08596,1.976563,5.542726,-0.079158,-0.150912,-0.353196,0.722837,27.78,1,WALK
1759223409.10575,1.510442,6.562956,-1.111209,-0.928882,-0.243695,0.854053,27.80,1,WALK
1759223409.12662,2.762609,10.658537,0.042647,-0.629803,-0.577935,1.306657,27.82,1,WALK
1759223409.14663,2.802563,11.237185,0.657358,0.186419,-0.425543,1.419032,27.84,1,WALK
1759223409.16651,2.52693,10.844387,1.381903,0.174508,0.371527,1.160213,27.86,1,WALK
1759223409.18665,2.542044,11.326968,1.021875,-0.352803,1.309311,1.207736,27.88,1,WALK
1759223409.20668,1.069909,10.507702,1.813907,-0.668304,1.581233,1.351329,27.90,1,WALK
1759223409.22661,-0.047435,9.038111,3.858406,-0.858765,1.206507,1.079731,27.92,1,WALK
1759223409.24599,-0.517746,8.722077,3.862446,-1.002694,0.764422,0.752293,27.94,1,WALK
1759223409.26639,-1.072453,9.000403,1.61055,-1.500802,-0.008087,0.624893,27.96,1,WALK
1759223409.28664,-0.207098,9.632173,-2.449867,-1.10161,-0.575651,0.287584,27.98,1,WALK
1759223409.30598,1.32564,9.217527,-1.279102,-0.559917,-1.186343,0.168016,28.00,1,WALK
1759223409.32661,1.720084,8.422652,-0.087538,-0.596348,-1.266948,0.189982,28.02,1,WALK
1759223409.34665,1.842637,8.352023,-0.794127,-0.711487,-0.767288,0.304334,28.04,1,WALK
1759223409.36664,1.728015,8.751256,-0.659154,-0.63384,-0.358645,0.564151,28.06,1,WALK
1759223409.38664,0.080655,8.91885,-0.020351,-0.525884,-0.339102,0.674412,28.08,1,WALK
1759223409.40664,-0.966509,9.132233,-0.445471,-0.482685,-0.250883,0.668449,28.10,1,WALK
1759223409.42662,-0.588974,9.649381,-1.068861,-0.460971,0.228902,0.745215,28.12,1,WALK
1759223409.44578,0.170587,10.203938,-0.504578,-0.417046,0.681693,0.760097,28.14,1,WALK
1759223409.46664,0.584484,10.720936,-0.032322,-0.367438,0.399363,0.788556,28.16,1,WALK
1759223409.48665,-0.1447,10.613945,-1.716493,-0.157684,0.292473,0.662937,28.18,1,WALK
1759223409.50587,-0.549918,10.806229,-1.38325,0.168104,0.364293,0.511647,28.20,1,WALK
1759223409.52661,-0.78036,10.996269,0.285808,0.401143,0.657402,0.327321,28.22,1,WALK
1759223409.54663,-1.183334,11.903522,1.666813,0.467562,0.920345,0.120864,28.24,1,WALK
1759223409.56662,-1.330578,14.2868,1.771709,0.400873,0.911297,-0.075297,28.26,1,WALK
1759223409.58663,-1.252018,14.295778,0.591069,0.797724,0.363169,-0.430826,28.28,1,WALK
1759223409.60663,-0.790087,13.034932,-1.984644,1.32528,-0.218004,-0.915562,28.30,1,WALK
1759223409.62662,0.639102,10.483461,-3.821146,1.902468,-0.206672,-1.171634,28.32,1,WALK
1759223409.64662,1.427992,8.693047,-4.495263,2.432712,-0.006037,-1.271274,28.34,1,WALK
1759223409.66570,1.433828,7.782951,-4.400094,2.593201,-0.019971,-1.403623,28.36,1,WALK
1759223409.68666,1.260996,7.798513,-2.797026,2.675461,-0.306466,-1.91318,28.38,1,WALK
1759223409.70664,2.451513,11.39206,2.891896,1.95424,-0.850693,-2.105722,28.40,1,WALK
1759223409.72662,2.112434,13.058874,6.454768,0.695246,-0.998451,-1.979385,28.42,1,WALK
1759223409.74608,2.265064,12.918514,6.232406,-0.429335,-1.180156,-1.511463,28.44,1,WALK
1759223409.76664,0.723049,12.671312,-1.274912,-0.053146,-2.261223,-1.415758,28.46,1,WALK
1759223409.78664,-0.679205,12.133814,-6.052243,0.71038,-0.269417,-1.723815,28.48,1,WALK
1759223409.80665,2.829797,12.682984,0.336834,0.518139,0.576689,-1.488262,28.50,1,WALK
1759223409.82661,2.278981,9.495105,-0.027384,0.40147,0.397375,-1.502046,28.52,1,WALK
1759223409.84610,2.672079,7.186496,-1.685219,0.359501,1.02414,-1.527314,28.54,1,WALK
1759223409.86664,1.893365,6.156989,-0.827945,0.210069,1.273357,-1.388234,28.56,1,WALK
1759223409.88665,1.931971,5.893327,-0.167444,-0.019131,1.077339,-1.076978,28.58,1,WALK
1759223409.90667,2.173037,6.277896,0.231938,-0.270733,0.945444,-0.718851,28.60,1,WALK
1759223409.92622,3.008763,6.165967,0.390704,-0.517459,0.863115,-0.293983,28.62,1,WALK
1759223409.94664,3.460968,5.345654,0.395343,-0.572653,0.703173,0.148183,28.64,1,WALK
1759223409.96665,3.434033,4.403535,-0.080505,-0.627486,0.507684,0.673276,28.66,1,WALK
1759223409.98664,3.152864,3.670311,-0.485125,-1.024488,0.259275,1.160901,28.68,1,WALK
1759223410.00665,2.079065,4.70311,-1.873164,-1.502513,0.351607,1.569099,28.70,1,WALK
1759223410.02622,1.769465,8.01878,-3.854665,-1.40544,0.608256,2.348182,28.72,1,WALK
1759223410.04614,-4.597017,15.590443,-7.83308,-0.391472,0.772446,1.90322,28.74,1,WALK
1759223410.06664,-18.416349,25.537453,-6.53632,-0.192465,-0.014748,-1.554387,28.76,1,WALK
1759223410.08665,-8.47697,21.711518,-5.729923,-0.104821,-0.277973,-2.361503,28.78,1,WALK
1759223410.10667,-2.778172,9.159467,-3.936367,1.072173,-1.148904,-0.732342,28.80,1,WALK
1759223410.12662,5.537489,9.238177,-1.01155,0.841294,-1.092639,0.84032,28.82,1,WALK
1759223410.14615,6.668001,9.932046,1.534683,0.429082,-0.320474,1.224637,28.84,1,WALK
1759223410.16662,5.1203,10.382156,4.700716,-0.211231,0.223913,0.981576,28.86,1,WALK
1759223410.18666,-0.086042,8.581567,2.638261,-0.444213,-0.598133,0.281647,28.88,1,WALK
1759223410.20667,0.183605,6.545747,-0.00823,-0.473742,-2.813509,0.260714,28.90,1,WALK
1759223410.22662,1.40375,8.39033,-3.536385,-0.817451,-2.6398,1.011541,28.92,1,WALK
1759223410.24666,2.70455,9.592818,-2.529324,-0.588725,-1.022476,1.557298,28.94,1,WALK
1759223410.26665,2.231695,9.556456,-1.233014,0.145082,0.451809,1.330246,28.96,1,WALK
1759223410.28665,2.768146,11.218032,0.18151,0.597769,1.519875,1.228637,28.98,1,WALK
1759223410.30667,1.810316,11.252,1.821239,0.244483,1.757975,1.467341,29.00,1,WALK
1759223410.32662,0.575357,10.31452,3.257012,-0.657739,1.79908,1.337377,29.02,1,WALK
1759223410.34664,-0.607978,9.699958,3.722984,-1.266936,1.564416,0.753568,29.04,1,WALK
1759223410.36665,-0.656909,9.768343,1.530942,-1.268128,1.170012,0.461076,29.06,1,WALK
1759223410.38664,-0.630722,9.513211,-0.823156,-1.176563,-0.295207,0.687782,29.08,1,WALK
1759223410.40665,0.186,8.641272,-1.29242,-0.866981,-0.720169,0.420603,29.10,1,WALK
1759223410.42653,1.12722,9.416395,1.911171,-0.984935,-1.129774,0.288796,29.12,1,WALK
1759223410.44664,1.632247,8.49343,0.437091,-0.898345,-0.530741,0.314821,29.14,1,WALK
1759223410.46665,2.613121,7.751826,0.308253,-1.015128,0.141956,0.576114,29.16,1,WALK
1759223410.48665,1.796549,8.72492,-1.323245,-0.950151,0.407867,0.750466,29.18,1,WALK
1759223410.50665,-0.120907,9.206454,-0.324115,-0.765716,-0.177154,0.775328,29.20,1,WALK
1759223410.52663,-0.338929,8.678981,-0.531513,-0.616416,-0.198392,0.715808,29.22,1,WALK
1759223410.54664,0.103699,9.32751,-0.751181,-0.600487,0.355631,0.77371,29.24,1,WALK
1759223410.56667,0.620098,9.771336,0.165499,-0.500783,0.579314,0.857486,29.26,1,WALK
1759223410.58665,0.436792,10.933272,0.770334,-0.357303,0.321298,0.887616,29.28,1,WALK
1759223410.60665,-0.495749,11.102362,0.087837,-0.203862,0.123271,0.768138,29.30,1,WALK
1759223410.62614,0.1031,10.674099,-1.050755,-0.013558,0.249582,0.505585,29.32,1,WALK
1759223410.64664,0.454749,10.437223,-0.893187,0.354034,0.421917,0.445399,29.34,1,WALK
1759223410.66662,0.140809,10.31452,1.441758,0.183,0.404531,0.282304,29.36,1,WALK
1759223410.68664,0.819266,11.722161,-0.207996,0.168986,-0.079988,0.07824,29.38,1,WALK
1759223410.70663,-0.13213,13.662063,-2.415301,0.738902,-0.513968,-0.091267,29.40,1,WALK
1759223410.72623,-1.006911,13.435362,-2.171541,1.4824,-0.674919,-0.573941,29.42,1,WALK
1759223410.74664,-2.073079,13.11409,-2.04809,2.431257,-0.766837,-1.162394,29.44,1,WALK
1759223410.76665,-2.029535,10.305242,-2.966715,3.000463,-0.327875,-1.59204,29.46,1,WALK
1759223410.78663,-0.921768,9.15842,-2.918681,2.927048,-0.022029,-2.210035,29.48,1,WALK
1759223410.80664,0.425569,12.205042,-1.4247,2.477616,0.340579,-2.552034,29.50,1,WALK
1759223410.82598,2.616563,16.345963,4.30238,1.604087,-0.361833,-2.303984,29.52,1,WALK
1759223410.84618,1.549198,15.167118,9.754426,0.151497,-1.31763,-2.126744,29.54,1,WALK
1759223410.86653,2.104354,12.922255,5.423465,-0.830952,-3.010981,-1.786471,29.56,1,WALK
1759223410.88663,-1.24693,10.976218,-7.974338,0.131114,-2.304377,-1.87456,29.58,1,WALK
1759223410.90665,-1.059734,13.06845,-6.51567,0.351409,1.612299,-1.731426,29.60,1,WALK
1759223410.92624,1.297059,12.386702,1.34629,0.350562,1.727007,-1.370903,29.62,1,WALK
1759223410.94638,2.103306,9.214235,1.426645,0.667276,1.937771,-1.359832,29.64,1,WALK
1759223410.96665,3.152715,6.246472,1.245733,0.928307,2.113581,-1.421465,29.66,1,WALK
1759223410.98665,3.346645,4.2117,0.956932,0.471293,1.967601,-1.418731,29.68,1,WALK
1759223411.00665,3.490746,4.01747,0.266205,-0.026484,1.552464,-1.202502,29.70,1,WALK
1759223411.02663,3.532495,4.541052,0.233285,-0.377397,1.295552,-0.86782,29.72,1,WALK
1759223411.04665,4.062811,5.399374,0.965462,-0.543619,1.030582,-0.374198,29.74,1,WALK
1759223411.06665,3.912874,5.087529,0.841113,-0.570573,0.756967,0.12186,29.76,1,WALK
1759223411.08665,3.470096,4.337096,-0.210989,-0.753237,0.523905,0.659266,29.78,1,WALK
1759223411.10665,3.362656,3.635595,-0.484676,-1.306541,0.233562,1.132394,29.80,1,WALK
1759223411.12663,2.40722,5.29343,-2.61806,-1.579367,0.265206,1.506648,29.82,1,WALK
1759223411.14665,1.278653,9.312846,-5.779004,-1.270326,0.851953,2.125182,29.84,1,WALK
1759223411.16665,-4.079121,15.468039,-6.873903,-0.699881,0.521727,1.877745,29.86,1,WALK
1759223411.18665,-13.92348,23.782952,-4.524143,-0.363145,-1.298555,-0.757162,29.88,1,WALK
1759223411.20665,-9.764602,20.690242,-6.335507,0.065267,-1.245867,-2.2231,29.90,1,WALK
1759223411.22663,-0.824952,14.575301,-4.706701,1.057485,-1.622534,-0.779519,29.92,1,WALK
1759223411.24665,5.392041,16.317233,-1.754351,1.294182,-2.004176,1.074281,29.94,1,WALK
1759223411.26663,3.185036,9.381978,7.414394,0.716061,-2.489579,0.784769,29.96,1,WALK
1759223411.28666,3.866336,4.915595,4.693982,-0.001757,-1.715307,0.495474,29.98,1,WALK
1759223411.30665,2.731634,1.649605,-1.690306,-0.98488,0.084342,0.231966,30.00,1,WALK
1759223411.32663,2.794333,4.119823,-0.020051,-1.305479,-0.084163,0.738944,30.02,1,WALK
1759223411.34665,4.378845,11.175236,2.129493,-0.7462,-1.044261,1.697705,30.04,1,WALK
1759223411.36665,4.091391,15.22413,1.231517,0.46882,-1.333386,2.197053,30.06,1,WALK
1759223411.38665,2.399888,15.085116,-1.48246,0.634585,1.038831,1.540234,30.08,1,WALK
1759223411.40666,1.059584,11.83005,-0.224157,-0.921001,3.548326,1.239118,30.10,1,WALK
1759223411.42657,0.2683,9.168296,0.894983,-1.244245,2.696278,1.035982,30.12,1,WALK
1759223411.44616,-0.114772,7.461829,1.11495,-0.505521,0.262141,0.924864,30.14,1,WALK
1759223411.46635,-1.043124,7.299771,5.755212,-0.778625,-1.655665,0.582114,30.16,1,WALK
1759223411.48669,-1.400309,8.930671,2.625691,-1.195503,-1.29667,0.224723,30.18,1,WALK
1759223411.50577,-0.530615,8.851513,0.295235,-1.36481,-0.530569,0.236179,30.20,1,WALK
1759223411.52645,0.957681,7.896227,-0.9291,-1.289837,0.346586,0.614601,30.22,1,WALK
1759223411.54664,1.815553,8.143428,-1.162086,-0.981049,-0.207348,0.6582,30.24,1,WALK
1759223411.56664,1.15625,8.494478,-1.738939,-0.770125,-0.123374,0.752169,30.26,1,WALK
1759223411.58664,0.73098,8.818294,-0.744746,-0.799931,0.040678,0.776482,30.28,1,WALK
1759223411.60664,0.684891,10.311228,-0.587178,-0.677667,0.063501,0.804241,30.30,1,WALK
1759223411.62663,0.879271,11.271453,0.147543,-0.521753,0.007869,0.937751,30.32,1,WALK
1759223411.64666,0.949301,11.126154,0.138415,-0.491099,0.096559,1.039355,30.34,1,WALK
1759223411.66634,0.554707,9.801113,-0.525677,-0.360062,0.221725,1.066948,30.36,1,WALK
1759223411.68666,-1.173308,10.175507,-1.537227,0.009059,-0.025737,0.873938,30.38,1,WALK
1759223411.70669,-2.224064,10.425401,-0.116717,0.225414,-0.040074,0.52992,30.40,1,WALK
1759223411.72624,-1.471387,10.003723,1.169568,0.220835,0.304111,0.353083,30.42,1,WALK
1759223411.74601,-1.235408,10.500669,-0.286556,0.243479,0.472851,-0.012332,30.44,1,WALK
1759223411.76668,-0.482132,13.814693,-1.737891,0.541789,0.027286,-0.332709,30.46,1,WALK
1759223411.78666,-0.893785,14.04723,-2.582595,1.451415,-0.39439,-0.741495,30.48,1,WALK
1759223411.80570,-1.498172,13.875446,-1.394024,2.161703,-0.368556,-1.116119,30.50,1,WALK
1759223411.82663,-0.192883,11.426178,-2.071284,2.643588,-0.25288,-1.521206,30.52,1,WALK
1759223411.84666,2.166753,11.233145,-2.194735,2.923255,-0.558804,-1.86017,30.54,1,WALK
1759223411.86666,2.500744,12.121843,-0.634463,2.446969,-0.26351,-2.291026,30.56,1,WALK
1759223411.88667,3.605967,14.08045,1.990779,1.751947,-0.128514,-2.187862,30.58,1,WALK
1759223411.90672,2.373103,13.225271,5.619042,0.90244,-0.469734,-2.083064,30.60,1,WALK
1759223411.92623,2.499547,11.450569,6.971017,0.044628,-2.477789,-1.932176,30.62,1,WALK
1759223411.94647,0.686388,10.652551,1.625214,-0.490647,-3.996166,-1.769396,30.64,1,WALK
1759223411.96666,-1.41228,11.277737,-7.044938,-0.429211,-0.958114,-1.805019,30.66,1,WALK
1759223411.98666,-0.705541,12.239757,-4.191798,-0.05044,2.331012,-1.654516,30.68,1,WALK
1759223412.00665,1.018882,10.696545,1.37921,0.327502,2.680799,-1.255566,30.70,1,WALK
1759223412.02623,1.71365,6.801179,2.272397,0.649154,2.285337,-1.19703,30.72,1,WALK
1759223412.04665,2.695123,5.086332,0.889296,0.560951,2.138402,-1.264148,30.74,1,WALK
1759223412.06663,3.515436,4.828506,0.971747,-0.138574,1.552763,-1.017224,30.76,1,WALK
1759223412.08669,3.985149,4.672733,0.771232,-0.51002,1.210268,-0.681291,30.78,1,WALK
1759223412.10665,4.417003,4.895095,0.680552,-0.703228,0.948855,-0.295964,30.80,1,WALK
1759223412.12663,4.246566,5.134066,-0.058508,-0.789855,0.795041,0.10025,30.82,1,WALK
1759223412.14665,3.765331,4.948964,-0.940921,-0.793576,0.731312,0.548924,30.84,1,WALK
1759223412.16666,4.317793,4.3151,-0.659154,-1.018808,0.515725,1.071196,30.86,1,WALK
1759223412.18671,4.215142,5.33054,-1.120786,-1.376998,0.518038,1.612462,30.88,1,WALK
1759223412.20666,3.644424,8.890868,-3.710414,-1.347998,0.993234,2.262086,30.90,1,WALK
1759223412.22664,-4.182521,16.326211,-7.611766,-0.609164,0.770912,1.611019,30.92,1,WALK
1759223412.24566,-19.825636,24.84508,-2.210147,-0.805188,-1.856485,-2.054035,30.94,1,WALK
1759223412.26649,-9.634267,19.808278,-6.393566,0.026292,-1.23323,-2.8198,30.96,1,WALK
1759223412.28666,-3.539678,10.538228,-5.530307,0.989276,-1.377539,-1.01061,30.98,1,WALK
1759223412.30666,4.830003,9.240272,-2.487875,0.659779,-0.865236,0.978361,31.00,1,WALK
1759223412.32663,4.313603,11.954399,5.520281,0.169701,-1.522008,1.591996,31.02,1,WALK
1759223412.34568,5.105635,13.377153,6.166266,-0.075631,-1.329349,2.315602,31.04,1,WALK
1759223412.36646,2.486229,8.686164,-1.129016,-0.16051,0.140568,1.302393,31.06,1,WALK
1759223412.38666,-0.270395,5.030517,-5.21906,-1.03265,1.339575,-0.312725,31.08,1,WALK
1759223412.40666,4.738424,8.408586,-1.321899,-0.431835,-0.530947,0.630325,31.10,1,WALK
1759223412.42663,4.433762,9.328857,1.630002,0.314419,-1.800419,1.310397,31.12,1,WALK
1759223412.44646,3.558382,10.084826,4.855591,0.24553,-2.37657,1.263316,31.14,1,WALK
1759223412.46666,3.677643,11.357195,2.009932,-0.562206,-0.649195,1.049015,31.16,1,WALK
1759223412.48667,2.238429,10.645518,1.361553,-1.179611,1.289329,1.095621,31.18,1,WALK
1759223412.50665,1.06527,9.217676,1.565509,-0.804151,2.085935,0.969351,31.20,1,WALK
1759223412.52664,0.738162,9.00968,2.60549,-0.732166,2.228875,1.124061,31.22,1,WALK
1759223412.54571,-0.778415,9.581745,2.037166,-1.573731,1.441084,1.264274,31.24,1,WALK
1759223412.56666,-2.718915,9.266458,-0.577003,-1.269056,-0.727988,0.667078,31.26,1,WALK
1759223412.58666,-1.309479,8.249521,-0.179415,-0.623953,-1.716341,0.252956,31.28,1,WALK
1759223412.60666,0.4335,8.366238,0.140061,-0.764737,-1.302065,0.227642,31.30,1,WALK
1759223412.62577,0.785747,8.904036,-0.880318,-0.955704,-0.255797,0.405974,31.32,1,WALK
1759223412.64606,0.976834,9.0221,-0.998681,-0.840694,0.064811,0.579971,31.34,1,WALK
1759223412.66666,0.674866,9.646837,-0.457741,-0.537542,-0.402338,0.701165,31.36,1,WALK
1759223412.68670,0.116867,9.761011,-0.867898,-0.420924,-0.040946,0.809097,31.38,1,WALK
1759223412.70666,0.698808,9.988609,-0.621445,-0.397477,0.556098,0.912313,31.40,1,WALK
1759223412.72664,0.498144,10.459519,0.653916,-0.187989,0.358541,1.033441,31.42,1,WALK
1759223412.74621,-1.644817,10.836905,0.936881,0.033111,0.310576,0.769892,31.44,1,WALK
1759223412.76666,-1.586608,11.435006,1.565509,-0.049144,0.423724,0.548365,31.46,1,WALK
1759223412.78666,0.16505,9.948806,0.147243,0.158726,0.400306,0.227938,31.48,1,WALK
1759223412.80665,1.795801,10.271873,0.024241,0.207591,0.031147,-0.064684,31.50,1,WALK
1759223412.82664,1.434426,12.313379,-1.23855,0.346288,-0.072917,-0.131593,31.52,1,WALK
1759223412.84622,-0.058808,13.101969,-2.738967,0.896153,-0.605411,-0.313473,31.54,1,WALK
1759223412.86666,-1.427992,12.306346,-2.528277,1.721731,-0.656954,-0.699518,31.56,1,WALK
1759223412.88670,-2.090737,11.992406,-1.263989,2.274667,-0.128543,-0.996006,31.58,1,WALK
1759223412.90668,-0.741754,9.983821,-1.869273,2.771872,-0.287886,-1.416818,31.60,1,WALK
1759223412.92664,1.151761,10.204836,-1.985541,2.828939,-0.747518,-1.953413,31.62,1,WALK
1759223412.94578,1.957709,12.681937,-0.358532,2.21416,-0.532443,-2.383145,31.64,1,WALK
1759223412.96669,3.594445,14.404714,3.224391,1.445452,-0.870619,-2.133308,31.66,1,WALK
1759223412.98584,3.322853,13.466935,6.60665,0.555888,-1.463599,-1.756838,31.68,1,WALK
1759223413.00593,3.341258,11.797728,5.507861,-0.228255,-2.55553,-1.477538,31.70,1,WALK
1759223413.02664,-0.270395,11.355698,-3.296666,-0.132469,-2.703815,-1.595229,31.72,1,WALK
1759223413.04580,-1.724274,12.106131,-6.471228,0.04357,0.213921,-1.757609,31.74,1,WALK
1759223413.06565,0.835876,11.836334,-1.421857,0.253768,1.737055,-1.509666,31.76,1,WALK
1759223413.08655,1.694047,8.98918,0.908749,0.540843,1.957692,-1.316037,31.78,1,WALK
1759223413.10633,3.594146,5.91682,1.892467,0.752031,1.504893,-1.280421,31.80,1,WALK
1759223413.12664,4.388123,4.621258,0.570119,0.550672,1.359284,-1.200941,31.82,1,WALK
1759223413.14582,4.393659,4.516512,0.074968,0.021721,1.031901,-0.82707,31.84,1,WALK
1759223413.16668,3.59639,4.867262,0.152181,-0.421071,0.836714,-0.510414,31.86,1,WALK
1759223413.18667,2.793884,5.560384,0.467618,-0.628667,0.656981,-0.242283,31.88,1,WALK
1759223413.20666,2.322376,5.549161,0.057311,-0.71788,0.49063,0.076172,31.90,1,WALK
1759223413.22664,2.162413,5.056105,-0.606332,-0.894976,0.302089,0.527539,31.92,1,WALK
1759223413.24621,2.314445,4.729596,-1.336713,-1.18519,0.210527,1.027127,31.94,1,WALK
1759223413.26666,1.513734,6.12766,-3.231723,-1.258614,0.849983,1.471554,31.96,1,WALK
1759223413.28670,-0.7434,9.070583,-4.054431,-1.259269,1.49606,1.7401,31.98,1,WALK
1759223413.30667,-5.83841,13.876494,-4.862923,-0.972144,0.741174,1.245194,32.00,1,WALK
1759223413.32664,-12.438327,21.149779,-3.74079,-0.51538,-1.996406,-0.712423,32.02,1,WALK
1759223413.34666,-8.764125,21.773319,-6.930466,0.076885,-0.977322,-1.801982,32.04,1,WALK
1759223413.36666,-0.894983,13.668198,-5.40491,0.609692,-0.997743,-0.603301,32.06,1,WALK
1759223413.38666,4.226514,9.894487,-3.686771,0.469953,-0.831214,0.888332,32.08,1,WALK
1759223413.40666,5.711667,9.734824,2.219425,0.152081,-1.263263,1.434507,32.10,1,WALK
1759223413.42664,6.536619,11.171794,2.18411,0.334265,-1.009971,1.949896,32.12,1,WALK
1759223413.44586,3.315969,10.42585,1.849371,0.095872,-0.091175,1.167814,32.14,1,WALK
1759223413.46606,0.240767,6.660519,2.179921,-1.093394,-0.785115,0.154461,32.16,1,WALK
1759223413.48666,1.216105,7.354988,1.400907,-0.963976,-1.538015,0.511502,32.18,1,WALK
1759223413.50670,1.334169,7.753173,0.29314,0.041569,-1.444849,0.946285,32.20,1,WALK
1759223413.52583,1.121983,7.823503,-0.079009,0.428504,-1.208248,1.103043,32.22,1,WALK
1759223413.54665,1.620276,10.932523,-0.082001,-0.467611,1.094195,1.253789,32.24,1,WALK
1759223413.56664,1.509095,12.477681,1.107917,-0.71397,1.740802,1.042183,32.26,1,WALK
1759223413.58665,0.729483,10.91756,1.507599,-0.761572,1.477246,0.840522,32.28,1,WALK
1759223413.60664,0.603638,8.816049,1.232864,-0.936289,0.750943,0.65133,32.30,1,WALK
1759223413.62577,0.769437,8.626009,1.236755,-0.892904,0.192438,0.617613,32.32,1,WALK
1759223413.64590,0.237325,8.851663,1.731008,-0.874063,-0.669333,0.484942,32.34,1,WALK
1759223413.66667,-0.2683,9.007884,2.223914,-1.099681,-0.753638,0.260383,32.36,1,WALK
1759223413.68667,0.5369,8.311471,1.023222,-1.191881,-0.450484,0.363878,32.38,1,WALK
1759223413.70667,1.351228,8.131607,-0.78874,-1.023575,-0.013491,0.573093,32.40,1,WALK
1759223413.72664,1.174805,8.966584,-1.396268,-0.976449,0.052456,0.661137,32.42,1,WALK
1759223413.74592,0.373645,10.003723,-1.714398,-0.698259,-0.295102,0.567939,32.44,1,WALK
1759223413.76666,0.994342,9.56289,-0.355988,-0.422089,-0.618344,0.590406,32.46,1,WALK
1759223413.78667,0.922217,9.391555,-0.1239,-0.352194,-0.126098,0.719305,32.48,1,WALK
1759223413.80667,0.889296,9.790639,0.511312,-0.467613,0.532269,0.848263,32.50,1,WALK
1759223413.82664,1.115548,10.267235,1.0322,-0.483214,0.485913,0.970991,32.52,1,WALK
1759223413.84594,-0.183905,10.444705,0.275184,-0.295421,0.032674,0.848757,32.54,1,WALK
1759223413.86667,-1.180641,9.796475,-0.105345,-0.046993,-0.050838,0.590859,32.56,1,WALK
1759223413.88667,-0.777966,9.613169,-0.377087,0.131847,0.03101,0.234016,32.58,1,WALK
1759223413.90667,0.303914,10.687716,-0.149937,0.3052,0.066802,-0.007997,32.60,1,WALK
1759223413.92664,0.325163,12.983456,-0.2273,0.418174,0.190342,-0.264701,32.62,1,WALK
1759223413.94621,-0.603488,14.082844,-1.208174,1.060926,-0.11136,-0.648916,32.64,1,WALK
1759223413.96667,-2.459743,14.509012,-1.030255,1.867392,-0.417057,-1.249307,32.66,1,WALK
1759223413.98667,-1.859397,12.601731,-1.443554,2.255345,-0.772281,-1.423692,32.68,1,WALK
1759223414.00666,0.29299,10.098443,-4.392163,2.809838,-1.221725,-1.74952,32.70,1,WALK
1759223414.02664,1.404349,10.577583,-4.665551,2.980729,-1.080237,-2.14688,32.72,1,WALK
1759223414.04598,2.244265,12.848034,-0.782305,2.502787,-0.206565,-2.352112,32.74,1,WALK
1759223414.06667,2.903867,14.602685,4.913351,1.47524,-0.142783,-2.080494,32.76,1,WALK
1759223414.08667,2.520645,12.949339,7.11437,0.355288,-0.778485,-1.619429,32.78,1,WALK
1759223414.10666,1.273117,10.685771,3.718046,0.169792,-2.647491,-1.368414,32.80,1,WALK
1759223414.12664,-1.480963,10.191668,-0.128389,0.376512,-3.415715,-1.579064,32.82,1,WALK
1759223414.14599,-1.455076,11.952304,-6.657527,-0.054874,0.073821,-1.788586,32.84,1,WALK
1759223414.16668,-0.175375,11.709591,-2.325817,-0.224814,1.828237,-1.762246,32.86,1,WALK
1759223414.18582,0.002245,8.64621,0.383521,-0.014403,2.014251,-1.657581,32.88,1,WALK
1759223414.20667,2.088941,6.212355,-0.062997,0.651688,2.152088,-1.429646,32.90,1,WALK
1759223414.22604,3.88968,4.803217,0.915932,0.680695,1.828866,-1.116917,32.92,1,WALK
1759223414.24601,5.262306,4.718223,0.768539,0.096947,1.398826,-0.810221,32.94,1,WALK
1759223414.26653,4.814291,4.976049,0.461183,-0.316903,1.287525,-0.425441,32.96,1,WALK
1759223414.28667,3.35682,4.85185,0.309151,-0.636697,1.129502,0.025076,32.98,1,WALK
1759223414.30667,2.581099,4.241328,-0.460136,-0.85534,0.759945,0.558413,33.00,1,WALK
1759223414.32665,2.952948,4.540603,-1.02816,-1.129841,0.286634,1.088925,33.02,1,WALK
1759223414.34602,3.443311,5.235072,-0.541538,-1.530737,-0.04765,1.599249,33.04,1,WALK
1759223414.36667,3.714155,6.508488,-2.203114,-1.49601,0.076242,2.113134,33.06,1,WALK
1759223414.38660,3.51813,10.819996,-3.250877,-1.298502,0.438946,2.729065,33.08,1,WALK
1759223414.40668,-7.715464,20.016424,-7.636755,-0.299591,-0.413233,1.011486,33.10,1,WALK
1759223414.42665,-22.760179,29.005005,-4.75668,-0.634876,-1.370455,-3.43851,33.12,1,WALK
1759223414.44668,-8.560618,18.27554,-7.087884,0.524315,-1.669204,-2.832681,33.14,1,WALK
1759223414.46668,-0.764199,9.730933,-6.447435,1.180939,-0.961785,0.046791,33.16,1,WALK
1759223414.48668,7.131429,7.103896,2.953098,0.325163,-0.995386,1.025904,33.18,1,WALK
1759223414.50668,6.771102,9.919926,5.696704,-0.469575,-0.95242,1.571236,33.20,1,WALK
1759223414.52665,7.640197,11.346421,-1.697639,-0.330092,0.353546,1.961967,33.22,1,WALK
1759223414.54668,2.048539,7.862708,-1.911321,-0.246102,0.047869,0.843877,33.24,1,WALK
1759223414.56668,1.370531,8.193557,1.02831,-0.588227,-1.231972,0.631794,33.26,1,WALK
1759223414.58580,2.626439,7.518691,0.995539,-0.512852,-1.284947,0.864109,33.28,1,WALK
1759223414.60667,2.173935,7.615058,1.384597,-0.181152,-0.71777,0.79935,33.30,1,WALK
1759223414.62666,2.93155,9.67871,1.048062,-0.085442,0.361538,1.008877,33.32,1,WALK
1759223414.64668,2.392107,12.545317,1.90339,-0.489341,1.285389,1.536962,33.34,1,WALK
1759223414.66668,0.014515,12.711415,2.123807,-1.000551,1.839034,1.276378,33.36,1,WALK
1759223414.68668,-1.499518,9.449764,1.15206,-1.063816,1.590599,0.659574,33.38,1,WALK
1759223414.70668,-1.237802,6.792949,0.659752,-0.899522,-0.272468,0.659205,33.40,1,WALK
1759223414.72666,-1.92,7.162853,-0.316184,-0.722756,-1.601477,0.533973,33.42,1,WALK
1759223414.74668,-1.755099,9.615114,-1.181987,-0.673876,-1.003091,0.305427,33.44,1,WALK
1759223414.76668,-0.579247,10.014347,1.093701,-0.599352,-0.713508,0.310106,33.46,1,WALK
1759223414.78668,0.381277,9.387066,1.485752,-0.638038,-0.631512,0.340287,33.48,1,WALK
1759223414.80668,1.152808,9.829844,0.708235,-0.934275,-0.240129,0.476329,33.50,1,WALK
1759223414.82665,1.035343,9.246556,-0.854281,-0.879013,0.088957,0.524778,33.52,1,WALK
1759223414.84668,1.287632,8.712799,-0.830189,-0.623667,-0.24491,0.625408,33.54,1,WALK
1759223414.86668,0.795922,8.671649,-0.483778,-0.439246,-0.139653,0.719995,33.56,1,WALK
1759223414.88648,0.634164,9.347113,1.208922,-0.524036,0.067284,0.815392,33.58,1,WALK
1759223414.90665,0.312593,10.075399,0.301669,-0.593858,0.122615,0.951957,33.60,1,WALK
1759223414.92666,0.134823,10.889128,-0.512808,-0.482566,0.007714,0.907628,33.62,1,WALK
1759223414.94667,0.140061,11.711537,-0.448763,-0.360819,-0.031128,0.811798,33.64,1,WALK
1759223414.96668,0.657807,12.378172,-1.04477,-0.202268,-0.182182,0.631374,33.66,1,WALK
1759223414.98668,0.607978,11.612028,-1.273266,0.290142,-0.540232,0.499752,33.68,1,WALK
1759223415.00592,-1.586458,11.592425,-0.672771,0.392464,-0.205018,0.223564,33.70,1,WALK
1759223415.02665,-3.549554,12.047922,-0.938377,0.855053,-0.034458,-0.183254,33.72,1,WALK
1759223415.04615,-4.765658,12.929886,-0.886154,1.450134,0.0548,-0.740879,33.74,1,WALK
1759223415.06666,-4.326771,11.84232,-1.759888,2.105732,0.225973,-1.125746,33.76,1,WALK
1759223415.08661,-3.048866,10.851569,-2.257134,2.605986,0.351579,-1.53557,33.78,1,WALK
1759223415.10642,-0.837821,10.105177,-3.029114,3.168406,0.195455,-2.043927,33.80,1,WALK
1759223415.12664,0.013916,12.108974,-1.685817,2.904477,0.632128,-2.38887,33.82,1,WALK
1759223415.14607,1.839046,14.170531,2.355146,2.025044,1.34805,-2.195114,33.84,1,WALK
1759223415.16581,2.398092,13.975404,6.508488,0.977499,1.375889,-1.650229,33.86,1,WALK
1759223415.18646,1.129764,11.348067,8.076241,-0.110076,-0.098975,-1.589763,33.88,1,WALK
1759223415.20672,-0.704195,9.178771,3.932626,-0.252806,-3.586036,-1.9269,33.90,1,WALK
1759223415.22665,-0.051176,10.717195,-6.800281,-0.276124,-1.770139,-2.103535,33.92,1,WALK
1759223415.24617,2.6221,13.64246,-6.837391,-0.090148,2.643487,-1.734263,33.94,1,WALK
1759223415.26667,2.555511,11.875988,0.529717,0.458589,3.299882,-1.430279,33.96,1,WALK
1759223415.28668,3.682581,9.095273,3.793762,0.951227,1.885629,-1.338089,33.98,1,WALK
1759223415.30668,4.220978,6.606201,0.608426,0.944513,1.459058,-1.27009,34.00,1,WALK
1759223415.32665,4.989965,5.456236,0.034716,0.078901,1.201549,-1.181323,34.02,1,WALK
1759223415.34619,4.577714,4.949413,0.16939,-0.388366,0.952138,-0.812249,34.04,1,WALK
1759223415.36667,4.559458,4.192696,0.094122,-0.527014,0.434402,-0.314831,34.06,1,WALK
1759223415.38630,5.297171,4.101567,-1.432331,-0.79501,0.05866,0.182951,34.08,1,WALK
1759223415.40665,5.505317,4.720318,-1.909675,-0.962208,0.103399,0.854164,34.10,1,WALK
1759223415.42616,4.775983,4.837484,-0.527173,-1.233184,-0.137747,1.474341,34.12,1,WALK
1759223415.44622,4.522348,5.264101,-0.997933,-1.229461,-0.236388,1.777814,34.14,1,WALK
1759223415.46668,2.201618,9.016414,-2.652775,-1.101671,-0.297954,2.900994,34.16,1,WALK
1759223415.48669,-6.693589,14.949694,-5.26051,-0.654785,-1.400629,1.759213,34.18,1,WALK
1759223415.50666,-25.848699,29.458257,-5.671265,-0.687692,-2.119116,-2.890074,34.20,1,WALK
1759223415.52665,-10.575189,20.463391,-7.086238,-0.296501,-1.141901,-3.904483,34.22,1,WALK
1759223415.54570,-5.477335,12.282105,-2.369362,0.889009,-2.046637,-2.534826,34.24,1,WALK
1759223415.56666,6.637176,7.277176,5.094263,-0.066841,-2.821136,1.213173,34.26,1,WALK
1759223415.58666,5.762843,9.783307,3.960907,-0.168336,-3.01183,1.878454,34.28,1,WALK
1759223415.60666,8.280047,13.726706,-8.257452,-0.174805,3.539143,2.029222,34.30,1,WALK
1759223415.62665,2.298284,10.903494,-1.550096,0.27971,4.053531,0.113823,34.32,1,WALK
1759223415.64569,2.310554,9.624242,2.423231,-0.072131,1.95941,0.03749,34.34,1,WALK
1759223415.66585,3.883694,6.145467,2.791041,-0.516418,-1.205627,0.615749,34.36,1,WALK
1759223415.68668,3.237858,6.391321,1.625064,-0.315439,-2.075559,1.094989,34.38,1,WALK
1759223415.70673,2.583493,8.624214,1.358261,-0.445724,-0.80155,1.495302,34.40,1,WALK
1759223415.72665,1.391929,12.551752,2.048988,-0.635052,0.860158,1.719874,34.42,1,WALK
1759223415.74572,-0.58613,13.415759,1.107618,-1.000278,2.156232,1.431456,34.44,1,WALK
1759223415.76661,-1.900398,10.400711,0.173879,-1.337227,2.033587,1.110851,34.46,1,WALK
1759223415.78668,-3.714754,7.68853,-0.60274,-1.037409,-0.755646,0.701498,34.48,1,WALK
1759223415.80667,-4.469376,7.874829,-0.760309,-0.70235,-2.075487,0.236934,34.50,1,WALK
1759223415.82665,-1.922843,8.916157,-0.225803,-0.484783,-1.446579,0.118095,34.52,1,WALK
1759223415.84574,0.158616,8.769063,1.746271,-0.744155,-0.772906,-0.00408,34.54,1,WALK
1759223415.86668,1.963245,9.197176,1.534534,-1.044313,-0.588955,0.077624,34.56,1,WALK
1759223415.88618,3.353528,9.396793,-0.335188,-1.053652,-0.462798,0.454592,34.58,1,WALK
1759223415.90665,3.100491,9.005191,-0.59885,-0.821426,-0.376393,0.833491,34.60,1,WALK
1759223415.92666,1.305139,9.826701,0.131681,-0.732629,-0.296668,1.026959,34.62,1,WALK
1759223415.94577,-0.02484,9.445574,0.117466,-0.626849,-0.28079,0.966218,34.64,1,WALK
1759223415.96669,-0.080355,8.856002,-0.075118,-0.522972,-0.209896,0.860883,34.66,1,WALK
1759223415.98671,-0.257676,9.367763,-0.296282,-0.416543,-0.158966,0.782047,34.68,1,WALK
1759223416.00608,0.087837,9.440337,0.662296,-0.294116,-0.275952,0.745071,34.70,1,WALK
1759223416.02626,0.654066,10.646267,0.68938,-0.332147,-0.360705,0.681844,34.72,1,WALK
1759223416.04577,1.43263,11.967716,-1.366491,-0.039654,-0.44322,0.610752,34.74,1,WALK
1759223416.06666,0.332944,11.065402,-2.591274,0.416464,-0.357698,0.412039,34.76,1,WALK
1759223416.08671,-1.490091,12.239608,-2.820669,0.829798,-0.173995,0.123096,34.78,1,WALK
1759223416.10673,-3.857957,14.445565,-2.496404,1.527079,-0.15203,-0.365318,34.80,1,WALK
1759223416.12665,-4.944026,14.272584,-1.297657,2.284366,-0.179644,-1.001608,34.82,1,WALK
1759223416.14580,-5.080047,12.334927,-1.056441,3.124841,-0.160873,-1.579355,34.84,1,WALK
1759223416.16668,-4.646547,11.230751,-1.064073,3.269488,-0.703775,-2.133336,34.86,1,WALK
1759223416.18672,-2.932598,12.9447,-2.547431,2.734885,-0.25452,-3.004663,34.88,1,WALK
1759223416.20671,1.050157,15.895404,0.930746,1.966539,0.936159,-2.666397,34.90,1,WALK
1759223416.22666,2.945317,15.90947,7.205799,0.839853,1.042177,-1.764858,34.92,1,WALK
1759223416.24581,1.094898,13.062315,9.239673,-0.508486,-0.638506,-1.475751,34.94,1,WALK
1759223416.26668,-0.926257,9.23698,-0.656161,0.198238,-3.39975,-1.944092,34.96,1,WALK
1759223416.28672,1.463755,9.963919,-8.031948,0.331446,0.482681,-2.088918,34.98,1,WALK
1759223416.30668,4.360589,10.20738,-1.077091,-0.227714,1.901259,-1.790121,35.00,1,WALK
1759223416.32666,2.253842,8.388385,0.133477,-0.095529,2.647351,-1.929797,35.02,1,WALK
1759223416.34582,2.577957,7.457489,2.201768,0.417119,2.415848,-1.82559,35.04,1,WALK
1759223416.36666,2.385972,5.890784,2.055721,0.574538,1.688955,-1.499246,35.06,1,WALK
1759223416.38622,3.756353,4.919037,0.118812,-0.029811,1.274916,-1.099744,35.08,1,WALK
