SamplingTime, AccelerationX, AccelerationY, AccelerationZ, GyroX, GyroY, GyroZ, MagneticFieldX, MagneticFieldY, MagneticFieldZ, Latitude, Longitude
1759223382.914217, 0.061202, -2.859874, -9.306561, 0.206777, -0.057927, 0.082674, 28.291962, -43.817429, -259.289551, 13.726872, 100.771797
1759223382.933144, 0.268599, -2.846257, -9.419538, 0.218177, -0.135987, -0.045901, 28.329437, -43.675064, -259.214325, 13.726872, 100.771797
1759223382.954014, 0.424971, -3.151069, -9.405322, 0.096451, -0.209183, -0.115444, 28.616058, -43.903534, -258.601013, 13.726872, 100.771797
1759223382.974079, 0.292691, -3.192518, -9.282469, -0.058444, -0.241351, -0.138540, 28.747528, -43.637650, -258.692566, 13.726872, 100.771797
1759223382.994026, 0.218471, -3.202843, -9.492860, 0.116720, -0.361859, -0.089156, 28.785507, -43.605362, -258.628906, 13.726872, 100.771797
1759223383.014057, 0.100407, -3.120243, -9.138368, 0.317145, -0.259823, -0.136752, 28.928406, -43.524643, -258.132416, 13.726872, 100.771797
1759223383.033378, 0.277877, -3.420716, -9.124751, 0.263865, -0.173502, -0.129715, 28.608398, -43.632660, -258.036865, 13.726872, 100.771797
1759223383.054030, 0.196624, -3.591452, -9.172037, 0.180708, -0.172666, -0.064428, 29.092285, -43.572983, -258.052643, 13.726872, 100.771797
1759223383.074128, 0.159364, -3.438074, -9.159168, 0.138578, -0.176455, -0.054459, 28.858978, -43.510086, -257.482452, 13.726872, 100.771797
1759223383.093564, 0.178817, -3.342904, -9.188946, 0.041835, -0.152431, -0.084494, 29.024536, -43.327087, -257.975800, 13.726871, 100.771799
1759223383.114226, 0.053720, -3.461866, -9.359832, -0.026782, -0.104040, -0.104622, 29.340271, -43.593765, -258.018372, 13.726871, 100.771799
1759223383.134056, 0.060903, -3.585616, -9.326313, 0.066588, -0.133168, -0.081198, 29.382263, -43.460739, -257.989197, 13.726871, 100.771799
1759223383.154125, 0.102651, -3.632453, -9.195979, 0.158218, -0.126270, -0.061506, 28.984650, -43.834793, -257.950439, 13.726871, 100.771799
1759223383.174011, 0.211288, -3.506907, -9.413702, 0.146330, -0.086316, -0.089299, 29.294220, -43.776459, -258.311401, 13.726871, 100.771799
1759223383.194045, 0.225953, -3.657293, -9.257330, 0.200389, -0.031058, -0.034313, 29.272751, -43.439224, -257.131775, 13.726871, 100.771799
1759223383.214207, 0.109086, -3.581576, -9.286061, 0.240497, 0.056137, -0.060704, 29.353577, -43.395203, -257.226379, 13.726871, 100.771799
1759223383.233829, 0.098312, -3.703680, -9.035119, 0.302858, 0.163114, -0.103837, 29.676956, -43.379410, -257.320404, 13.726871, 100.771799
1759223383.254052, 0.138116, -3.929035, -8.787319, 0.393413, 0.193243, 0.009062, 29.726151, -43.745438, -256.503662, 13.726871, 100.771799
1759223383.274015, 0.207847, -3.860351, -8.744971, 0.295728, 0.200912, 0.030286, 29.526260, -43.616608, -256.506714, 13.726871, 100.771799
1759223383.293922, 0.378284, -3.786580, -9.064447, 0.292291, 0.329090, -0.019026, 29.357315, -43.179428, -256.276367, 13.726871, 100.771799
1759223383.314005, 0.403872, -3.720739, -9.048586, 0.463813, 0.391993, -0.015865, 29.722443, -43.352615, -256.044373, 13.726871, 100.771799
1759223383.333993, 0.442329, -3.934422, -8.921244, 0.597716, 0.438673, 0.040175, 29.130341, -43.491180, -256.054626, 13.726871, 100.771799
1759223383.354021, 0.234482, -3.771017, -8.702025, 0.644097, 0.656755, 0.163132, 29.502930, -43.525970, -255.146317, 13.726871, 100.771799
1759223383.373986, 0.301969, -3.969287, -8.928876, 0.710437, 0.571683, 0.272694, 29.307068, -42.891068, -254.549026, 13.726871, 100.771799
1759223383.394007, 0.483479, -4.251653, -8.633042, 0.560475, 0.447636, 0.252396, 28.657883, -43.162567, -254.680817, 13.726871, 100.771799
1759223383.414010, 0.274286, -4.032135, -8.447492, 0.430354, 0.486332, 0.160533, 28.531189, -43.045395, -253.968948, 13.726871, 100.771799
1759223383.434006, 0.360477, -4.074482, -8.586655, 0.452106, 0.504486, 0.140231, 27.988037, -43.002533, -253.491119, 13.726871, 100.771799
1759223383.453994, 0.492906, -4.109049, -8.689156, 0.610943, 0.431576, 0.249289, 27.898468, -42.926270, -253.350342, 13.726871, 100.771799
1759223383.473996, 0.654066, -4.272303, -8.380454, 0.642614, 0.407168, 0.179335, 28.030670, -42.948669, -252.791458, 13.726871, 100.771799
1759223383.494002, 1.212214, -4.871901, -8.405593, 0.406045, 0.312473, 0.012426, 27.618210, -42.724472, -252.639725, 13.726871, 100.771799
1759223383.513647, 1.565060, -5.233874, -8.427590, 0.146433, 0.100570, -0.061548, 27.824829, -43.020859, -251.817841, 13.726871, 100.771799
1759223383.533987, 1.358859, -4.976498, -8.037036, 0.029098, -0.022783, -0.061727, 28.046371, -42.599823, -251.875748, 13.726871, 100.771799
1759223383.554008, 1.355417, -5.119102, -8.158392, -0.041612, -0.120134, -0.006642, 28.199112, -42.234055, -252.196320, 13.726871, 100.771799
1759223383.573997, 1.465551, -5.147534, -8.573636, -0.111244, -0.215981, 0.014166, 27.839920, -42.865112, -252.766769, 13.726871, 100.771799
1759223383.594006, 1.417816, -5.042189, -8.782081, -0.101370, -0.301041, -0.016671, 27.691788, -42.607254, -252.642334, 13.726871, 100.771799
1759223383.613995, 1.202937, -5.049970, -8.742727, 0.178918, -0.377937, -0.028026, 28.009613, -42.621262, -252.598801, 13.726871, 100.771799
1759223383.634039, 0.957082, -4.813243, -8.690353, 0.270418, -0.202135, 0.027478, 27.986786, -42.336594, -252.220932, 13.726871, 100.771799
1759223383.653994, 0.990302, -5.057152, -8.533982, 0.178143, -0.221276, 0.000436, 28.221359, -42.519836, -251.976288, 13.726871, 100.771799
1759223383.674004, 0.737414, -5.081543, -8.184429, -0.098349, -0.252553, -0.054571, 28.476471, -42.803696, -251.641953, 13.726871, 100.771799
1759223383.693992, 0.872986, -5.084686, -8.498219, -0.171412, -0.303085, -0.058741, 28.350983, -42.850021, -251.898041, 13.726871, 100.771799
1759223383.714002, 1.131410, -5.194669, -8.809016, -0.127552, -0.319189, -0.074648, 28.677658, -42.622513, -252.013016, 13.726871, 100.771799
1759223383.733990, 1.048511, -5.282058, -8.559720, -0.191261, -0.331973, -0.012446, 28.506241, -42.738037, -252.047684, 13.726871, 100.771799
1759223383.754014, 0.681001, -5.027823, -8.295759, -0.338150, -0.295071, 0.162703, 28.608780, -42.739365, -251.977188, 13.726871, 100.771799
1759223383.773915, 0.204106, -4.843620, -8.291569, -0.362479, -0.319473, 0.178781, 28.306488, -42.477203, -252.768250, 13.726871, 100.771799
1759223383.794008, 0.023792, -4.551677, -8.586505, -0.313877, -0.310860, 0.077190, 28.187103, -42.839172, -252.779358, 13.726871, 100.771799
1759223383.813470, 0.049530, -4.236839, -8.509142, -0.331358, -0.200513, 0.055330, 28.518173, -42.845963, -253.010223, 13.726871, 100.771799
1759223383.833380, -0.430657, -4.477007, -8.134001, -0.394632, -0.080980, 0.062581, 28.416138, -43.134476, -253.036179, 13.726871, 100.771799
1759223383.853994, -0.416890, -4.260781, -7.693767, -0.583975, 0.174219, 0.072740, 28.002396, -43.091461, -253.096680, 13.726871, 100.771799
1759223383.873988, -0.426018, -3.821445, -7.633912, -0.617304, 0.168093, 0.202586, 27.730942, -43.089584, -254.333679, 13.726871, 100.771799
1759223383.893716, -0.585981, -3.629909, -7.668478, -0.449012, 0.079300, 0.155725, 27.967728, -43.224121, -254.086624, 13.726871, 100.771799
1759223383.914001, -0.158466, -3.453786, -7.447164, -0.386956, 0.258276, 0.413535, 28.105209, -43.256546, -254.976425, 13.726871, 100.771799
1759223383.933061, 1.122881, -2.769193, -7.483377, -0.218102, 0.125878, 0.946687, 27.772690, -42.764099, -255.183563, 13.726871, 100.771799
1759223383.954199, -0.818667, -1.914314, -4.699818, -0.433674, -0.296450, 0.879650, 26.318054, -42.346191, -255.351639, 13.726871, 100.771799
1759223383.974030, -4.029890, -1.847725, -7.155072, -0.596730, -0.699892, 0.373605, 25.972778, -42.563126, -255.626785, 13.726871, 100.771799
1759223383.993819, -3.043928, -2.558055, -7.236026, -0.719499, -0.751346, 0.230332, 25.880844, -43.099518, -256.267273, 13.726871, 100.771799
1759223384.013993, -1.108515, -1.560720, -8.210615, -0.389233, -0.662272, 0.477396, 25.866379, -42.570450, -256.133362, 13.726871, 100.771799
1759223384.033267, -0.488567, -1.126023, -8.294113, 0.041155, -0.354248, 0.709605, 25.480499, -42.513062, -256.453796, 13.726871, 100.771799
1759223384.053986, -0.679205, -0.429610, -7.232584, 0.243530, 0.256598, 0.937910, 25.093094, -42.331909, -256.990845, 13.726873, 100.771806
1759223384.073978, -3.255516, -0.078560, -4.595520, -0.480793, -0.596107, 0.583949, 23.913574, -42.518036, -256.282196, 13.726873, 100.771806
1759223384.093429, -5.241057, -2.217779, -3.084330, -1.881700, -1.441262, -0.412609, 23.829346, -42.501144, -256.682770, 13.726873, 100.771806
1759223384.113999, -3.022231, -3.573496, -5.119402, -2.754693, -0.941938, -0.920795, 24.403137, -42.202652, -258.071472, 13.726873, 100.771806
1759223384.133457, 1.221192, -3.008913, -9.719112, -2.440791, 0.079501, -0.672537, 25.643356, -42.636551, -260.316223, 13.726873, 100.771806
1759223384.154008, 1.490391, -2.260875, -13.343784, -1.374208, -0.119155, -0.353004, 25.781235, -42.984787, -261.506592, 13.726873, 100.771806
1759223384.173994, -0.531064, -2.690933, -12.703484, -1.121859, -0.550630, -0.464712, 25.949860, -42.988815, -262.751221, 13.726873, 100.771806
1759223384.194079, -0.721553, -2.373552, -11.846360, -1.226351, -0.493909, -0.577315, 26.063690, -42.902908, -263.601807, 13.726873, 100.771806
1759223384.213986, 0.019902, -2.010531, -12.300361, -0.914453, -0.491685, -0.452383, 26.558868, -42.886154, -264.346741, 13.726873, 100.771806
1759223384.233758, 0.110433, -0.923414, -11.772738, -0.547590, -0.509140, -0.193232, 26.410736, -42.716217, -264.613770, 13.726873, 100.771806
1759223384.253976, -0.668581, -0.575506, -9.549273, -0.760605, -0.310112, -0.210282, 26.515869, -42.646896, -264.921448, 13.726873, 100.771806
1759223384.273977, -1.513285, -0.373795, -8.414571, -1.097672, 0.143638, -0.385336, 26.558167, -42.845032, -265.413513, 13.726873, 100.771806
1759223384.294044, -1.272518, 0.733972, -8.537723, -1.049519, 0.769073, -0.394475, 27.400589, -42.589264, -266.602753, 13.726873, 100.771806
1759223384.314001, -0.182857, 1.754351, -7.818116, -0.952074, 1.616845, -0.255049, 27.402649, -42.400482, -267.654663, 13.726873, 100.771806
1759223384.333880, -0.544232, 2.682104, -5.936273, -1.303781, 2.745504, -0.357373, 28.305283, -42.492111, -268.683929, 13.726873, 100.771806
1759223384.354019, -0.608875, 3.237858, -4.128202, -2.149741, 4.230017, -0.604753, 29.083099, -42.198792, -270.545288, 13.726873, 100.771806
1759223384.374048, 0.550367, 4.340538, -3.961356, -2.924758, 5.210326, -0.708135, 30.554199, -41.680237, -272.539612, 13.726873, 100.771806
1759223384.394055, 2.058116, 5.641936, -4.535965, -3.527984, 5.536541, -0.580939, 32.437897, -40.908447, -275.898499, 13.726873, 100.771806
1759223384.413969, 3.784335, 7.528866, -6.261586, -3.894181, 6.360321, -0.466915, 34.637726, -39.512451, -278.368805, 13.726873, 100.771806
1759223384.433988, 4.904821, 7.525275, -7.362918, -3.885659, 7.155573, -0.545731, 37.795456, -38.183502, -281.433533, 13.726873, 100.771806
1759223384.454000, 5.321113, 8.369530, -6.665308, -3.978726, 7.040405, -0.797751, 41.523010, -36.524353, -283.664307, 13.726873, 100.771806
1759223384.473976, 5.617096, 9.220071, -5.445462, -4.200768, 6.595856, -1.331903, 44.885010, -34.466492, -285.317047, 13.726873, 100.771806
1759223384.493994, 9.044845, 10.005967, -5.850980, -3.973727, 5.723689, -1.437791, 49.353012, -32.037491, -286.761749, 13.726873, 100.771806
1759223384.513994, 11.901128, 9.818022, -6.315305, -2.839854, 3.152548, -1.262004, 52.270157, -30.009598, -287.383820, 13.726873, 100.771806
1759223384.533974, 12.018294, 8.525752, -2.208651, -2.495055, 0.976717, -1.298404, 53.541275, -28.422668, -287.310974, 13.726873, 100.771806
1759223384.553211, 13.001862, 7.636905, -1.528847, -3.695559, 1.447011, -1.703095, 55.274307, -25.806580, -288.583893, 13.726873, 100.771806
1759223384.573992, 20.565594, 6.472425, -6.769605, -3.565682, 2.009505, -1.523069, 56.725555, -23.083084, -290.026123, 13.726873, 100.771806
1759223384.593975, 22.567146, 6.096535, -7.616554, -2.351332, 1.567015, -0.532613, 58.337708, -20.806519, -290.118591, 13.726873, 100.771806
1759223384.613979, 21.442171, 3.052757, -7.877971, -1.575812, 1.074927, 0.292779, 59.166122, -19.668427, -290.344727, 13.726873, 100.771806
1759223384.633339, 20.074333, 1.608155, -9.057265, -1.032762, 1.191988, 0.672919, 59.869797, -19.110245, -290.335571, 13.726873, 100.771806
1759223384.653314, 16.635512, -0.349105, -7.543082, -0.921965, 1.121487, 1.000545, 60.118149, -18.938461, -289.604553, 13.726873, 100.771806
1759223384.673984, 14.039449, -0.439935, -9.012823, -0.206400, 1.317388, 1.261337, 60.262299, -19.104355, -289.514282, 13.726873, 100.771806
1759223384.693976, 12.199206, -0.317681, -5.262306, 0.443533, 0.953803, 1.541617, 61.159836, -19.704071, -288.794189, 13.726873, 100.771806
1759223384.713974, 9.661950, -0.367809, -3.992780, 0.449917, 0.355984, 1.659326, 60.688049, -20.944305, -288.200073, 13.726873, 100.771806
1759223384.733967, 7.182755, 0.413748, -4.415207, 0.590643, 0.011564, 1.538936, 60.254730, -21.889145, -288.237488, 13.726873, 100.771806
1759223384.753977, 5.695955, 1.645116, -3.985448, 0.996727, -0.077647, 1.284921, 59.609482, -23.221863, -287.830688, 13.726873, 100.771806
1759223384.773972, 6.538864, 2.879776, -1.689109, 0.853772, -0.467780, 1.111216, 59.068588, -24.167206, -287.686096, 13.726873, 100.771806
1759223384.794010, 8.431032, 3.451990, -0.391901, 0.444210, -0.916944, 1.294083, 57.663818, -24.978027, -288.269501, 13.726873, 100.771806
1759223384.813972, 6.999000, 4.028095, 0.439486, -0.044518, -0.721121, 1.121069, 56.686523, -25.541931, -287.959839, 13.726873, 100.771806
1759223384.833980, 5.646425, 5.596596, 1.285986, -0.459335, -0.253248, 0.632507, 56.537994, -25.622604, -288.691986, 13.726873, 100.771806
1759223384.853606, 6.061969, 6.578967, 2.790442, -0.644947, -0.571203, 0.608913, 55.934448, -25.577209, -288.548706, 13.726873, 100.771806
1759223384.873333, 2.953248, 6.049399, 3.876811, -1.062451, -1.097259, 0.304849, 54.924515, -25.478271, -289.936890, 13.726873, 100.771806
1759223384.893988, 1.564611, 7.641693, -0.335936, -1.315827, -0.560971, -0.487353, 54.554413, -24.759384, -290.403137, 13.726873, 100.771806
1759223384.913971, 4.419247, 8.480262, -3.794061, -0.658704, -0.146064, -1.026564, 54.906647, -23.708557, -291.146057, 13.726873, 100.771806
1759223384.934031, 6.467337, 8.180837, -4.186860, -0.231364, -0.431305, -0.974098, 55.150314, -23.212341, -291.320862, 13.726873, 100.771806
1759223384.953978, 8.979753, 8.541464, -2.288258, -0.235586, -0.318855, -0.903073, 55.645767, -22.490311, -291.484406, 13.726873, 100.771806
1759223384.973982, 9.795577, 8.306982, -1.264138, -0.087594, -0.258139, -0.551360, 55.300339, -22.541443, -291.396332, 13.726873, 100.771806
1759223384.993975, 7.304260, 5.483470, -1.030255, -0.281727, -0.295904, -0.808132, 55.329727, -22.051575, -291.260590, 13.726873, 100.771806
1759223385.013988, 6.310068, 5.063288, -2.020856, -0.564903, -0.009027, -1.296083, 55.731232, -21.514664, -291.895142, 13.726873, 100.771806
1759223385.033446, 8.322694, 6.263232, -1.497872, -0.569004, 0.252338, -1.580415, 56.386108, -20.610046, -291.845886, 13.726873, 100.771806
1759223385.053455, 13.745561, 7.782352, -0.508618, -0.302669, 0.261771, -1.239860, 56.775101, -19.710739, -291.814911, 13.726873, 100.771807
1759223385.074018, 15.750106, 7.475595, -0.926556, -0.084849, -0.114084, -0.195378, 57.119888, -19.078278, -292.408569, 13.726873, 100.771807
1759223385.093970, 10.445603, 5.472098, -2.649334, -0.057573, 0.019938, 0.204323, 57.272842, -19.290131, -292.481354, 13.726873, 100.771807
1759223385.113996, 7.609072, 5.248539, -2.190246, 0.035266, 0.248828, 0.212208, 56.940887, -19.315857, -292.575775, 13.726873, 100.771807
1759223385.133964, 5.885397, 4.613926, -1.006463, 0.008992, 0.188579, -0.055521, 57.470169, -19.193527, -292.430481, 13.726873, 100.771807
1759223385.154043, 6.288071, 4.479402, -0.605883, -0.195879, 0.023951, -0.351325, 58.014664, -18.866287, -291.900299, 13.726873, 100.771807
1759223385.173999, 7.373393, 4.533570, -1.119589, -0.243396, -0.072268, -0.429739, 57.861069, -18.782242, -292.264771, 13.726873, 100.771807
1759223385.194031, 6.377106, 4.262128, -1.103128, -0.330622, 0.096900, -0.640059, 57.992432, -18.844971, -292.468109, 13.726873, 100.771807
1759223385.213958, 4.941333, 3.800197, -0.591517, -0.523052, 0.154636, -1.153848, 58.845032, -17.177994, -292.210999, 13.726873, 100.771807
1759223385.233222, 4.367173, 4.631583, -0.394445, -0.772709, 0.159821, -1.674558, 58.647888, -17.220123, -292.211548, 13.726873, 100.771807
1759223385.253976, 4.204368, 5.190180, -0.751929, -0.726887, -0.066199, -2.197822, 59.440414, -14.714111, -292.962036, 13.726873, 100.771807
1759223385.273988, 4.844667, 6.168810, -0.885855, -0.603659, -0.333244, -2.692713, 59.931427, -13.966705, -293.367767, 13.726873, 100.771807
1759223385.293963, 8.116643, 7.979874, -0.645387, -0.373828, -0.397560, -2.687433, 60.192291, -11.668289, -293.531067, 13.726873, 100.771807
1759223385.313876, 9.697115, 8.443601, -0.346710, 0.053474, -0.634185, -2.384672, 60.305206, -10.840042, -294.342621, 13.726873, 100.771807
1759223385.333979, 8.266729, 9.521590, -1.109264, 0.272281, -0.302609, -2.106686, 59.970856, -9.644958, -293.816925, 13.726873, 100.771807
1759223385.353983, 7.264157, 8.956409, -1.111658, 0.149101, 0.504908, -1.486191, 60.373825, -9.882111, -294.317047, 13.726873, 100.771807
1759223385.373961, 5.206640, 9.099313, -0.812831, -0.172858, 0.236737, -0.945948, 60.780792, -9.066940, -293.665283, 13.726873, 100.771807
1759223385.393970, 4.790349, 11.824663, -1.637933, 0.059382, -0.042508, -0.906973, 61.193481, -8.340866, -293.266296, 13.726873, 100.771807
1759223385.413967, 6.253206, 11.505486, -2.029535, 0.344680, -0.108949, -0.356583, 60.657623, -8.300293, -293.646545, 13.726873, 100.771807
1759223385.434043, 5.531953, 9.015965, -0.905457, 0.095346, 0.066984, -0.057882, 61.186554, -8.009079, -293.377502, 13.726873, 100.771807
1759223385.453970, 3.248932, 7.473052, 0.268749, -0.528926, 0.014186, -0.252643, 61.231949, -7.600754, -293.179657, 13.726873, 100.771807
1759223385.473977, 3.106327, 6.780229, 0.549918, -0.830553, -0.120545, -0.328473, 61.083786, -6.774780, -293.550537, 13.726873, 100.771807
1759223385.493978, 4.209007, 7.204602, -0.938976, -0.373794, 0.413346, -0.415630, 61.490051, -6.624146, -293.242584, 13.726873, 100.771807
1759223385.513994, 6.189759, 8.454824, -1.002422, -0.067113, 0.647475, -0.347066, 61.842392, -6.205994, -292.965088, 13.726873, 100.771807
1759223385.533975, 7.167641, 9.775376, -0.985364, -0.005998, 0.650367, -0.213436, 62.197174, -5.798569, -293.455872, 13.726873, 100.771807
1759223385.553063, 6.541109, 10.890924, -1.106869, 0.004553, 0.210235, -0.128260, 62.366058, -6.731232, -293.071045, 13.726873, 100.771807
1759223385.573994, 4.387674, 9.114576, -1.237204, -0.004456, 0.007076, -0.356622, 62.689011, -6.195480, -293.053925, 13.726873, 100.771807
1759223385.593967, 5.410896, 8.942493, -0.952443, -0.027420, -0.079773, -0.401310, 62.276840, -5.739182, -292.690613, 13.726873, 100.771807
1759223385.613965, 6.189011, 8.737040, -0.777816, -0.046623, 0.271397, -0.162260, 62.808258, -5.542053, -292.549255, 13.726873, 100.771807
1759223385.633957, 5.944055, 7.663989, -0.046088, -0.212232, 0.658475, 0.016030, 62.866287, -5.168900, -292.225891, 13.726873, 100.771807
1759223385.653300, 4.256891, 6.962638, 0.388459, -0.418176, 0.639836, 0.089076, 63.136826, -5.834137, -292.541870, 13.726873, 100.771807
1759223385.673975, 2.938583, 5.409100, 0.947356, -0.625770, 0.820402, -0.062195, 63.874847, -5.302231, -292.526733, 13.726873, 100.771807
1759223385.693963, 1.184980, 4.281431, 0.981473, -1.103756, 1.246306, -1.344289, 64.449921, -3.557892, -291.476501, 13.726873, 100.771807
1759223385.713992, -0.289399, 5.773617, 1.464204, -1.510200, 1.512973, -2.871676, 65.206268, -1.585815, -289.432251, 13.726873, 100.771807
1759223385.733528, 0.159065, 3.977368, 0.808193, -1.376160, 1.233322, -3.684012, 66.115509, 1.331848, -288.677307, 13.726873, 100.771807
1759223385.753467, 0.371999, 4.158728, -1.209072, -0.681774, -0.015522, -4.312528, 66.053467, 3.979095, -289.147644, 13.726873, 100.771807
1759223385.773972, 0.214281, 3.502717, 0.032172, -0.549898, -0.826979, -4.717348, 65.004898, 6.928680, -289.051636, 13.726873, 100.771807
1759223385.793506, 0.152481, 2.953397, 1.483657, -0.539196, -1.490887, -4.651558, 62.987747, 9.600815, -290.018250, 13.726873, 100.771807
1759223385.813964, 0.423624, 2.756774, 1.408688, 0.143144, -2.354784, -3.820716, 60.372437, 11.733124, -290.720154, 13.726873, 100.771807
1759223385.833098, 0.487370, 2.282871, 1.474230, 0.467867, -2.277222, -3.198945, 59.219635, 12.303284, -291.903992, 13.726873, 100.771807
1759223385.853681, 2.310255, 13.402741, 0.798017, 1.174181, -3.778181, -0.116239, 55.267639, 12.896576, -293.727173, 13.726873, 100.771807
1759223385.873969, 8.827122, 57.579203, 4.290709, -0.339638, -3.107563, 2.750839, 53.926147, 11.567963, -295.631378, 13.726873, 100.771807
1759223385.893966, -3.487304, 22.497266, 2.577807, -1.195720, -0.356461, 1.467937, 53.444473, 12.254013, -296.196777, 13.726873, 100.771807
1759223385.913977, -2.045696, 7.000197, 0.142605, -0.832390, 1.565498, 0.673227, 54.643524, 12.529343, -294.676331, 13.726873, 100.771807
1759223385.934003, -2.078017, 3.055001, -1.009904, -0.039833, 2.352957, 0.322439, 56.800095, 12.735947, -293.793457, 13.726873, 100.771807
1759223385.953939, -3.238607, 5.702539, -1.078438, 0.661005, 1.645615, 0.002436, 57.771149, 12.063797, -293.598755, 13.726873, 100.771807
1759223385.973976, -3.669563, 10.650756, 0.570867, 0.539391, 0.517731, -0.195668, 58.060623, 12.120117, -292.770782, 13.726873, 100.771807
1759223385.993963, -1.732803, 10.375871, 1.232266, 0.344709, -0.275939, -0.353334, 58.015945, 11.972183, -293.140320, 13.726873, 100.771807
1759223386.014003, -0.093673, 9.838822, 1.184232, 0.323536, -0.794513, -0.452988, 57.223694, 11.727173, -293.250854, 13.726873, 100.771807
1759223386.033952, 1.297957, 9.158420, 0.906355, 0.270050, -0.896345, -0.399519, 56.450043, 11.669083, -293.849548, 13.726873, 100.771807
1759223386.053881, 2.191892, 9.762956, 0.694169, 0.151807, -0.565411, -0.293423, 56.115784, 11.375290, -293.755188, 13.726874, 100.771805
1759223386.073977, 2.768894, 10.376021, 0.283713, 0.074489, -0.064411, -0.170680, 56.020157, 11.489258, -294.364624, 13.726874, 100.771805
1759223386.093964, 3.218256, 10.434829, -0.448763, 0.158950, 0.245582, 0.087506, 56.204117, 11.380234, -294.386017, 13.726874, 100.771805
1759223386.113978, 2.642301, 9.963021, -1.450886, 0.408898, 0.221447, 0.208620, 56.531250, 11.136078, -294.044922, 13.726874, 100.771805
1759223386.133947, 2.445228, 9.859622, -2.517653, 0.725707, 0.037309, 0.312836, 56.383713, 10.677658, -294.454193, 13.726874, 100.771805
1759223386.153958, 2.686294, 9.671677, -3.610755, 1.144816, -0.091725, 0.463542, 56.340240, 9.667755, -294.921906, 13.726874, 100.771805
1759223386.173044, 2.967463, 9.636811, -4.067449, 1.520667, -0.126736, 0.638230, 56.637863, 8.539215, -295.386292, 13.726874, 100.771805
1759223386.193971, 2.858527, 9.844658, -3.949535, 1.862645, -0.066241, 0.827050, 56.513931, 6.646759, -295.988281, 13.726874, 100.771805
1759223386.213975, 2.420388, 12.030564, -1.985392, 2.208640, 1.253879, 1.068219, 57.373062, 4.679184, -295.453552, 13.726874, 100.771805
1759223386.233990, 1.458368, 13.432070, 1.860444, 1.800647, 2.385814, 1.277965, 59.400681, 2.911896, -295.095886, 13.726874, 100.771805
1759223386.253959, 1.336264, 13.142970, 2.610428, 0.917238, 2.599301, 1.380929, 61.338623, 1.578125, -293.783386, 13.726874, 100.771805
1759223386.273972, 1.336713, 13.601160, -2.488473, 0.668501, 2.650651, 1.221442, 63.138519, 0.532852, -292.669678, 13.726874, 100.771805
1759223386.293764, -2.699013, 10.986243, -1.740884, 0.880219, 1.459284, 1.014455, 64.307556, -0.407501, -291.774780, 13.726874, 100.771805
1759223386.313471, -1.903839, 10.247782, 0.643142, 0.837419, -0.591259, 0.803908, 64.003326, -1.800003, -291.732849, 13.726874, 100.771805
1759223386.333951, 1.679233, 8.778041, -1.040281, 0.731394, -0.591073, 0.581775, 63.651215, -2.773621, -291.706238, 13.726874, 100.771805
1759223386.354003, 1.632247, 7.988553, -1.293019, 0.609495, 0.168054, 0.463366, 63.822556, -3.273163, -291.615112, 13.726874, 100.771805
1759223386.373521, 1.526902, 7.814375, -0.697162, 0.584563, -0.392871, 0.422184, 63.417709, -3.913696, -291.732483, 13.726874, 100.771805
1759223386.393975, 2.275090, 7.734169, -0.489614, 0.569230, -0.582727, 0.398766, 63.486572, -4.323364, -292.696472, 13.726874, 100.771805
1759223386.413958, 3.656694, 7.161057, -0.345064, 0.377987, -0.428112, 0.420215, 62.729446, -4.698135, -292.911377, 13.726874, 100.771805
1759223386.433947, 3.758747, 7.320870, -1.142633, 0.175695, -0.624774, 0.453426, 62.345901, -5.113022, -293.038269, 13.726874, 100.771805
1759223386.452974, 3.357120, 7.880814, -2.098518, 0.079325, -1.267474, 0.449001, 61.565536, -5.548141, -293.129639, 13.726874, 100.771805
1759223386.474007, 3.110667, 8.308628, -2.622549, 0.072158, -1.918578, 0.416748, 60.403198, -5.501144, -294.683624, 13.726874, 100.771805
1759223386.494021, 2.952649, 8.711602, -3.053355, 0.133604, -2.214027, 0.358432, 58.955673, -5.770844, -295.610596, 13.726874, 100.771805
1759223386.514015, 2.365920, 8.460061, -3.354875, 0.207165, -2.124784, 0.299660, 57.355072, -6.440918, -296.319275, 13.726874, 100.771805
1759223386.533980, 1.727566, 7.808988, -3.845986, 0.238889, -1.659147, 0.222649, 56.374649, -6.768982, -296.970062, 13.726874, 100.771805
1759223386.554081, 1.339257, 7.404667, -4.423736, 0.202170, -1.038694, 0.136949, 55.188995, -6.870819, -297.616089, 13.726874, 100.771805
1759223386.573848, 1.392378, 6.926126, -4.890157, 0.086864, -0.553305, 0.015885, 54.707993, -6.913055, -297.524567, 13.726874, 100.771805
1759223386.594018, 1.607407, 6.640917, -4.652083, -0.091805, -0.313425, -0.136048, 54.336227, -6.533798, -297.613953, 13.726874, 100.771805
1759223386.614008, 2.056619, 6.604405, -5.858761, -0.129517, -0.237532, -0.211051, 54.614090, -6.770325, -298.241730, 13.726874, 100.771805
1759223386.634153, 2.819322, 7.482628, -6.016329, -0.190171, -0.158975, -0.284046, 54.454453, -6.436310, -297.898621, 13.726874, 100.771805
1759223386.654088, 2.823961, 8.175450, -5.751770, -0.222385, -0.193749, -0.337395, 54.181885, -6.511749, -297.403809, 13.726874, 100.771805
1759223386.674039, 2.028038, 8.766519, -4.153042, -0.351685, -0.584590, -0.351736, 53.922073, -5.846375, -297.554565, 13.726874, 100.771805
1759223386.693981, 0.990152, 9.475053, -2.940080, -0.396484, -0.431953, -0.289290, 53.748322, -5.668320, -298.036682, 13.726874, 100.771805
1759223386.714017, 0.423474, 9.491962, -3.606416, -0.255261, -0.071228, -0.396153, 53.640778, -5.476837, -297.694275, 13.726874, 100.771805
1759223386.733995, -0.314089, 11.869704, -2.936788, -0.439854, 0.098290, -0.606609, 54.122299, -4.733856, -298.101257, 13.726874, 100.771805
1759223386.753982, 1.415871, 14.821305, -2.274641, -0.626827, 0.558940, -0.515146, 54.618881, -4.273087, -297.927063, 13.726874, 100.771805
1759223386.774019, 1.668160, 13.774291, -0.341473, -0.430162, 1.820332, -0.297476, 55.900131, -3.582932, -297.306946, 13.726874, 100.771805
1759223386.794082, -1.656788, 9.796175, -0.504578, -0.330267, 2.410060, -0.331677, 57.080826, -3.590179, -296.019043, 13.726874, 100.771805
1759223386.814021, -3.961805, 7.456143, 0.030825, -0.566278, 2.580126, -0.482669, 59.341751, -2.866074, -294.199219, 13.726874, 100.771805
1759223386.834085, -4.216788, 6.809110, 2.422034, -0.696234, 2.575562, -0.817850, 61.130142, -2.561264, -293.291870, 13.726874, 100.771805
1759223386.853993, -2.345420, 8.249072, 2.961478, -0.786028, 2.233248, -0.918136, 62.542542, -1.393692, -292.263428, 13.726874, 100.771805
1759223386.873435, -1.515829, 9.193285, 3.289783, -0.922715, 1.507253, -0.921730, 63.354782, 0.130295, -291.134125, 13.726874, 100.771805
1759223386.893957, -0.502333, 10.296713, 2.638410, -0.594418, 0.723993, -0.855180, 63.878601, 0.880936, -290.140198, 13.726874, 100.771805
1759223386.913948, 1.395670, 11.112837, 2.398092, -0.406313, -0.014628, -0.907161, 63.809723, 1.538757, -290.581360, 13.726874, 100.771805
1759223386.933494, 5.422567, 13.983036, 0.833033, -1.014910, 1.020352, -0.903208, 64.340469, 2.477310, -289.582947, 13.726874, 100.771805
1759223386.953239, 6.702268, 12.683732, 0.566827, -1.266751, 1.933640, -0.746102, 65.294846, 3.569519, -288.986084, 13.726874, 100.771805
1759223386.973963, 6.826168, 9.505878, 0.206949, -1.137988, 1.693090, -0.697022, 66.273300, 4.705673, -287.627563, 13.726874, 100.771805
1759223386.993953, 6.605004, 7.200113, -0.214580, -1.093481, 1.071367, -1.099858, 66.724091, 5.810547, -286.773254, 13.726874, 100.771805
1759223387.013951, 5.377377, 8.083573, -0.110283, -1.344548, -0.252723, -0.690974, 66.318909, 6.730240, -286.460266, 13.726874, 100.771805
1759223387.033967, 2.219275, 8.971074, -0.768688, -1.582718, -1.391658, -0.533886, 65.550232, 7.938217, -287.291901, 13.726874, 100.771805
1759223387.053307, 2.498798, 10.306290, -1.654842, -1.397164, -2.013662, -0.551517, 64.213913, 9.058197, -287.939270, 13.726872, 100.771804
1759223387.073970, 3.048118, 8.878448, -1.482310, -0.933356, -1.490745, -0.015569, 62.821609, 9.649078, -288.267700, 13.726872, 100.771804
1759223387.093947, 2.921375, 7.720403, -0.259621, -0.787333, -0.325300, 0.295559, 62.887970, 9.973419, -288.272095, 13.726872, 100.771804
1759223387.113947, 1.759888, 7.660099, -0.567426, -0.498631, 1.448240, 0.230147, 63.498459, 9.891098, -288.141174, 13.726872, 100.771804
1759223387.133940, -0.019902, 8.226028, 0.608426, -0.385744, 2.786980, -0.121007, 64.623016, 10.393875, -286.288635, 13.726872, 100.771804
1759223387.153947, -0.125995, 9.521441, 1.218200, -0.351082, 2.647429, -0.290669, 65.784698, 10.459351, -284.835571, 13.726872, 100.771804
1759223387.173029, -0.992397, 10.476278, 1.590498, -0.461542, 2.045448, -0.445862, 66.421860, 11.170258, -283.605469, 13.726872, 100.771804
1759223387.193968, -0.801758, 9.511265, 1.449091, -0.965876, -0.113337, -0.914671, 66.423386, 11.754532, -283.283081, 13.726872, 100.771804
1759223387.214013, 3.106926, 8.181885, -0.078111, -0.872598, -1.003772, -0.903904, 66.307419, 12.968277, -283.091553, 13.726872, 100.771804
1759223387.233184, 6.120777, 8.442703, 0.037260, -0.344217, -1.762824, -0.704250, 65.030594, 13.793610, -283.998108, 13.726872, 100.771804
1759223387.253947, 8.238897, 10.105476, 0.537947, -0.072372, -1.459515, -0.361440, 64.058563, 14.095032, -284.747498, 13.726872, 100.771804
1759223387.273211, 8.810512, 10.513688, 1.312172, -0.023960, -0.327659, 0.165169, 63.774155, 14.120422, -284.753601, 13.726872, 100.771804
1759223387.293951, 6.526893, 10.033201, 0.920421, 0.313855, 0.552690, 0.669034, 63.853134, 13.684250, -284.936157, 13.726872, 100.771804
1759223387.314079, 4.058172, 11.365126, 0.598251, 0.478913, 1.073290, 0.933409, 64.880768, 12.592743, -284.744415, 13.726872, 100.771804
1759223387.333968, 4.319439, 15.360001, -1.135749, 0.887978, 0.620025, 1.185554, 65.831757, 11.780014, -283.734863, 13.726872, 100.771804
1759223387.354035, 6.112098, 17.135601, -2.498349, 1.604280, -0.801153, 1.214919, 65.416046, 10.344345, -284.294556, 13.726872, 100.771804
1759223387.373436, 7.884256, 15.098584, -1.806425, 1.747197, -1.935585, 1.410711, 65.082947, 9.337387, -285.383423, 13.726872, 100.771804
1759223387.394143, 7.180660, 11.286117, -3.040636, 2.116187, -2.335677, 1.894599, 64.345093, 7.185516, -287.187531, 13.726872, 100.771804
1759223387.413960, 6.648997, 10.246136, -5.073912, 2.918355, -2.773482, 2.584570, 62.985764, 4.108704, -289.021790, 13.726872, 100.771804
1759223387.433966, 4.047847, 13.517962, 0.326509, 2.645403, -2.856978, 2.394415, 62.056030, 1.774933, -291.039337, 13.726872, 100.771804
1759223387.454015, -1.268927, 17.391930, 4.607940, 1.917044, -2.252477, 1.072088, 60.437012, -0.311935, -291.868256, 13.726872, 100.771804
1759223387.473619, -0.958429, 16.447417, 6.792500, 1.543598, -0.663863, 0.306240, 59.871613, -1.153671, -292.809509, 13.726872, 100.771804
1759223387.494012, -2.683900, 16.413300, 7.128287, 1.252684, 1.096692, -0.463196, 60.202042, -1.939102, -292.566162, 13.726872, 100.771804
1759223387.513983, -5.108628, 13.425935, 3.235464, 1.121788, 1.136366, -0.476260, 60.787598, -2.666779, -291.812469, 13.726872, 100.771804
1759223387.533930, -3.962553, 10.766126, -7.441927, 1.375632, -0.375516, 1.004525, 61.133652, -3.387085, -292.397064, 13.726872, 100.771804
1759223387.553986, -3.014300, 8.726416, -3.506159, 1.157346, 0.406323, 0.976274, 61.055405, -4.525497, -291.923279, 13.726872, 100.771804
1759223387.573824, -2.449867, 6.966528, 2.943821, 0.501354, 0.546279, 0.371951, 61.634125, -4.802414, -292.094788, 13.726872, 100.771804
1759223387.594140, 2.614019, 6.930017, 8.922292, -0.127938, -0.755373, 1.313891, 61.458893, -5.388977, -292.439087, 13.726872, 100.771804
1759223387.614011, 8.454824, 8.301595, -0.499640, 0.910023, -0.330334, 1.522664, 60.954208, -6.660904, -292.429932, 13.726872, 100.771804
1759223387.634130, -0.846201, 5.217265, -0.640000, 0.813956, -1.238672, 0.744819, 60.293823, -7.432205, -293.279144, 13.726872, 100.771804
1759223387.653950, -1.271920, 2.990208, 0.502333, 0.455368, -1.924319, 0.507326, 59.111969, -8.085037, -293.812164, 13.726872, 100.771804
1759223387.674041, -1.262792, 2.848501, 0.478092, 0.301621, -1.925271, 0.313119, 57.871017, -8.414612, -294.491638, 13.726872, 100.771804
1759223387.693944, -2.343475, 2.875885, 1.079935, -0.111219, -1.900817, 0.003839, 56.610764, -8.557907, -295.462280, 13.726872, 100.771804
1759223387.714011, -3.532495, 3.188328, 1.283292, -0.652967, -1.791991, -0.470253, 55.244949, -8.237259, -295.534698, 13.726872, 100.771804
1759223387.734000, -4.237587, 3.596989, 0.070928, -1.263754, -1.851037, -1.027122, 54.308228, -7.074921, -296.762939, 13.726872, 100.771804
1759223387.754036, -2.926912, 4.685902, -2.169147, -1.636297, -1.664403, -1.450885, 53.366226, -5.168777, -297.401184, 13.726872, 100.771804
1759223387.773944, 1.195754, 7.542035, -6.358850, -1.244391, -1.008070, -1.359604, 52.351334, -4.161194, -298.151184, 13.726872, 100.771804
1759223387.794141, 7.130980, 13.155390, -12.760047, -0.579282, 0.497928, -0.452528, 52.473434, -3.207550, -297.586700, 13.726872, 100.771804
1759223387.814004, 6.069002, 21.815068, -11.349713, -0.795585, 1.935606, 0.599442, 53.846542, -2.365524, -297.001831, 13.726872, 100.771804
1759223387.834106, 7.199215, 19.505112, -7.563732, -0.470159, 1.592408, 1.201012, 54.729050, -2.478149, -296.667755, 13.726872, 100.771804
1759223387.854008, 6.276100, 10.995221, -7.157466, 0.223426, 0.980806, 0.967909, 56.012375, -3.057098, -296.227325, 13.726872, 100.771804
1759223387.874145, 3.839551, 5.960215, -7.369053, 0.627854, 1.381002, 0.469239, 56.854752, -3.209625, -295.483978, 13.726872, 100.771804
1759223387.893940, -0.533009, 9.126547, 0.128239, 0.360756, 0.816939, -0.112855, 57.702515, -3.619431, -295.403320, 13.726872, 100.771804
1759223387.913982, -2.029984, 14.604780, 5.559785, -0.186851, 0.124003, -0.449381, 58.339539, -3.361923, -295.497345, 13.726872, 100.771804
1759223387.933946, -1.253065, 13.427730, -0.909048, 0.093762, 1.658365, -0.214815, 58.599594, -2.909592, -294.527649, 13.726872, 100.771804
1759223387.954090, -4.777779, 9.594464, -0.248548, 0.095713, 2.450995, -0.087646, 60.350143, -3.149246, -293.653564, 13.726872, 100.771804
1759223387.973983, -6.520608, 6.761225, 3.385252, -0.200708, 2.210267, -0.761943, 62.216751, -2.750565, -292.548157, 13.726872, 100.771804
1759223387.994021, -5.842151, 7.082647, 4.163666, -0.406042, 2.022880, -1.519089, 63.493591, -1.924500, -291.552277, 13.726872, 100.771804
1759223388.013947, -2.725499, 9.290999, 3.122338, -0.394234, 1.395145, -1.369167, 64.269958, -0.383438, -291.069183, 13.726872, 100.771804
1759223388.034026, -1.785626, 9.452607, 3.036147, -0.383021, 0.637697, -1.010223, 64.426590, 0.130402, -290.190735, 13.726872, 100.771804
1759223388.054002, -0.404770, 10.635044, 3.325247, -0.419451, -0.626392, -0.990569, 64.346512, 1.066666, -290.412170, 13.726868, 100.771809
1759223388.074013, 1.805078, 12.240206, 3.436278, -0.819538, -1.592714, -0.705529, 63.371750, 1.952881, -290.867462, 13.726868, 100.771809
1759223388.094004, 3.745878, 11.729194, 3.307590, -1.161221, -2.425872, -0.290206, 62.150620, 2.731873, -292.481628, 13.726868, 100.771809
1759223388.114146, 5.076007, 10.628310, 2.782212, -1.989249, -2.166149, -0.688767, 60.463165, 4.135361, -293.530487, 13.726868, 100.771809
1759223388.133938, 7.740604, 9.529222, 0.678756, -3.345600, 0.801103, -1.349263, 59.982025, 6.594482, -292.371521, 13.726868, 100.771809
1759223388.154002, 8.341399, 8.071003, -1.023820, -3.278993, 1.684692, -1.285194, 61.028381, 9.084900, -290.727112, 13.726868, 100.771809
1759223388.173960, 4.966173, 7.963115, -3.884443, -2.372673, 2.288948, -0.399150, 61.989120, 10.961899, -289.479187, 13.726868, 100.771809
1759223388.194140, 2.300529, 8.203732, -4.713435, -1.123593, 3.400317, -0.049605, 64.213486, 11.731079, -287.238342, 13.726868, 100.771809
1759223388.214004, 1.212214, 8.253561, -2.925864, -0.389387, 3.505664, 0.244324, 65.899323, 12.123932, -284.351196, 13.726868, 100.771809
1759223388.233174, 0.090680, 9.520543, -1.062577, -0.199644, 2.619006, 0.182872, 67.046249, 12.032928, -282.996948, 13.726868, 100.771809
1759223388.253950, 0.856226, 10.306589, -1.248277, -0.057224, 1.937502, -0.154852, 68.162552, 12.205383, -282.268494, 13.726868, 100.771809
1759223388.273124, 1.689558, 9.249549, -0.112079, -0.015921, 1.420472, -0.390622, 68.726379, 12.718979, -280.513733, 13.726868, 100.771809
1759223388.293978, 2.631228, 8.340201, 0.972196, -0.147936, 0.616934, -0.638580, 68.859833, 13.145813, -280.061340, 13.726868, 100.771809
1759223388.314063, 4.305822, 7.633912, 0.579846, 0.011151, -0.096270, -0.902237, 68.562897, 13.608627, -279.790161, 13.726868, 100.771809
1759223388.333941, 6.896947, 8.233510, 0.775871, 0.171032, -0.636413, -0.727475, 68.378067, 14.422073, -280.325134, 13.726868, 100.771809
1759223388.354139, 7.084592, 9.021950, 2.002899, 0.132655, -1.071367, -0.458865, 67.884827, 14.690842, -280.687805, 13.726868, 100.771809
1759223388.373931, 6.962937, 9.474754, 2.442086, -0.027714, -1.309823, -0.180514, 67.032532, 14.950745, -281.665894, 13.726868, 100.771809
1759223388.393976, 6.850559, 10.229526, 2.177526, -0.075999, -1.160706, 0.153428, 66.915115, 15.071121, -281.816864, 13.726868, 100.771809
1759223388.413999, 6.230461, 10.622773, 0.908600, 0.036250, -0.483459, 0.569889, 66.474731, 14.323425, -282.258026, 13.726868, 100.771809
1759223388.434114, 5.662137, 11.557560, -0.543035, 0.363865, 0.418776, 0.921658, 67.515259, 13.771912, -283.190796, 13.726868, 100.771809
1759223388.454000, 7.145794, 15.844228, -1.717690, 0.970213, 0.592950, 1.626659, 68.422134, 12.512390, -283.513550, 13.726868, 100.771809
1759223388.474009, 7.638551, 15.956905, -2.327613, 1.592331, 0.331257, 1.922859, 69.127579, 11.166656, -283.216492, 13.726868, 100.771809
1759223388.493940, 8.277803, 11.527931, -1.770213, 2.007081, -0.668458, 1.915866, 69.269592, 8.447388, -283.895813, 13.726868, 100.771809
1759223388.513964, 9.531915, 10.775703, -2.063951, 2.129271, -1.851078, 2.917270, 69.491257, 5.581573, -285.364594, 13.726868, 100.771809
1759223388.533924, 5.673959, 14.973636, -1.507748, 2.054636, -2.131477, 3.697979, 69.116318, 2.141647, -286.967529, 13.726868, 100.771809
1759223388.553936, -0.626084, 17.688512, 2.489670, 1.735727, -2.796821, 2.823466, 67.959595, -0.877548, -289.146484, 13.726868, 100.771809
1759223388.573944, -3.701136, 17.829470, 6.978499, 1.088359, -3.704554, 0.984869, 65.754120, -1.836945, -291.549011, 13.726868, 100.771809
1759223388.593930, -4.106654, 16.026936, 6.539762, 0.662758, -2.542692, -0.361771, 63.973633, -2.722855, -293.023102, 13.726868, 100.771809
1759223388.614002, -4.283077, 13.517064, 4.465635, 0.845610, -0.720041, -0.774642, 63.990601, -3.062958, -293.450500, 13.726868, 100.771809
1759223388.633923, -3.035249, 9.980978, 2.910302, 0.845704, 0.535642, -0.594765, 64.100708, -3.197586, -293.904755, 13.726868, 100.771809
1759223388.653929, 1.553388, 8.336909, -1.545906, -0.632219, -0.255827, 0.544558, 64.021942, -3.309875, -293.187073, 13.726868, 100.771809
1759223388.673943, 1.560421, 9.694422, -3.971083, -0.606720, 0.312397, 1.716591, 64.268982, -3.966644, -293.354187, 13.726868, 100.771809
1759223388.693931, -0.326210, 9.054272, -0.682647, 0.338646, -0.588946, 1.815915, 63.893127, -5.568649, -293.401154, 13.726868, 100.771809
1759223388.713943, -1.439065, 5.452645, 0.602441, 0.877125, -1.528594, 1.214992, 62.739212, -6.619858, -294.597687, 13.726868, 100.771809
1759223388.734004, -0.798167, 4.021810, -0.287753, 0.566679, -2.095846, 0.756026, 61.222107, -7.518097, -295.803711, 13.726868, 100.771809
1759223388.753933, -0.298228, 3.986944, -0.009427, 0.361426, -1.880876, 0.496860, 59.666672, -8.296585, -296.667053, 13.726868, 100.771809
1759223388.773945, -0.448314, 4.809353, 1.454328, 0.305890, -2.168652, 0.275121, 58.099548, -8.651932, -297.193665, 13.726868, 100.771809
1759223388.793051, -1.709460, 4.993706, 1.580023, 0.061908, -2.325623, -0.162664, 56.211533, -9.108231, -298.133667, 13.726868, 100.771809
1759223388.813940, -2.802563, 4.703260, 0.834679, -0.431782, -1.860094, -0.965024, 55.000977, -8.699478, -299.587463, 13.726868, 100.771809
1759223388.833945, -3.238158, 4.281880, -0.006584, -0.678310, -0.966506, -1.330917, 54.393692, -7.544205, -299.771576, 13.726868, 100.771809
1759223388.853958, -2.732981, 3.789273, -2.430115, -0.644696, -0.262315, -1.455626, 54.284775, -7.040527, -300.011658, 13.726868, 100.771809
1759223388.873648, -0.318279, 4.473117, -4.503194, -0.504615, 0.128023, -1.306474, 54.219208, -5.879349, -300.345795, 13.726868, 100.771809
1759223388.893207, 1.744176, 7.411401, -7.304560, -0.378076, 0.120678, -1.276954, 54.806610, -5.230240, -300.349365, 13.726868, 100.771809
1759223388.913939, 5.489007, 13.226169, -10.062231, -0.388233, 1.211550, -0.325881, 55.212097, -4.611115, -300.223694, 13.726868, 100.771809
1759223388.933953, 9.147197, 18.999935, -9.491364, -0.464144, 2.402807, 0.903624, 57.140594, -4.570923, -299.404358, 13.726868, 100.771809
1759223388.953944, 7.660996, 17.814806, -8.830265, -0.368536, 1.071265, 0.897920, 58.188095, -5.110962, -298.519806, 13.726868, 100.771809
1759223388.973938, 7.153276, 11.567735, -6.139332, -0.294594, -1.102949, 0.596144, 58.143204, -5.205765, -298.659668, 13.726868, 100.771809
1759223388.993396, 3.957166, 9.657162, -3.755455, -0.186800, -0.488471, 0.668862, 57.553284, -5.385529, -298.991394, 13.726868, 100.771809
1759223389.014005, -1.747618, 10.462063, -1.219098, -0.512227, 0.282577, 0.041217, 57.605392, -5.528000, -299.031189, 13.726868, 100.771809
1759223389.033949, -5.836315, 13.638869, -2.430414, -0.385508, 0.208449, -0.842357, 57.609497, -4.994217, -298.573303, 13.726868, 100.771809
1759223389.053920, -3.943250, 16.881217, -0.560393, -0.563606, 0.167712, -0.601310, 57.979660, -4.610474, -298.231628, 13.726856, 100.771813
1759223389.073936, -1.196652, 14.278869, 6.416460, 0.056691, 1.668735, -1.081369, 58.350647, -3.790787, -297.760956, 13.726856, 100.771813
1759223389.093596, -3.526360, 8.201338, 4.125209, 0.353529, 3.794527, -0.987997, 60.600403, -4.111160, -297.045959, 13.726856, 100.771813
1759223389.113926, -4.491522, 5.050868, 2.564789, -0.079895, 4.882606, -0.780504, 63.572937, -3.356277, -294.481445, 13.726856, 100.771813
1759223389.133935, -4.329914, 5.753117, 2.650681, -0.446869, 4.980070, -0.955911, 66.830551, -2.682312, -290.963562, 13.726856, 100.771813
1759223389.153943, -3.891027, 7.538892, 3.046622, -0.727620, 3.894503, -1.180411, 69.371628, -2.012589, -288.479004, 13.726856, 100.771813
1759223389.173941, -3.250129, 9.041553, 3.001880, -0.635943, 2.199041, -1.160173, 71.404724, -0.487244, -286.402527, 13.726856, 100.771813
1759223389.193804, -2.021903, 11.390265, 1.915810, -0.053379, 0.863319, -0.876754, 71.698288, 0.417465, -285.182190, 13.726856, 100.771813
1759223389.213929, -0.136021, 12.714258, 2.000056, 0.243057, -0.550622, -0.600251, 71.898666, 1.027695, -284.517212, 13.726856, 100.771813
1759223389.233166, 2.106897, 14.663438, 3.156456, -0.329409, -2.135619, -0.342520, 70.598373, 1.214539, -286.198029, 13.726856, 100.771813
1759223389.253938, 4.862773, 13.190704, 3.900304, -1.889063, -2.069483, -0.147022, 70.073715, 1.944901, -287.900085, 13.726856, 100.771813
1759223389.273963, 6.802675, 9.487772, 3.437176, -3.001849, -1.360633, -0.751759, 68.728394, 3.398682, -288.262085, 13.726856, 100.771813
1759223389.293962, 10.463858, 8.552837, 1.390133, -3.050822, 1.298417, -1.063069, 68.519760, 5.713226, -288.339386, 13.726856, 100.771813
1759223389.313923, 13.518111, 5.703288, 1.000627, -2.545642, 4.444062, -0.069766, 69.945938, 7.735184, -285.477783, 13.726856, 100.771813
1759223389.333984, 14.305804, 6.087707, 0.979079, -1.401841, 6.822265, 1.298580, 72.877594, 8.228760, -280.681396, 13.726856, 100.771813
1759223389.353933, 8.939350, 8.494627, -0.553958, -0.851357, 8.787678, 1.667388, 76.300888, 6.896606, -274.099976, 13.726856, 100.771813
1759223389.373932, 0.899023, 10.658986, -3.251176, -1.138554, 4.827568, 0.469527, 77.950546, 6.488770, -268.030090, 13.726856, 100.771813
1759223389.393922, -3.165883, 10.459818, -8.895207, -0.042781, -2.037171, -0.267571, 77.656219, 6.210617, -267.726868, 13.726856, 100.771813
1759223389.412945, 0.123451, 9.477896, 1.234061, -0.222887, -0.412613, -0.370236, 77.541138, 6.346741, -268.949738, 13.726856, 100.771813
1759223389.433896, 0.693570, 8.670003, 5.065083, -0.119789, 1.299374, -0.383512, 77.418365, 6.880829, -268.036560, 13.726856, 100.771813
1759223389.453656, 0.884059, 7.581838, 3.022081, -0.306909, 0.970187, -0.477321, 77.755554, 6.857468, -267.036133, 13.726856, 100.771813
1759223389.473935, -0.055665, 8.375666, 1.586009, -0.349186, 0.497145, -0.745919, 77.622787, 7.704498, -266.256348, 13.726856, 100.771813
1759223389.493940, -0.575955, 9.426421, -0.454150, -0.219820, 0.717324, -0.983111, 77.219498, 7.944275, -265.578186, 13.726856, 100.771813
1759223389.513152, -1.033248, 9.769989, -0.136320, 0.018430, 1.096683, -1.127091, 77.244431, 9.107620, -264.790588, 13.726856, 100.771813
1759223389.533997, -0.660650, 8.984092, -0.232088, 0.302311, 1.373183, -1.062042, 77.073196, 9.875580, -263.823792, 13.726856, 100.771813
1759223389.553925, 2.671480, 9.164106, 1.160290, 0.559056, 1.413401, -0.963370, 76.732010, 10.542480, -263.387512, 13.726856, 100.771813
1759223389.573945, 5.330690, 10.261997, 2.201169, 0.669707, 1.351527, -0.936422, 76.308777, 11.513245, -261.961243, 13.726856, 100.771813
1759223389.594140, 6.686556, 9.364621, 2.828600, 0.678708, 1.079472, -0.634806, 76.558853, 11.896484, -261.793701, 13.726856, 100.771813
1759223389.613354, 8.668057, 9.132084, 2.555062, 0.755466, 0.470525, -0.171684, 76.222504, 12.127350, -261.112732, 13.726856, 100.771813
1759223389.633935, 10.562619, 9.802759, 2.011878, 0.663548, -0.340974, 0.276828, 75.699539, 11.773422, -261.335388, 13.726856, 100.771813
1759223389.653236, 10.209474, 10.050559, 1.058237, 0.658670, -0.669296, 0.759860, 76.277496, 11.643753, -262.299835, 13.726856, 100.771813
1759223389.673975, 9.688736, 14.860959, 0.262913, 0.967916, -1.070907, 1.377870, 76.479355, 10.569977, -263.180176, 13.726856, 100.771813
1759223389.693915, 7.993491, 14.532954, -0.507720, 0.941582, -1.962687, 1.686572, 76.057419, 8.975174, -265.322021, 13.726856, 100.771813
1759223389.713602, 6.089053, 11.180024, -4.260631, 1.232266, -2.471354, 2.156193, 75.942047, 7.318649, -267.254028, 13.726856, 100.771813
1759223389.733993, 6.264878, 13.182025, -3.192369, 2.343259, -3.036363, 3.056655, 75.794769, 4.684021, -269.688354, 13.726856, 100.771813
1759223389.754127, 3.405752, 16.220866, 0.347159, 2.576864, -2.982956, 3.479874, 75.133133, 1.936020, -273.123718, 13.726856, 100.771813
1759223389.773934, 1.874061, 17.746122, 1.959504, 2.448285, -2.245480, 2.988789, 74.395691, -0.946899, -275.135620, 13.726856, 100.771813
1759223389.794133, -1.616385, 19.754109, 4.917241, 1.952390, -1.659538, 1.848742, 73.623764, -3.480408, -276.381775, 13.726856, 100.771813
1759223389.813791, -3.437774, 18.011729, 6.568193, 1.156561, -0.422551, 0.715988, 73.137527, -4.357513, -277.269867, 13.726856, 100.771813
1759223389.833911, -4.600159, 14.970344, 4.144962, 0.727909, 0.760769, 0.050416, 73.286484, -4.643127, -277.602356, 13.726856, 100.771813
1759223389.853921, -4.736329, 10.710611, -0.636858, 0.264918, 0.244039, 0.476220, 73.170273, -4.577393, -276.710388, 13.726856, 100.771813
1759223389.873757, -2.286163, 9.460987, -2.341978, 0.140877, -0.178297, 1.090529, 72.937088, -5.258591, -277.412598, 13.726856, 100.771813
1759223389.893924, -2.588431, 8.592790, 0.123601, 0.199650, 1.165980, 0.661366, 73.089798, -6.018265, -277.254395, 13.726856, 100.771813
1759223389.913931, 2.672677, 8.231116, 5.824644, -0.447351, -0.871114, 1.071609, 72.744003, -6.454041, -277.704742, 13.726856, 100.771813
1759223389.933912, 2.773982, 6.807613, -1.372775, 0.165068, -0.760291, 1.449260, 72.697937, -7.505844, -278.630432, 13.726856, 100.771813
1759223389.953141, -0.202609, 5.382914, -0.071527, 0.523156, -1.174809, 0.933538, 72.254089, -8.666519, -278.991943, 13.726856, 100.771813
1759223389.973926, -0.443376, 4.718971, 0.120758, 0.248546, -1.747915, 0.770030, 71.374191, -8.701904, -280.316345, 13.726856, 100.771813
1759223389.993936, -1.191864, 4.204817, 0.914735, -0.102892, -2.000711, 0.543484, 70.500610, -8.985809, -281.740112, 13.726856, 100.771813
1759223390.013984, -2.085050, 4.224569, 1.287632, -0.304950, -2.054030, 0.205751, 69.073730, -9.103317, -283.244232, 13.726856, 100.771813
1759223390.033133, -3.290531, 3.980809, 1.455675, -0.412885, -2.018331, -0.218086, 68.575089, -9.004745, -284.990448, 13.726856, 100.771813
1759223390.053988, -4.372411, 3.292925, 0.641945, -0.422400, -1.994139, -0.786818, 67.518509, -8.153488, -285.561768, 13.726843, 100.771815
1759223390.073924, -4.530877, 2.915240, -0.430208, -0.562912, -1.684624, -1.395810, 66.781433, -7.030594, -287.151001, 13.726843, 100.771815
1759223390.093918, -2.632724, 4.109498, -2.514361, -0.743912, -1.438953, -1.805532, 65.804337, -5.580795, -288.046051, 13.726843, 100.771815
1759223390.114135, 2.240673, 8.090905, -7.710078, -0.488808, -0.647972, -1.810602, 65.512314, -4.015457, -288.962860, 13.726843, 100.771815
1759223390.133971, 8.566454, 17.239449, -9.848698, -0.251506, 1.082656, -0.910654, 65.894516, -3.080566, -288.539246, 13.726843, 100.771815
1759223390.154118, 11.195736, 21.096209, -8.137592, -0.398352, 1.721469, 0.771964, 67.166336, -3.218857, -287.636047, 13.726843, 100.771815
1759223390.173976, 10.022876, 13.356802, -5.606472, -0.663114, 1.679492, 0.995676, 67.908081, -3.429779, -287.169495, 13.726843, 100.771815
1759223390.194122, 7.122451, 6.978499, -6.202778, -0.271673, 1.554067, 0.518929, 68.495453, -3.631348, -286.297852, 13.726843, 100.771815
1759223390.213979, 3.645621, 9.142259, 0.243460, 0.034271, 1.701645, 0.472502, 69.307907, -3.605240, -285.091431, 13.726843, 100.771815
1759223390.233269, -2.761562, 13.611186, 1.664569, -0.133230, 0.857976, -0.405076, 70.308167, -3.542603, -284.641479, 13.726843, 100.771815
1759223390.253945, -3.096601, 17.780090, -1.835006, 0.046515, -0.237554, -0.708160, 70.085358, -2.715439, -284.338562, 13.726843, 100.771815
1759223390.274003, -3.479673, 11.930756, 0.329502, 0.647776, -0.026108, -0.782794, 69.972122, -2.732727, -285.025513, 13.726843, 100.771815
1759223390.293922, -3.782240, 8.168567, 2.305915, 0.619600, 0.884047, -1.146855, 70.708344, -2.317856, -283.916199, 13.726843, 100.771815
1759223390.313987, -4.670938, 7.176619, 3.833266, 0.069409, 0.915699, -1.321196, 71.144028, -1.397522, -283.787720, 13.726843, 100.771815
1759223390.333972, -3.482965, 8.591742, 4.321085, -0.458249, 0.457119, -1.303467, 70.985596, -0.452835, -283.253540, 13.726843, 100.771815
1759223390.354118, -1.282394, 11.284770, 4.453065, -0.802060, -0.673909, -1.028351, 70.569427, 0.632294, -283.621765, 13.726843, 100.771815
1759223390.373918, -0.242563, 11.466281, 4.141969, -1.065360, -1.679833, -1.098717, 69.811295, 1.598740, -284.288269, 13.726843, 100.771815
1759223390.394113, 2.169596, 11.552622, 3.377919, -1.143527, -2.234765, -1.088945, 68.691727, 3.259354, -285.669006, 13.726843, 100.771815
1759223390.413011, 5.094711, 11.638813, 2.168099, -1.327558, -1.561773, -0.815652, 68.094177, 4.424072, -287.068665, 13.726843, 100.771815
1759223390.433960, 7.211934, 9.752631, 0.512958, -1.656266, 0.592431, -0.855934, 67.913818, 5.589706, -286.855713, 13.726843, 100.771815
1759223390.453955, 7.723695, 8.121581, 0.477943, -1.781495, 1.915341, -1.072722, 68.706192, 7.349915, -285.131561, 13.726843, 100.771815
1759223390.473906, 6.265476, 7.542483, 0.166696, -1.954721, 2.210911, -0.496123, 69.415329, 8.417450, -283.182739, 13.726843, 100.771815
1759223390.493914, 3.221249, 7.351995, -0.934936, -2.018653, 2.237926, 0.164875, 70.821991, 9.442245, -281.859192, 13.726843, 100.771815
1759223390.513176, 1.288978, 6.832453, -2.279579, -1.641629, 2.515614, 0.283990, 71.954025, 9.979156, -279.776031, 13.726843, 100.771815
1759223390.533969, -0.158466, 7.199664, -2.066495, -1.166660, 2.865254, -0.081484, 72.650528, 10.290054, -277.061127, 13.726843, 100.771815
1759223390.553916, -1.183185, 8.250120, -2.767398, -0.400987, 2.156775, -0.476204, 73.878922, 10.754013, -274.525543, 13.726843, 100.771815
1759223390.573999, -2.660257, 9.252093, -2.332701, -0.126037, 0.655505, -0.961825, 74.143326, 11.274200, -273.564423, 13.726843, 100.771815
1759223390.594107, -0.870442, 10.517429, -0.948702, -0.223127, 0.142027, -0.992528, 73.910156, 11.961212, -272.617096, 13.726843, 100.771815
1759223390.613353, 3.167379, 9.394099, -2.046444, 0.280995, 0.565098, -0.893377, 73.348999, 13.009476, -272.624329, 13.726843, 100.771815
1759223390.633966, 6.471078, 8.736292, -0.935235, 0.841410, 0.465528, -0.668068, 73.877289, 13.536880, -272.174561, 13.726843, 100.771815
1759223390.653948, 8.097789, 8.126070, 1.866879, 0.854563, -0.444249, -0.229303, 73.594254, 13.848328, -272.359680, 13.726843, 100.771815
1759223390.674044, 9.282320, 8.537125, 3.358017, 0.554560, -1.124885, 0.425299, 73.657318, 13.501740, -273.091370, 13.726843, 100.771815
1759223390.693943, 10.104130, 9.271097, 2.822464, 0.242455, -1.082921, 0.900723, 73.428360, 12.972290, -274.465698, 13.726843, 100.771815
1759223390.713762, 9.965715, 10.105476, 2.274641, 0.140793, -0.597990, 1.145949, 73.726074, 12.356918, -275.253021, 13.726843, 100.771815
1759223390.733897, 10.819248, 15.274408, -0.105495, 0.884124, -0.295528, 1.712143, 73.937088, 10.980453, -276.143372, 13.726843, 100.771815
1759223390.753640, 8.693945, 15.897649, -1.463905, 1.411142, 0.623228, 1.608740, 74.312698, 9.609940, -276.856445, 13.726843, 100.771815
1759223390.773935, 7.964461, 14.473248, -6.383989, 2.239415, 3.687897, 2.372482, 75.408844, 7.519135, -274.901672, 13.726843, 100.771815
1759223390.794106, 8.535778, 13.892505, -15.840038, 3.083258, -1.049365, 3.816018, 76.828369, 4.285187, -273.526733, 13.726843, 100.771815
1759223390.813756, 2.736872, 15.310022, 1.825728, 2.565386, -5.136893, 3.636277, 76.139694, 0.635132, -276.177521, 13.726843, 100.771815
1759223390.833923, -1.881843, 16.609026, 4.265869, 2.322674, -6.077455, 1.743416, 74.581207, -2.655243, -281.501587, 13.726843, 100.771815
1759223390.853952, -2.657564, 17.529447, 6.304681, 1.806777, -3.751023, -0.115070, 72.358002, -4.331619, -285.037476, 13.726843, 100.771815
1759223390.873951, -1.837849, 17.593192, 9.181314, 1.037365, 0.553570, -0.645699, 71.209259, -4.415817, -286.152954, 13.726843, 100.771815
1759223390.893938, -1.501314, 13.485042, 6.440851, 0.655651, 2.635432, -0.167743, 72.568344, -4.357025, -285.186523, 13.726843, 100.771815
1759223390.913972, -1.472135, 10.358513, 3.839551, -1.176914, 2.842993, 0.624936, 74.151550, -4.658142, -282.750458, 13.726843, 100.771815
1759223390.933948, 1.785177, 9.631125, -0.828843, -1.987001, 1.224704, 1.373140, 75.340820, -4.933167, -281.498016, 13.726843, 100.771815
1759223390.953911, 1.921796, 10.767323, -5.052214, -0.742646, -0.483881, 1.343056, 75.209625, -5.593140, -281.292664, 13.726843, 100.771815
1759223390.973984, -3.245340, 9.515904, 1.489792, -0.732648, -1.130799, 0.829231, 75.325134, -5.810104, -282.072968, 13.726843, 100.771815
1759223390.994111, -1.144129, 7.201010, 2.401085, -0.284570, -1.202110, 0.684121, 74.701035, -6.752411, -282.055298, 13.726843, 100.771815
1759223391.013908, -2.104503, 4.764162, -1.266233, 0.025203, -1.725098, 0.347003, 73.721100, -6.967453, -283.517120, 13.726843, 100.771815
1759223391.033967, -1.506402, 2.736722, -0.893187, -0.184283, -1.911082, 0.177087, 72.932678, -7.190094, -284.927734, 13.726843, 100.771815
1759223391.053979, -0.641047, 2.444929, -0.164901, -0.358358, -1.762167, 0.043721, 72.136688, -7.041534, -286.498322, 13.726827, 100.771825
1759223391.073913, -0.820313, 2.260725, 0.471658, -0.569468, -1.600559, -0.349262, 71.480042, -6.523117, -287.455231, 13.726827, 100.771825
1759223391.093947, -1.515979, 2.937985, -0.696713, -0.616262, -1.825063, -0.840702, 70.721069, -6.366257, -288.619049, 13.726827, 100.771825
1759223391.113987, -1.806425, 3.907936, -2.729839, -0.504633, -2.823637, -1.383345, 69.705765, -5.330414, -290.540771, 13.726827, 100.771825
1759223391.133914, -0.773327, 5.787384, -6.812551, 0.143186, -4.617952, -1.762375, 67.097137, -4.217514, -293.085022, 13.726827, 100.771825
1759223391.153923, 7.402423, 8.783727, -9.054721, 0.093931, -2.845391, -1.166985, 64.149811, -3.531631, -295.475769, 13.726827, 100.771825
1759223391.173916, 10.915614, 15.609746, -6.522554, -0.540474, 1.228233, 0.066694, 64.214386, -3.140274, -295.712708, 13.726827, 100.771825
1759223391.193086, 3.933973, 21.280861, -5.509657, -0.684738, 1.950460, 0.860823, 65.317703, -3.104111, -295.342529, 13.726827, 100.771825
1759223391.213906, 2.245312, 12.915222, -5.193173, -0.252183, 1.362729, 0.942911, 66.487991, -3.436935, -293.955139, 13.726827, 100.771825
1759223391.233156, 0.169539, 6.953809, -5.584176, 0.356953, 1.263156, 0.525509, 67.403580, -3.947739, -293.819397, 13.726827, 100.771825
1759223391.253904, -0.123301, 9.390059, -6.442647, 0.235271, 2.229182, 0.200576, 68.651276, -4.698990, -291.414673, 13.726827, 100.771825
1759223391.273921, 1.948431, 15.814301, 1.399112, -0.302797, 0.785608, -0.160213, 69.596573, -4.718109, -290.189148, 13.726827, 100.771825
1759223391.293909, 1.733103, 16.353894, 6.526444, 0.122928, 0.441641, -0.464853, 69.610565, -4.458298, -290.337585, 13.726827, 100.771825
1759223391.313913, 0.744597, 11.423484, 0.268151, 0.763381, 2.409084, -0.899982, 70.547165, -4.463425, -289.483887, 13.726827, 100.771825
1759223391.333912, -4.880430, 8.206725, 0.054468, 0.465531, 2.796082, -1.499462, 72.202667, -4.211594, -287.293213, 13.726827, 100.771825
1759223391.353927, -5.733664, 6.897396, 3.273622, 0.298893, 1.533618, -1.672123, 73.519730, -3.348740, -285.584412, 13.726827, 100.771825
1759223391.373913, -3.566313, 9.140463, 4.328717, -0.077509, -0.022054, -1.510787, 73.611908, -2.114349, -285.338043, 13.726827, 100.771825
1759223391.393949, -1.272219, 9.866355, 4.656573, -0.634788, -2.006579, -1.122510, 72.945312, -1.362610, -285.668762, 13.726827, 100.771825
1759223391.413427, -0.538695, 10.474483, 4.348918, -0.999892, -3.484684, -0.971491, 71.378220, -0.339111, -287.133148, 13.726827, 100.771825
1759223391.433741, 3.317316, 13.458855, 1.780239, -1.554969, -2.666090, -0.762090, 69.570587, 1.130508, -290.160339, 13.726827, 100.771825
1759223391.453169, 5.431097, 13.372215, 0.790685, -2.116166, 0.062252, -0.509429, 68.437622, 2.175858, -290.418671, 13.726827, 100.771825
1759223391.473914, 6.001665, 8.590545, 0.141856, -1.765213, 1.111760, -0.716861, 69.301529, 3.983963, -289.649963, 13.726827, 100.771825
1759223391.493902, 6.836344, 8.388086, -0.138564, -1.581598, 1.605402, -0.841912, 70.095306, 5.208954, -288.708221, 13.726827, 100.771825
1759223391.513904, 4.898836, 7.742998, -0.342072, -1.683496, 1.907287, -0.324163, 70.823822, 6.621384, -286.647461, 13.726827, 100.771825
1759223391.533898, 1.958607, 7.439533, -1.328034, -1.603584, 1.984769, 0.026066, 71.806152, 7.350418, -285.652344, 13.726827, 100.771825
1759223391.553919, 0.546177, 6.490232, -2.096423, -1.297900, 2.287812, -0.164852, 73.161453, 7.744476, -283.031372, 13.726827, 100.771825
1759223391.573918, 0.748936, 7.247398, -2.251747, -0.640300, 1.955965, -0.232525, 73.927017, 8.416733, -281.024231, 13.726827, 100.771825
1759223391.593915, 0.542137, 8.531738, -1.045518, -0.079396, 1.221434, -0.312825, 74.492126, 8.514053, -280.587952, 13.726827, 100.771825
1759223391.613963, 0.956783, 9.236082, 0.789638, -0.111103, 0.653031, -0.554543, 74.866730, 8.994751, -279.214172, 13.726827, 100.771825
1759223391.633936, 1.193210, 9.888053, 1.243937, -0.452574, 0.604397, -0.803116, 74.294830, 9.438370, -279.159882, 13.726827, 100.771825
1759223391.653934, 1.384148, 9.317634, 0.612167, -0.530503, 0.423671, -0.964995, 74.681030, 10.067627, -278.339294, 13.726827, 100.771825
1759223391.673939, 2.107197, 8.479215, 0.498892, -0.409219, 0.248427, -1.033514, 74.580414, 11.092667, -278.420654, 13.726827, 100.771825
1759223391.693963, 5.078251, 8.820987, 1.146823, -0.170690, -0.441361, -1.069970, 73.801834, 11.943573, -279.028259, 13.726827, 100.771825
1759223391.713958, 7.563283, 9.168146, 1.532139, 0.037924, -0.924820, -0.837923, 73.510941, 12.248184, -278.893005, 13.726827, 100.771825
1759223391.733891, 9.195380, 10.084228, 1.877802, -0.188448, -0.656803, -0.380217, 73.355835, 12.730637, -279.676147, 13.726827, 100.771825
1759223391.753964, 9.756072, 9.844059, 1.559523, -0.420769, -0.039661, 0.120928, 73.696106, 12.757690, -279.753845, 13.726827, 100.771825
1759223391.773974, 8.625560, 10.296115, -0.024989, -0.100053, 0.462126, 0.667569, 73.983154, 12.351547, -279.012665, 13.726827, 100.771825
1759223391.794092, 7.434894, 13.478906, -1.037438, 0.509986, 0.769032, 1.329241, 74.102966, 11.664841, -278.054565, 13.726827, 100.771825
1759223391.813906, 6.917746, 15.523255, -1.543811, 1.207608, 0.306775, 1.725837, 74.700607, 9.493423, -278.718658, 13.726827, 100.771825
1759223391.833938, 6.977153, 15.607352, -2.678663, 1.419478, -0.376008, 1.894326, 74.656738, 7.137207, -278.746399, 13.726827, 100.771825
1759223391.853902, 5.652560, 12.297368, -5.188534, 1.522993, -1.882862, 2.270069, 74.600281, 4.932632, -279.952637, 13.726827, 100.771825
1759223391.874021, 5.520131, 12.795960, -5.651363, 2.502100, -3.147924, 3.123114, 74.198090, 1.795181, -282.122498, 13.726827, 100.771825
1759223391.893977, 0.521786, 16.614263, 1.713799, 2.560152, -3.358269, 2.888159, 72.278442, -1.861038, -285.181793, 13.726827, 100.771825
1759223391.913982, -1.665167, 17.103877, 5.522525, 2.074612, -2.320335, 1.379986, 71.128220, -4.340714, -286.216431, 13.726827, 100.771825
1759223391.933955, -2.121861, 17.931673, 7.362918, 1.391310, -0.312412, 0.062724, 70.580353, -5.358810, -286.970825, 13.726827, 100.771825
1759223391.954112, -2.713977, 14.551958, 6.252308, 0.792525, 1.212258, -0.334864, 71.071152, -5.827499, -286.099182, 13.726827, 100.771825
1759223391.973890, -3.357569, 10.674398, 2.821567, 0.607960, 1.452844, -0.100605, 71.403824, -6.131271, -284.252899, 13.726827, 100.771825
1759223391.993938, -0.537349, 9.993697, -4.566491, -0.389472, 0.051616, 1.050331, 71.973343, -6.488571, -284.660736, 13.726827, 100.771825
1759223392.013915, -0.396390, 10.213664, -3.952677, 0.024146, -0.478126, 1.376462, 71.302216, -7.554337, -284.555603, 13.726827, 100.771825
1759223392.032988, -2.348113, 9.071480, 2.744204, 0.047497, 0.022133, 0.871716, 71.272812, -8.679077, -284.536987, 13.726827, 100.771825
1759223392.053544, 1.042974, 7.337779, 5.801899, -0.725643, -1.419334, 0.800258, 70.401062, -9.149017, -285.455933, 13.726819, 100.771828
1759223392.073907, 4.214842, 6.073491, -1.761235, 0.128456, -0.824759, 1.310797, 69.414749, -9.654846, -285.652222, 13.726819, 100.771828
1759223392.093896, -0.506374, 3.793463, -0.815226, 0.539632, -0.736938, 0.877416, 69.318970, -10.831726, -285.845764, 13.726819, 100.771828
1759223392.113983, -0.715567, 3.243694, 0.794127, 0.127100, -1.276977, 0.596116, 68.775070, -11.470901, -286.679474, 13.726819, 100.771828
1759223392.133165, -0.769736, 3.293374, 0.811036, 0.006140, -1.506276, 0.489008, 67.591278, -11.735397, -287.516602, 13.726819, 100.771828
1759223392.154089, -1.723526, 3.853468, 0.598850, -0.057553, -1.977414, 0.185083, 66.846405, -12.494339, -288.421021, 13.726819, 100.771828
1759223392.173904, -3.106926, 4.248361, -0.095918, -0.252656, -2.452561, -0.330478, 65.224548, -11.829498, -290.018707, 13.726819, 100.771828
1759223392.193913, -3.446603, 5.171027, -1.841141, -0.495073, -2.871667, -0.938269, 63.905014, -11.181259, -291.574158, 13.726819, 100.771828
1759223392.213907, 0.388908, 6.561459, -4.905270, -0.593506, -2.140654, -1.377125, 62.718719, -9.950989, -293.065613, 13.726819, 100.771828
1759223392.233385, 7.258322, 9.989806, -6.840234, -0.545481, -0.274409, -1.047084, 62.416412, -9.391861, -293.663818, 13.726819, 100.771828
1759223392.253887, 8.584260, 16.098163, -7.442226, -0.846763, 1.667348, 0.347785, 63.066330, -8.707993, -292.588074, 13.726819, 100.771828
1759223392.273493, 9.444976, 16.048783, -6.298546, -0.824714, 2.074864, 0.694221, 64.159958, -8.282135, -292.740723, 13.726819, 100.771828
1759223392.293142, 9.091233, 10.555736, -6.562507, -0.378153, 1.767465, 0.904882, 65.664810, -8.888672, -291.681030, 13.726819, 100.771828
1759223392.313971, 5.127332, 10.360459, -5.484966, 0.055140, 0.798075, 0.548541, 65.751236, -9.494278, -290.804260, 13.726819, 100.771828
1759223392.333560, 2.993201, 15.160833, 0.609624, 0.329889, -0.070204, 0.266049, 65.954422, -9.988419, -289.814880, 13.726819, 100.771828
1759223392.353956, -0.894683, 16.525229, 3.369091, 0.460616, 0.399994, -0.530709, 65.867050, -10.231644, -290.041138, 13.726819, 100.771828
1759223392.373902, -2.010232, 9.383924, 0.606332, 0.433621, 2.041952, -0.844210, 66.316544, -10.079346, -289.121094, 13.726819, 100.771828
1759223392.393894, -6.709451, 7.483676, -1.491737, 0.257111, 1.148254, -0.875766, 67.749008, -10.035873, -288.023804, 13.726819, 100.771828
1759223392.413908, -5.471649, 6.145467, 1.892766, 0.418102, 0.602996, -1.300197, 68.400711, -9.575989, -287.173889, 13.726819, 100.771828
1759223392.433729, -6.324134, 9.247604, 3.139696, 0.158567, -0.397272, -1.773864, 68.408356, -8.602890, -286.368347, 13.726819, 100.771828
1759223392.453967, -2.706196, 12.762142, 4.711639, -0.300464, -2.203112, -1.394353, 68.550751, -7.728317, -287.519897, 13.726819, 100.771828
1759223392.473898, -2.497901, 12.217013, 5.104887, -0.870683, -3.336141, -1.217979, 67.002502, -6.179657, -289.006561, 13.726819, 100.771828
1759223392.493888, 0.088286, 11.272201, 4.029441, -1.397902, -3.590866, -0.868862, 64.291367, -5.522202, -291.544525, 13.726819, 100.771828
1759223392.513895, 1.838298, 10.311827, 3.011008, -2.052744, -2.213332, -0.537524, 63.083649, -3.553970, -292.956390, 13.726819, 100.771828
1759223392.533887, 4.542399, 9.282170, 0.615609, -2.577066, 1.004866, -0.604192, 62.272324, -2.115280, -293.495483, 13.726819, 100.771828
1759223392.553888, 5.808333, 8.846575, -0.194529, -2.223873, 2.109334, -0.815830, 62.914185, -0.364960, -292.967377, 13.726819, 100.771828
1759223392.573900, 6.030695, 8.572738, -0.913538, -1.730453, 2.683052, -0.526406, 64.544632, 1.538437, -291.037964, 13.726819, 100.771828
1759223392.593898, 4.154838, 7.427113, -1.314267, -1.495612, 3.455508, 0.030466, 66.331100, 2.309097, -289.626038, 13.726819, 100.771828
1759223392.613881, 2.341230, 7.522282, -1.560271, -1.240519, 3.963464, 0.043093, 68.512527, 3.175919, -286.926147, 13.726819, 100.771828
1759223392.633939, 1.172560, 8.211663, -1.572841, -0.911231, 3.941671, -0.356083, 70.706375, 3.468201, -284.033783, 13.726819, 100.771828
1759223392.653955, 1.241543, 9.262418, -1.314267, -0.380030, 2.770796, -0.690567, 72.303299, 3.979233, -281.022095, 13.726819, 100.771828
1759223392.673942, 2.220023, 9.299079, -0.769287, -0.175960, 1.220370, -0.858355, 72.677261, 4.732208, -279.912537, 13.726819, 100.771828
1759223392.693915, 2.863316, 9.471911, -0.126743, -0.803997, 0.543989, -0.996540, 73.142426, 5.800125, -278.700500, 13.726819, 100.771828
1759223392.714000, 3.414281, 9.610774, -0.543334, -1.223438, 0.282623, -1.053365, 73.020370, 7.099762, -278.083801, 13.726819, 100.771828
1759223392.733947, 5.579388, 8.939350, -1.130811, -0.505584, -0.907570, -1.005103, 73.135696, 7.580109, -278.051575, 13.726819, 100.771828
1759223392.753888, 7.408558, 7.819612, -0.270844, 0.384249, -2.529417, -0.634241, 72.215210, 8.305298, -278.801514, 13.726819, 100.771828
1759223392.773908, 7.597101, 7.601890, 1.520318, 0.564878, -3.147624, 0.164453, 70.571747, 8.273346, -281.047974, 13.726819, 100.771828
1759223392.794083, 7.509713, 8.914511, 2.083105, 0.339090, -2.248968, 0.566508, 69.861557, 7.767288, -283.001892, 13.726819, 100.771828
1759223392.813928, 6.429329, 10.910527, 2.661155, 0.007946, -0.517613, 0.822687, 69.418579, 7.246124, -284.154419, 13.726819, 100.771828
1759223392.834088, 4.414160, 11.835736, 3.206883, -0.136489, 1.303496, 0.810219, 69.850174, 6.526413, -283.847717, 13.726819, 100.771828
1759223392.853271, 4.063708, 11.634922, 2.590077, 0.055601, 2.181772, 1.001302, 70.710114, 5.675354, -282.757019, 13.726819, 100.771828
1759223392.873965, 4.947468, 12.868984, 0.413598, 0.382548, 2.340707, 1.650264, 72.042999, 4.620926, -280.821289, 13.726819, 100.771828
1759223392.893918, 5.139902, 16.787992, -5.010166, 1.454199, 2.748076, 2.043631, 73.394714, 2.754700, -279.500244, 13.726819, 100.771828
1759223392.913937, 8.288577, 15.128362, -8.486098, 2.672833, 0.746467, 2.467099, 74.476334, 0.670715, -277.673035, 13.726819, 100.771828
1759223392.934056, 7.590816, 10.777948, -2.870349, 2.416784, -2.038732, 2.783654, 74.430618, -2.406693, -278.254700, 13.726819, 100.771828
1759223392.953924, 6.370372, 11.897237, -0.244508, 2.026828, -2.042816, 3.045762, 73.408630, -5.667496, -279.987793, 13.726819, 100.771828
1759223392.973895, 3.219603, 17.086669, 0.366014, 1.934029, -1.174500, 2.282231, 72.647018, -8.504562, -280.780792, 13.726819, 100.771828
1759223392.994101, -1.232715, 18.820370, 3.400365, 1.579175, -0.495586, 1.072463, 71.883530, -10.440201, -281.230408, 13.726819, 100.771828
1759223393.013886, -2.416348, 15.443947, 4.008791, 1.288441, 0.222853, 0.355167, 71.527176, -11.731216, -281.217896, 13.726819, 100.771828
1759223393.033897, -3.102137, 12.335526, 3.141043, 0.897337, -0.058953, 0.122498, 72.062958, -12.388489, -280.183685, 13.726819, 100.771828
1759223393.053644, -4.190451, 10.376769, 0.563535, 0.294007, -1.199358, 0.413280, 71.353302, -12.548553, -280.943054, 13.726801, 100.771819
1759223393.073907, -0.939724, 10.368988, -0.569670, 0.073178, -1.391844, 0.330453, 70.455780, -12.777786, -281.422546, 13.726801, 100.771819
1759223393.093916, -1.033098, 10.378715, 2.976890, -0.450218, -1.126832, 0.035120, 69.741043, -12.941650, -282.134613, 13.726801, 100.771819
1759223393.113912, 1.500267, 8.114099, 4.657470, -0.941156, -0.564830, 0.251137, 69.064346, -12.707458, -283.239502, 13.726801, 100.771819
1759223393.133891, 7.208792, 5.405958, -2.253692, 0.219179, 0.382965, 1.337237, 69.085449, -12.757935, -283.857727, 13.726801, 100.771819
1759223393.153922, 0.193332, 2.068890, -0.694318, 0.632454, -0.338454, 0.616499, 68.856125, -13.662048, -283.315186, 13.726801, 100.771819
1759223393.173958, 0.060304, 0.981024, -0.256778, 0.135411, -1.557990, 0.396980, 68.086105, -14.406891, -284.037476, 13.726801, 100.771819
1759223393.194086, -0.777068, 1.405396, -0.073622, 0.031373, -1.724167, 0.422574, 67.139450, -14.576569, -284.928711, 13.726801, 100.771819
1759223393.213890, -2.128146, 2.394950, 0.364368, 0.006769, -1.760685, 0.176703, 66.155685, -14.704315, -285.587891, 13.726801, 100.771819
1759223393.233185, -3.223493, 4.175338, 0.180613, -0.246665, -1.754019, -0.181447, 65.319565, -14.956055, -286.827271, 13.726801, 100.771819
1759223393.253904, -3.836259, 6.082619, -1.003470, -0.567491, -1.637780, -0.733321, 64.652405, -14.528275, -287.985229, 13.726801, 100.771819
1759223393.273891, -2.267758, 7.813327, -3.607763, -0.727675, -1.510633, -1.346412, 64.081146, -13.500153, -288.185272, 13.726801, 100.771819
1759223393.293904, 4.282479, 12.468703, -9.894038, -0.185554, -0.592865, -1.457847, 63.670898, -12.407928, -289.531281, 13.726801, 100.771819
1759223393.313884, 9.032575, 19.873370, -9.757419, 0.119911, 1.985599, -0.477948, 63.886566, -11.711777, -288.658539, 13.726801, 100.771819
1759223393.333871, 10.624120, 17.857153, -7.162254, -0.261740, 3.127682, 0.753676, 65.876053, -11.797882, -287.038422, 13.726801, 100.771819
1759223393.353883, 7.285107, 9.794829, -6.445789, -0.140788, 1.776315, 0.747145, 66.996246, -12.015991, -285.492554, 13.726801, 100.771819
1759223393.373908, 3.815759, 5.071967, -4.733636, 0.351972, 1.072192, 0.136683, 67.055771, -12.280563, -284.760132, 13.726801, 100.771819
1759223393.393896, 1.701978, 3.424008, 1.621623, 0.187429, 1.135799, -0.171065, 67.863251, -12.215775, -283.780701, 13.726801, 100.771819
1759223393.413255, -0.932093, 5.819406, 4.744111, -0.574117, 0.482641, -0.463995, 68.320435, -11.641159, -283.662170, 13.726801, 100.771819
1759223393.433874, -0.600645, 13.312360, 6.773196, -1.120241, -1.418944, -0.844108, 68.225128, -10.674271, -284.155945, 13.726801, 100.771819
1759223393.453908, 4.274249, 18.965968, 2.014421, -0.494526, -0.113082, -0.399017, 67.765823, -9.919434, -284.731812, 13.726801, 100.771819
1759223393.473893, 1.229722, 16.237625, -0.347459, 0.555274, 2.692157, -0.409475, 68.487503, -9.616165, -283.470886, 13.726801, 100.771819
1759223393.493881, 0.978181, 11.726949, 0.826897, -0.084999, 4.826389, -0.541129, 69.959763, -9.404602, -280.910278, 13.726801, 100.771819
1759223393.513882, -0.613813, 8.271817, 2.274940, -1.072791, 3.966792, -0.704251, 71.922531, -8.025055, -277.622803, 13.726801, 100.771819
1759223393.533878, -1.184082, 7.797915, 1.274912, -0.815244, 0.927125, -0.771329, 73.137238, -7.405243, -276.374023, 13.726801, 100.771819
1759223393.553603, -0.966659, 9.557354, 0.572214, -0.231855, -1.071525, -0.678388, 73.047119, -7.075073, -277.252747, 13.726801, 100.771819
1759223393.573889, -1.036091, 10.297312, 1.167921, -0.319029, -2.213571, -0.988127, 71.931686, -6.230667, -278.242828, 13.726801, 100.771819
1759223393.594074, -0.539144, 10.810269, 1.423353, -1.013717, -2.706782, -1.443684, 71.318817, -4.865723, -279.589691, 13.726801, 100.771819
1759223393.613954, 1.675193, 10.900950, 1.252167, -1.692233, -2.630320, -1.524202, 69.985641, -3.020004, -281.467346, 13.726801, 100.771819
1759223393.634077, 2.229900, 8.652944, 0.053271, -1.735244, -1.767461, -1.420686, 68.976608, -1.579941, -283.707581, 13.726801, 100.771819
1759223393.653944, 2.890400, 6.231658, -0.576404, -1.581531, -0.319674, -1.395834, 68.480988, -0.114471, -283.943115, 13.726801, 100.771819
1759223393.673924, 2.836231, 6.751798, -0.888997, -1.524315, 0.902052, -1.167518, 68.861557, 1.457397, -283.718170, 13.726801, 100.771819
1759223393.693945, 1.884985, 6.158336, -1.145775, -1.205124, 1.675782, -0.818239, 69.495560, 2.806870, -282.752869, 13.726801, 100.771819
1759223393.713892, 1.848922, 7.056311, -0.225654, -0.688267, 1.987205, -0.663831, 69.629272, 3.959946, -281.383698, 13.726801, 100.771819
1759223393.733879, 2.925116, 8.738686, 0.947505, -0.458351, 1.782925, -0.648719, 70.668518, 4.363556, -280.359680, 13.726801, 100.771819
1759223393.753029, 3.790769, 9.229198, 2.141763, -0.577777, 0.982990, -0.710059, 70.921005, 5.046341, -278.470581, 13.726801, 100.771819
1759223393.773902, 3.970933, 9.363423, 3.098097, -1.179275, 0.061489, -0.824419, 70.962891, 6.342651, -278.011078, 13.726801, 100.771819
1759223393.794074, 4.118925, 11.018415, 1.124377, -1.747858, 0.600597, -0.908948, 70.886459, 7.348297, -277.702820, 13.726801, 100.771819
1759223393.813947, 4.130746, 9.030929, -0.889745, -1.156147, 0.913839, -0.933291, 70.767014, 8.500427, -277.036743, 13.726801, 100.771819
1759223393.834057, 5.884349, 7.237971, -0.349404, -0.161758, 0.238157, -0.658469, 70.770340, 9.419006, -276.822449, 13.726801, 100.771819
1759223393.853219, 6.544101, 7.263559, 0.843657, 0.210527, 0.071791, -0.131139, 70.752655, 9.417023, -276.678101, 13.726801, 100.771819
1759223393.873916, 6.798934, 11.477653, 1.027561, 0.177766, 0.568329, 0.453897, 70.772018, 9.766571, -276.921295, 13.726801, 100.771819
1759223393.893943, 4.100370, 12.833370, 0.887052, 0.457357, 0.588902, 0.789686, 70.834854, 9.085861, -276.256134, 13.726801, 100.771819
1759223393.913894, 3.571401, 12.258013, 0.305261, 0.736610, 0.676023, 0.832503, 71.048996, 8.469833, -276.714752, 13.726801, 100.771819
1759223393.933900, 4.073584, 12.092813, -1.434725, 1.041277, 1.219140, 0.811477, 71.643509, 7.659927, -275.577026, 13.726801, 100.771819
1759223393.953360, 7.460482, 12.362909, -5.357026, 1.467505, 1.380714, 0.961727, 72.011719, 6.627579, -275.670837, 13.726801, 100.771819
1759223393.973890, 10.040833, 11.670985, -3.548057, 2.874918, -0.695297, 2.295110, 72.614182, 5.238907, -275.754059, 13.726801, 100.771819
1759223393.993881, 9.117718, 10.213814, -0.238822, 2.786999, -1.305396, 3.305855, 72.793732, 2.779160, -277.040527, 13.726801, 100.771819
1759223394.013877, 10.169970, 14.807688, 0.202909, 2.093168, -0.938717, 3.851320, 72.384567, -0.639145, -278.119659, 13.726801, 100.771819
1759223394.033869, 5.163545, 19.677644, 2.482039, 1.720992, -2.111219, 3.178778, 71.904770, -3.703659, -279.714203, 13.726801, 100.771819
1759223394.053608, 0.556053, 20.185813, 5.019743, 1.560722, -2.541778, 2.126597, 71.131790, -6.350952, -281.633118, 13.726786, 100.771825
1759223394.073688, -1.354071, 20.088100, 5.423316, 1.342604, -1.276193, 0.896215, 70.081070, -8.135635, -283.613586, 13.726786, 100.771825
1759223394.093881, -2.901174, 16.926706, 5.419874, 0.445106, 1.080259, 0.049377, 69.715714, -9.016983, -284.135864, 13.726786, 100.771825
1759223394.113880, -3.700239, 12.475137, 2.428618, -0.559116, 1.850644, 0.229166, 70.574875, -9.285995, -283.849640, 13.726786, 100.771825
1759223394.133868, -1.731756, 9.974094, -2.914043, -0.574078, 1.019538, 0.918827, 71.473984, -9.832596, -282.534912, 13.726786, 100.771825
1759223394.153759, -1.825579, 9.868750, -2.151340, -0.282146, 0.686667, 0.672122, 72.065033, -10.009186, -281.885773, 13.726786, 100.771825
1759223394.173884, -3.948039, 6.950218, 4.240879, -0.499692, -2.062861, 0.545141, 72.181717, -9.910324, -281.928345, 13.726786, 100.771825
1759223394.193874, 2.889652, 3.844190, 1.425298, 0.632822, -2.991503, 0.872600, 70.708649, -10.184921, -283.863831, 13.726786, 100.771825
1759223394.213876, 2.796727, 2.238878, -1.625214, 0.329165, -1.428607, 0.504079, 69.345779, -11.482941, -286.228363, 13.726786, 100.771825
1759223394.233113, 1.047763, 2.609979, 1.089362, -0.239239, -1.754761, 0.514230, 68.656799, -11.936935, -286.513123, 13.726786, 100.771825
1759223394.253871, -1.827075, 3.126079, 0.207547, 0.018207, -2.562490, 0.096764, 67.846085, -11.830612, -288.357300, 13.726786, 100.771825
1759223394.273881, -3.567211, 3.438223, 0.992546, 0.083838, -2.541522, -0.367372, 66.266724, -12.055176, -289.564148, 13.726786, 100.771825
1759223394.293873, -4.938939, 3.428946, 0.562188, -0.035323, -2.206348, -0.963671, 64.635818, -12.055008, -291.312042, 13.726786, 100.771825
1759223394.313532, -4.748749, 3.246687, -0.243909, -0.474277, -1.382250, -1.306767, 63.884247, -11.173294, -292.653900, 13.726786, 100.771825
1759223394.333861, -3.360711, 3.698443, -2.052429, -0.777253, -0.781528, -1.427859, 63.063400, -9.851120, -293.309296, 13.726786, 100.771825
1759223394.353875, 0.601394, 5.522525, -6.519561, -0.460123, -0.122418, -1.413467, 62.925858, -8.613297, -294.315796, 13.726786, 100.771825
1759223394.373888, 7.404368, 11.048642, -10.614095, -0.076771, 2.090602, -0.406724, 63.608414, -8.024078, -294.066223, 13.726786, 100.771825
1759223394.393886, 14.991743, 23.261764, -7.977330, -0.506837, 3.394049, 1.316215, 65.316742, -8.036560, -293.002960, 13.726786, 100.771825
1759223394.413947, 17.640478, 21.043985, -6.244377, -0.521256, 1.556848, 1.292205, 66.998352, -8.800949, -291.588745, 13.726786, 100.771825
1759223394.433884, 12.091018, 9.431359, -4.278887, -0.022988, -0.520848, 0.494813, 67.447189, -9.243225, -290.832825, 13.726786, 100.771825
1759223394.453888, 5.317522, 6.184373, -0.944662, 0.161819, -0.230810, 0.219193, 67.389389, -9.754471, -291.098511, 13.726786, 100.771825
1759223394.473994, 0.984915, 4.428675, 3.827131, 0.291936, -0.461392, -0.078058, 67.216995, -9.833344, -291.196625, 13.726786, 100.771825
1759223394.493933, -2.712930, 6.036680, 4.248361, 0.066131, -0.035736, -0.833974, 67.325577, -10.006424, -291.345062, 13.726786, 100.771825
1759223394.513927, -5.993734, 17.057041, -1.484704, -1.047669, 1.325181, -0.628182, 67.686691, -9.711533, -291.241760, 13.726786, 100.771825
1759223394.533894, -4.162918, 23.959225, -9.039907, 0.197208, 1.809820, -0.310432, 68.616516, -9.047653, -290.692657, 13.726786, 100.771825
1759223394.553874, -6.016030, 11.643452, 1.151461, 0.543487, 1.393621, -1.070868, 69.707123, -8.842484, -289.736511, 13.726786, 100.771825
1759223394.573882, -4.819827, 8.586655, 3.123386, 0.420533, 0.996355, -1.294159, 70.538116, -8.889908, -288.148560, 13.726786, 100.771825
1759223394.593907, -3.700987, 6.586000, 3.986645, 0.188118, 0.051284, -1.365431, 71.113647, -7.962753, -287.668030, 13.726786, 100.771825
1759223394.613955, -2.746000, 7.798214, 3.697246, 0.069972, -1.251677, -1.404387, 71.088028, -7.077469, -288.235504, 13.726786, 100.771825
1759223394.633899, -0.992397, 9.600599, 4.619462, -0.299039, -2.398271, -1.266087, 70.485672, -6.066956, -289.252441, 13.726786, 100.771825
1759223394.653869, 1.804929, 11.326968, 5.801749, -0.985344, -2.423307, -0.995152, 69.209290, -5.090652, -291.574097, 13.726786, 100.771825
1759223394.673579, 3.809923, 12.518532, 4.958392, -1.302968, -2.382100, -0.805218, 67.704636, -3.559036, -292.451508, 13.726786, 100.771825
1759223394.693889, 5.640739, 12.859107, 3.907038, -1.554694, -2.305643, -0.766912, 66.076279, -2.598587, -294.357361, 13.726786, 100.771825
1759223394.712937, 6.505944, 10.148123, 1.763928, -3.349947, 1.956845, -1.167629, 65.342148, -0.165421, -294.315582, 13.726786, 100.771825
1759223394.733901, 6.634632, 8.280346, -0.273687, -3.933625, 4.155505, -0.791014, 68.724350, 3.992004, -290.757263, 13.726786, 100.771825
1759223394.753971, 4.821174, 7.494749, -1.593491, -3.220611, 4.427258, -0.418219, 69.676407, 4.830933, -289.280945, 13.726786, 100.771825
1759223394.773896, 1.725022, 4.586841, -4.043358, -2.151888, 5.577445, -0.439366, 73.363464, 7.585800, -282.926697, 13.726786, 100.771825
1759223394.793898, 0.474650, 5.548562, -6.744017, -0.670110, 5.880555, -0.073746, 75.978271, 7.653381, -277.831757, 13.726786, 100.771825
1759223394.813865, 1.170615, 12.111817, -5.284153, 0.420856, 2.652836, 0.074964, 76.946472, 7.454147, -276.533966, 13.726786, 100.771825
1759223394.833876, 1.763629, 11.527183, -1.622371, 0.650647, -0.329269, -0.522252, 77.472549, 7.448105, -275.458923, 13.726786, 100.771825
1759223394.853868, 3.087173, 9.944766, 0.168791, 0.600574, -0.577285, -0.782509, 77.381546, 7.784119, -276.973846, 13.726786, 100.771825
1759223394.873921, 3.586514, 6.661567, 1.790414, 0.750396, -0.112619, -0.864269, 77.177673, 7.934830, -276.333923, 13.726786, 100.771825
1759223394.893872, 4.584148, 6.820183, 3.223344, 1.057299, 0.027307, -0.594988, 77.062408, 8.220169, -276.635925, 13.726786, 100.771825
1759223394.914066, 5.440075, 8.783727, 4.860978, 0.931837, -0.154480, -0.435490, 76.862167, 7.965546, -277.303833, 13.726786, 100.771825
1759223394.933879, 7.447164, 9.870545, 4.918289, 0.163994, -0.321188, -0.251052, 76.381897, 8.293518, -277.304443, 13.726786, 100.771825
1759223394.953916, 8.334366, 9.916484, 3.277662, -0.463524, -0.175649, 0.044575, 76.964249, 8.074234, -277.350342, 13.726786, 100.771825
1759223394.973908, 8.272416, 11.178677, 1.776647, -0.733194, 0.162398, 0.479998, 76.867035, 7.878113, -276.508820, 13.726786, 100.771825
1759223394.994069, 7.669975, 13.163620, -0.190638, -0.603850, 0.794150, 0.895957, 77.671204, 7.072128, -275.739014, 13.726786, 100.771825
1759223395.013928, 7.841310, 15.975909, -3.621978, 0.515620, 1.751852, 1.230960, 78.382660, 5.774216, -274.449524, 13.726786, 100.771825
1759223395.033860, 8.032397, 14.373889, -4.736778, 1.826745, 1.772007, 1.613517, 78.729645, 3.838593, -273.442078, 13.726786, 100.771825
1759223395.053889, 9.490915, 10.605116, -5.774814, 1.607018, -0.949076, 2.437025, 79.170868, 0.865067, -274.325073, 13.726775, 100.771828
1759223395.073915, 7.273285, 12.327445, -4.304475, 2.208223, -3.174987, 3.479334, 77.950165, -2.505356, -276.569672, 13.726775, 100.771828
1759223395.093677, 3.299360, 16.512061, -0.230292, 2.287556, -3.113068, 3.698776, 76.877777, -6.460373, -279.482422, 13.726775, 100.771828
1759223395.113866, -0.488268, 18.470069, 3.098845, 2.149435, -1.927075, 2.752983, 75.850494, -9.703537, -280.882629, 13.726775, 100.771828
1759223395.133874, -1.298405, 19.409194, 4.392462, 2.083467, -1.411811, 1.663911, 74.923615, -11.699387, -281.972321, 13.726775, 100.771828
1759223395.153894, -2.992004, 19.207034, 4.871003, 1.350895, -0.090789, 0.660767, 74.626877, -12.831635, -281.720764, 13.726775, 100.771828
1759223395.173886, -5.277269, 15.470882, 2.510320, 0.214788, 1.594559, 0.227871, 74.574432, -13.109207, -280.281128, 13.726775, 100.771828
1759223395.193897, -4.879383, 10.495582, -5.007024, 0.045421, 0.852585, 0.943437, 74.552887, -14.261230, -279.464752, 13.726775, 100.771828
1759223395.213927, -1.311424, 9.052177, -1.681777, 0.590449, -0.058972, 0.962196, 74.139084, -15.178055, -279.858398, 13.726775, 100.771828
1759223395.233128, 0.050278, 7.240365, 4.111742, 0.214968, -0.807225, 0.309280, 73.977081, -15.218048, -279.715820, 13.726775, 100.771828
1759223395.253909, 4.781520, 6.662465, 4.948366, -0.150899, -2.072626, 0.314903, 72.910187, -15.894623, -281.454956, 13.726775, 100.771828
1759223395.273927, 5.644480, 6.313959, -0.503979, 0.543916, -0.572592, 1.136115, 72.355377, -16.664276, -281.385101, 13.726775, 100.771828
1759223395.293919, -0.356437, 4.208857, -0.305859, 0.889189, -1.036953, 0.826447, 72.001450, -17.828979, -282.260376, 13.726775, 100.771828
1759223395.314057, -2.094328, 2.951003, 0.666037, 0.461679, -2.041727, 0.603185, 70.497757, -18.093506, -283.596252, 13.726775, 100.771828
1759223395.333937, -2.012626, 1.707365, 0.861613, 0.065972, -2.026159, 0.403439, 69.095215, -18.593872, -284.897827, 13.726775, 100.771828
1759223395.353952, -2.537704, 2.311602, 1.101333, -0.069616, -2.155130, 0.114931, 68.495148, -18.514862, -286.054565, 13.726775, 100.771828
1759223395.372921, -2.949956, 2.797026, 0.857872, -0.404314, -2.411288, -0.226275, 68.070648, -18.259079, -286.875488, 13.726775, 100.771828
1759223395.394082, -4.472369, 3.178602, 0.046238, -0.984426, -2.918375, -0.693002, 65.252518, -17.707535, -289.749542, 13.726775, 100.771828
1759223395.413933, -5.399673, 4.700267, -2.268356, -1.511801, -2.655627, -1.418291, 64.531677, -15.764374, -291.622162, 13.726775, 100.771828
1759223395.433889, 1.575684, 7.297976, -9.464878, -0.999131, -2.323267, -2.057161, 63.297913, -14.660019, -292.754395, 13.726775, 100.771828
1759223395.453934, 8.431032, 15.668404, -13.351116, -0.364978, 0.514267, -0.642653, 63.737457, -14.028839, -292.671753, 13.726775, 100.771828
1759223395.473136, 10.540024, 23.318626, -8.508843, -1.141917, 3.408055, 1.024274, 65.908646, -14.266022, -291.381439, 13.726775, 100.771828
1759223395.493912, 9.532813, 14.846295, -8.151658, -0.802230, 2.454706, 1.483254, 66.646606, -14.653366, -289.440125, 13.726775, 100.771828
1759223395.514060, 7.467665, 6.178537, -7.463624, 0.143017, 1.897918, 0.713818, 67.764465, -15.397003, -288.166138, 13.726775, 100.771828
1759223395.533875, 3.985598, 4.668843, 2.450615, 0.139519, 2.272866, -0.105283, 69.047821, -14.570984, -286.532135, 13.726775, 100.771828
1759223395.553956, 1.136647, 8.505551, 6.468834, -0.234417, 0.640409, -0.534223, 69.511887, -14.318832, -285.986816, 13.726775, 100.771828
1759223395.573310, -1.643320, 14.467113, 4.673631, -0.947574, -0.131041, -0.402933, 69.349075, -13.356857, -285.789886, 13.726775, 100.771828
1759223395.593561, 2.245462, 16.740557, -8.714595, -0.774044, 2.000803, -0.071306, 70.357040, -13.178162, -285.518433, 13.726775, 100.771828
1759223395.613863, -2.978387, 15.498266, -6.637026, 0.385072, 2.071604, -0.384016, 71.108841, -13.396591, -283.358032, 13.726775, 100.771828
1759223395.633868, -7.176919, 9.919177, 2.356643, 0.484373, 0.139352, -1.224218, 71.633865, -12.552780, -282.974976, 13.726775, 100.771828
1759223395.653861, -5.016301, 8.438813, 2.959682, 0.032115, -0.905112, -1.604934, 71.473083, -11.884140, -283.641022, 13.726775, 100.771828
1759223395.673534, -3.083582, 8.311471, 3.661931, -0.203126, -1.284766, -1.532887, 70.728546, -10.472504, -284.174713, 13.726775, 100.771828
1759223395.693926, -2.051532, 7.579594, 3.252373, -0.682941, -2.008856, -1.203346, 69.875122, -9.359680, -285.982819, 13.726775, 100.771828
1759223395.713938, -0.704494, 8.939949, 3.346645, -0.799310, -2.388534, -1.117666, 69.284943, -8.358841, -286.658234, 13.726775, 100.771828
1759223395.733864, 0.964863, 12.054356, 3.315520, -1.057142, -2.363025, -0.977408, 67.760620, -7.012863, -288.849060, 13.726775, 100.771828
1759223395.753936, 3.669114, 14.635605, 3.772813, -1.772449, -1.392239, -0.721759, 66.816620, -5.978531, -289.770325, 13.726775, 100.771828
1759223395.773725, 6.144419, 11.889157, 2.025046, -2.504994, 0.682971, -1.010885, 66.574905, -3.507584, -289.432007, 13.726775, 100.771828
1759223395.793861, 6.237344, 8.835652, 0.319626, -2.813504, 2.556690, -1.191645, 67.653702, -1.272934, -288.797516, 13.726775, 100.771828
1759223395.813927, 5.791125, 7.787739, -0.944064, -2.486173, 3.285465, -0.698317, 69.535553, 0.574966, -286.872742, 13.726775, 100.771828
1759223395.834035, 3.508254, 4.973505, -1.589900, -2.044210, 3.603008, -0.344303, 70.867035, 2.183258, -283.725220, 13.726775, 100.771828
1759223395.853925, 2.371457, 4.863072, -2.050334, -1.545327, 4.034972, -0.118244, 72.644272, 3.096817, -280.910095, 13.726775, 100.771828
1759223395.873919, 0.423325, 6.769904, -2.793584, -0.792503, 4.389624, -0.130898, 74.187653, 3.432312, -277.134155, 13.726775, 100.771828
1759223395.893928, -0.029179, 9.725098, -3.455132, 0.140257, 3.697142, -0.328137, 75.393707, 3.711380, -274.479004, 13.726775, 100.771828
1759223395.913883, -0.036063, 10.466552, -2.769942, 0.342564, 2.022865, -0.761517, 75.695847, 3.839813, -271.725891, 13.726775, 100.771828
1759223395.933916, 2.680159, 8.524405, 0.421529, 0.139792, -0.220527, -0.972149, 75.565079, 4.723206, -270.984497, 13.726775, 100.771828
1759223395.953878, 6.724864, 9.466524, 1.371279, 0.233161, -1.574560, -0.704868, 75.458481, 4.957855, -272.326538, 13.726775, 100.771828
1759223395.973958, 6.801478, 8.445097, 2.761562, 0.371147, -2.017071, -0.084878, 74.429977, 5.389771, -274.013123, 13.726775, 100.771828
1759223395.993903, 7.089231, 8.884882, 2.509572, 0.396704, -1.206724, 0.569333, 74.342407, 4.908051, -275.227966, 13.726775, 100.771828
1759223396.013852, 7.439383, 9.799018, 2.005742, 0.212273, 0.618369, 0.795003, 74.310455, 4.170563, -274.799500, 13.726775, 100.771828
1759223396.033870, 6.743568, 10.940454, 1.707814, 0.151454, 1.558041, 0.999490, 74.474716, 3.378723, -273.510620, 13.726775, 100.771828
1759223396.053889, 5.912930, 11.626543, 0.683993, 0.212173, 2.029355, 0.880345, 75.388519, 2.664658, -271.911774, 13.726761, 100.771829
1759223396.074061, 4.491373, 11.847108, -1.351228, 0.579919, 2.201051, 0.741190, 75.995239, 2.184738, -270.565247, 13.726761, 100.771829
1759223396.093404, 7.508665, 14.486416, -7.960272, 2.083765, 0.883726, 1.490865, 76.381409, 1.266174, -269.599548, 13.726761, 100.771829
1759223396.113912, 12.053010, 14.217817, -5.788431, 2.303498, -2.161205, 2.339341, 76.028671, -0.828644, -270.813538, 13.726761, 100.771829
1759223396.133899, 10.412832, 14.956727, -0.410456, 2.276227, -3.048135, 3.285290, 75.554306, -3.522324, -272.812073, 13.726761, 100.771829
1759223396.153977, 6.376507, 15.440506, 1.376965, 2.135398, -2.951179, 3.444438, 74.752655, -6.244339, -274.745361, 13.726761, 100.771829
1759223396.173869, 2.495357, 16.221614, 3.596091, 1.952624, -3.381300, 2.772185, 73.428650, -8.780518, -276.772034, 13.726761, 100.771829
1759223396.193287, 0.858621, 17.498621, 4.480898, 1.694763, -3.279514, 1.838619, 72.226486, -10.609268, -279.048157, 13.726761, 100.771829
1759223396.213918, -0.394145, 16.538098, 4.125509, 1.323997, -1.471392, 1.003463, 71.104294, -12.128937, -280.853668, 13.726761, 100.771829
1759223396.233106, -1.931672, 14.599393, 3.296367, 0.673397, 1.281327, 0.505686, 71.066971, -12.966599, -279.924805, 13.726761, 100.771829
1759223396.253855, -4.025700, 12.821848, 1.210568, 0.013353, 2.715952, 0.535184, 72.603699, -13.432114, -278.284912, 13.726761, 100.771829
1759223396.273865, -3.715951, 10.330232, -4.565294, 0.162134, 1.135909, 0.866306, 72.290649, -13.937759, -276.549316, 13.726761, 100.771829
1759223396.293917, -4.005948, 9.182661, -0.121955, -0.222655, -0.714341, 0.315535, 72.776993, -14.086426, -277.481232, 13.726761, 100.771829
1759223396.313936, -2.063802, 7.950096, 5.193622, -0.527015, -3.048079, 0.245830, 71.696671, -13.778854, -278.866058, 13.726761, 100.771829
1759223396.333882, 3.858406, 5.888539, 0.766743, 0.084753, -1.311893, 1.007857, 71.007294, -14.680649, -281.055420, 13.726761, 100.771829
1759223396.353898, 6.212055, 4.045453, -0.761655, 0.022508, -0.999783, 1.189768, 70.464645, -15.408875, -281.482361, 13.726761, 100.771829
1759223396.373879, 2.738817, 3.001880, 1.230470, -0.551440, -1.934655, 0.914152, 69.332535, -15.636398, -282.879333, 13.726761, 100.771829
1759223396.393695, 0.518494, 3.688567, 0.788740, -0.787694, -2.443664, 0.632995, 68.177444, -15.600357, -283.857361, 13.726761, 100.771829
1759223396.413916, -1.586907, 4.175488, 1.268029, -0.824570, -2.797998, 0.225130, 67.047470, -15.736496, -285.971802, 13.726761, 100.771829
1759223396.433927, -3.270779, 3.835361, 0.995389, -0.785180, -2.512856, -0.235501, 65.479935, -14.936722, -287.717468, 13.726761, 100.771829
1759223396.453915, -3.929035, 3.604171, 0.149189, -0.671039, -2.493481, -0.692627, 64.422256, -14.597229, -288.994904, 13.726761, 100.771829
1759223396.473907, -4.971260, 4.354754, 0.388310, -0.969322, -2.581579, -1.286108, 63.233521, -13.248123, -290.599304, 13.726761, 100.771829
1759223396.493850, -4.301483, 5.600636, -1.967286, -1.059503, -1.989413, -1.430326, 62.584290, -12.005676, -292.224854, 13.726761, 100.771829
1759223396.513850, 3.708319, 14.089129, -15.364490, -0.016207, -0.316962, -1.267083, 62.377640, -11.291779, -292.301422, 13.726761, 100.771829
1759223396.533908, 12.739996, 23.846847, -12.626720, 0.121545, 0.976366, -0.246738, 63.226791, -10.926987, -291.610474, 13.726761, 100.771829
1759223396.554041, 14.519486, 18.132486, -8.751555, -0.555245, 2.260340, 1.414846, 64.626129, -11.351013, -290.804932, 13.726761, 100.771829
1759223396.573904, 7.414543, 7.984064, -7.549367, -0.355228, 1.859515, 1.181259, 65.270248, -11.606720, -289.761414, 13.726761, 100.771829
1759223396.593292, 2.771588, 5.726781, -4.684256, 0.201469, 1.923232, 0.424166, 66.015594, -12.365112, -288.201874, 13.726761, 100.771829
1759223396.613918, 0.187197, 14.445715, 0.371251, 0.391791, 1.297507, -0.052901, 67.443222, -12.128494, -287.171814, 13.726761, 100.771829
1759223396.634038, 0.476596, 18.569129, 7.160309, 0.311773, 0.019807, 0.199783, 67.603378, -12.428940, -286.356628, 13.726761, 100.771829
1759223396.653912, -3.836110, 9.480590, 1.024120, 0.640484, 1.149677, -0.027487, 67.784088, -13.048859, -285.754486, 13.726761, 100.771829
1759223396.673900, -7.672668, 5.676203, -5.913977, 1.151905, 0.146779, -0.237474, 68.216049, -13.512177, -285.221863, 13.726761, 100.771829
1759223396.693916, -7.372196, 4.057723, 3.960608, 0.240138, 1.765700, -0.561314, 68.872604, -13.421677, -284.465515, 13.726761, 100.771829
1759223396.713889, -6.538565, 6.626552, 5.066131, -0.105899, 3.717258, -1.780427, 71.015747, -12.389618, -281.435791, 13.726761, 100.771829
1759223396.733868, -4.781071, 11.215638, 4.465635, -0.412389, 4.093892, -2.632514, 73.144272, -9.797424, -278.061920, 13.726761, 100.771829
1759223396.754008, -2.313846, 14.774020, 3.768623, -0.485998, 3.289046, -2.479572, 74.705673, -8.109329, -276.184570, 13.726761, 100.771829
1759223396.773841, -0.479439, 14.382718, 4.131045, -0.614853, 1.502431, -1.672655, 75.053223, -6.298676, -274.599365, 13.726761, 100.771829
1759223396.793957, 0.639102, 14.755764, 4.090494, -0.725139, -0.968231, -1.326911, 75.302597, -5.195908, -275.782043, 13.726761, 100.771829
1759223396.813862, 3.416376, 14.494497, 3.113659, -0.949898, -2.360466, -0.792234, 74.420990, -4.044754, -276.921021, 13.726761, 100.771829
1759223396.833895, 5.827188, 11.684602, 1.843386, -1.356000, -2.235293, -0.628964, 73.812256, -3.168823, -278.876556, 13.726761, 100.771829
1759223396.853894, 8.767267, 8.566753, 0.286855, -2.709785, 1.576488, -1.800353, 74.042526, -1.181503, -277.567444, 13.726761, 100.771829
1759223396.873886, 11.391911, 8.923040, 0.379032, -2.727108, 2.605080, -1.782792, 74.815674, 1.066864, -275.101746, 13.726761, 100.771829
1759223396.893853, 8.150162, 6.549488, -0.310199, -2.368506, 1.798586, -1.028527, 75.185944, 2.730713, -272.817200, 13.726761, 100.771829
1759223396.913878, 4.576217, 5.899313, -2.151789, -2.078332, 2.296970, -0.628808, 75.609589, 3.377808, -271.639160, 13.726761, 100.771829
1759223396.933852, 2.850147, 6.190208, -2.774281, -1.394464, 2.907208, -0.264015, 76.113663, 4.464462, -268.835022, 13.726761, 100.771829
1759223396.953870, 1.622521, 5.871181, -2.793584, -0.283355, 3.115314, 0.082699, 76.444901, 4.062622, -266.520935, 13.726761, 100.771829
1759223396.973863, -0.091129, 6.323835, -2.027889, 0.556502, 2.660897, 0.231112, 77.023544, 4.222748, -264.445923, 13.726761, 100.771829
1759223396.993972, -1.260248, 8.023269, -0.379182, 0.581086, 1.416328, -0.136900, 77.238937, 4.164474, -262.877380, 13.726761, 100.771829
1759223397.013852, -0.088885, 9.933692, 0.375590, 0.186977, 1.019050, -0.799684, 77.305130, 4.885757, -261.755646, 13.726761, 100.771829
1759223397.033921, 2.496404, 9.846454, 1.022324, 0.034344, 0.906987, -1.057601, 76.631027, 5.588943, -260.712952, 13.726761, 100.771829
1759223397.053912, 5.164892, 7.389255, 1.849670, 0.504200, -0.044199, -1.032033, 76.917694, 6.429337, -260.332947, 13.726761, 100.771829
1759223397.073908, 7.161656, 9.277681, 3.450045, 0.667370, -2.001097, -0.775897, 76.570328, 7.226074, -261.255951, 13.726761, 100.771829
1759223397.093105, 8.947581, 10.198102, 3.769671, -0.162426, -2.313813, -0.643591, 76.293228, 7.258530, -263.522400, 13.726751, 100.771829
1759223397.113856, 10.610653, 10.414179, 2.969109, -1.106582, -1.210623, -0.396604, 76.061951, 8.019333, -264.249329, 13.726751, 100.771829
1759223397.133856, 9.658509, 11.311555, 0.858321, -1.020743, -0.259709, 0.386364, 76.070145, 7.437225, -264.261200, 13.726751, 100.771829
1759223397.153461, 7.322516, 12.864195, -1.041627, -0.145324, 0.202370, 1.011135, 76.408096, 6.443481, -263.867096, 13.726751, 100.771829
1759223397.173854, 6.618172, 15.906328, -1.460164, 0.877317, 0.052940, 1.430996, 76.524612, 5.843262, -263.241943, 13.726751, 100.771829
1759223397.193237, 5.707328, 16.020950, -0.249596, 1.387853, -1.257449, 1.535716, 76.364349, 3.899124, -264.399536, 13.726751, 100.771829
1759223397.213844, 6.053140, 13.889063, -1.013495, 1.022507, -2.123744, 2.041981, 76.073944, 2.275360, -265.853699, 13.726751, 100.771829
1759223397.233083, 5.593005, 13.816040, -6.427384, 1.636000, -1.423256, 2.787384, 76.112167, -0.231155, -266.901306, 13.726751, 100.771829
1759223397.253844, 1.405396, 16.089933, -3.769820, 2.723048, -0.904837, 3.061807, 75.835876, -2.762817, -266.634979, 13.726751, 100.771829
1759223397.273862, -0.341623, 15.391574, 3.068469, 2.893555, -1.893208, 2.504051, 74.920303, -4.758331, -268.406372, 13.726751, 100.771829
1759223397.293432, -1.056741, 15.015236, 5.020491, 2.473875, -2.707801, 1.517908, 74.149872, -6.660217, -270.569275, 13.726751, 100.771829
1759223397.313859, -2.077269, 14.867543, 5.428852, 1.833398, -2.184934, 0.585217, 73.468399, -7.300568, -272.030640, 13.726751, 100.771829
1759223397.333193, -2.100463, 14.534001, 5.152172, 1.070386, -0.506379, 0.051514, 72.893799, -7.368454, -271.774567, 13.726751, 100.771829
1759223397.353003, -3.018939, 13.020267, 0.907851, 0.098568, 1.727336, 0.505737, 72.776566, -7.880783, -270.610046, 13.726751, 100.771829
1759223397.373851, -1.771111, 10.591200, -1.966986, 0.104019, 2.364682, 1.280538, 72.679657, -8.495285, -269.387177, 13.726751, 100.771829
1759223397.393659, -1.861791, 9.028086, 2.190395, -0.423028, 0.037890, 0.763225, 72.615677, -9.039154, -268.137665, 13.726751, 100.771829
1759223397.413844, 0.733524, 7.753921, 5.874772, -1.210757, -2.222373, 1.070197, 71.913773, -9.471497, -269.124115, 13.726751, 100.771829
1759223397.433833, 8.034791, 6.064064, -1.653047, -0.005737, -0.780310, 1.671450, 71.131134, -10.100983, -270.899475, 13.726751, 100.771829
1759223397.453864, 3.646668, 4.749647, -1.298405, 0.344209, -1.223493, 1.097530, 70.368896, -11.006454, -271.232788, 13.726751, 100.771829
1759223397.473860, -0.549918, 4.375852, 1.228974, -0.071874, -2.046193, 0.783178, 69.446686, -11.731827, -272.326477, 13.726751, 100.771829
1759223397.493842, -2.954445, 3.869928, 2.055272, -0.187489, -2.571630, 0.462666, 68.813522, -11.934692, -273.829010, 13.726751, 100.771829
1759223397.513862, -4.011635, 3.188029, 1.690306, -0.314591, -2.489115, -0.017351, 67.372940, -11.874619, -275.812012, 13.726751, 100.771829
1759223397.533836, -5.093664, 3.248183, 0.975637, -0.504727, -2.202743, -0.555141, 66.581467, -10.911240, -276.777191, 13.726751, 100.771829
1759223397.553859, -5.709722, 3.145083, -0.462380, -0.567900, -2.105683, -1.097190, 65.642685, -10.448425, -277.666809, 13.726751, 100.771829
1759223397.573852, -3.557484, 3.795408, -5.208286, -0.193302, -2.029899, -1.415416, 64.941986, -9.336090, -279.284424, 13.726751, 100.771829
1759223397.593837, 5.075259, 6.792350, -11.100866, 0.207672, -1.061154, -1.095191, 64.441605, -8.211090, -280.101318, 13.726751, 100.771829
1759223397.613853, 16.021100, 13.757532, -8.476970, -0.772104, 1.763638, 0.241094, 64.346207, -7.860565, -279.949829, 13.726751, 100.771829
1759223397.633832, 10.503961, 19.533693, -5.295226, -1.100671, 2.732190, 0.555078, 64.806732, -7.148972, -278.994507, 13.726751, 100.771829
1759223397.653869, 6.746112, 13.170204, -5.469105, -0.342326, 1.395146, 0.583035, 65.220764, -6.968704, -278.007080, 13.726751, 100.771829
1759223397.673850, 3.485658, 8.020276, -5.661988, 0.647480, 1.185652, 0.423516, 65.563751, -7.158829, -277.369019, 13.726751, 100.771829
1759223397.693842, 0.378882, 5.349544, 1.033697, 0.394434, 1.683880, 0.063661, 65.716873, -7.342606, -277.036926, 13.726751, 100.771829
1759223397.713038, -4.623952, 9.537003, 4.324377, -0.735059, 1.229472, -0.794083, 65.853104, -6.818069, -276.099060, 13.726751, 100.771829
1759223397.733832, -5.990442, 18.809447, -5.829432, -0.498119, 0.190294, -0.993080, 66.328262, -5.826920, -276.426880, 13.726751, 100.771829
1759223397.753862, 3.711611, 21.470901, -3.890877, 1.257037, 1.450917, -1.168098, 65.852646, -5.074463, -276.210632, 13.726751, 100.771829
1759223397.773848, -0.662745, 11.806108, 1.705420, 0.863292, 2.393377, -0.985871, 66.703842, -4.741913, -274.980957, 13.726751, 100.771829
1759223397.793970, -2.539200, 7.672219, 2.056021, 0.009320, 2.106626, -1.064208, 67.286819, -3.951584, -273.874115, 13.726751, 100.771829
1759223397.813296, -4.512322, 5.261109, 3.755305, -0.166236, 1.023437, -1.427607, 67.970688, -2.915222, -273.198486, 13.726751, 100.771829
1759223397.833830, -2.874389, 8.438214, 3.330185, -0.016359, -0.516312, -1.574265, 68.252960, -2.047546, -273.200897, 13.726751, 100.771829
1759223397.853841, -1.426944, 10.721085, 3.877559, 0.034588, -2.283524, -1.493202, 67.652023, -1.231979, -274.633545, 13.726751, 100.771829
1759223397.873848, 1.026065, 12.449998, 5.557092, -0.426193, -3.914809, -1.358161, 66.463684, 0.325119, -276.396301, 13.726751, 100.771829
1759223397.893847, 4.378845, 12.959365, 5.642385, -1.038981, -4.218533, -1.002626, 64.527588, 1.074615, -279.611755, 13.726751, 100.771829
1759223397.913489, 7.480833, 12.215217, 3.760992, -2.126378, -1.113076, -0.879406, 63.521149, 2.387146, -280.317078, 13.726751, 100.771829
1759223397.933896, 8.695591, 9.960926, 0.869394, -2.787955, 2.030711, -1.109481, 63.563049, 4.004410, -279.818420, 13.726751, 100.771829
1759223397.954051, 7.259369, 7.311443, 0.369156, -2.631192, 2.648678, -0.908356, 64.480164, 5.972641, -277.691559, 13.726751, 100.771829
1759223397.973856, 5.183746, 6.271312, -0.398784, -2.472109, 3.011684, -0.206433, 65.273163, 6.887131, -275.658997, 13.726751, 100.771829
1759223397.993948, 2.384176, 6.670096, -2.082058, -2.056594, 3.699564, 0.225501, 66.277786, 7.324203, -273.024719, 13.726751, 100.771829
1759223398.013652, 0.876876, 7.260267, -3.159598, -1.402649, 4.585836, 0.354478, 67.280396, 7.639984, -270.150665, 13.726751, 100.771829
1759223398.033918, -0.403722, 8.500164, -4.314651, -0.435155, 4.513480, 0.188216, 68.019272, 8.216568, -267.631287, 13.726751, 100.771829
1759223398.053905, -1.868974, 9.689184, -4.407426, 0.474882, 2.184867, -0.378372, 68.195923, 8.003571, -266.184143, 13.726740, 100.771837
1759223398.073947, -2.670433, 8.757840, -2.315043, 0.562272, -0.380167, -1.121244, 68.052490, 8.768829, -265.970520, 13.726740, 100.771837
1759223398.093855, 0.487070, 8.474726, 0.334889, 0.125467, -1.102165, -1.242716, 67.470581, 9.557312, -266.708191, 13.726740, 100.771837
1759223398.113904, 2.848950, 8.617929, 1.001674, 0.172653, -1.018821, -1.157486, 66.933182, 10.783463, -267.962036, 13.726740, 100.771837
1759223398.133829, 4.560056, 8.385542, 1.894861, 0.620519, -1.176309, -1.031069, 66.875595, 11.342133, -268.179199, 13.726740, 100.771837
1759223398.153857, 6.217442, 7.978228, 3.889381, 0.603951, -1.526424, -0.793447, 65.840515, 12.024628, -269.720306, 13.726740, 100.771837
1759223398.173893, 8.473080, 9.528025, 4.568436, -0.044475, -0.985878, -0.289453, 65.555649, 12.231003, -270.966248, 13.726740, 100.771837
1759223398.193896, 11.023802, 11.498453, 3.359364, -0.640460, 0.493620, 0.138676, 65.325348, 12.758881, -271.196960, 13.726740, 100.771837
1759223398.213843, 10.106075, 11.242872, 1.303493, -0.819523, 1.671751, 0.512270, 65.526855, 12.913757, -270.850464, 13.726740, 100.771837
1759223398.233159, 8.675240, 11.995699, -0.722750, -0.247894, 2.023856, 1.303121, 66.345932, 12.800598, -270.282990, 13.726740, 100.771837
1759223398.253834, 6.885574, 15.418359, -6.740276, 1.526202, 1.486737, 1.754367, 67.333572, 12.185654, -269.700378, 13.726740, 100.771837
1759223398.273886, 7.075016, 12.689269, -3.877110, 2.071420, -0.592256, 2.160417, 67.700745, 10.829926, -270.963684, 13.726740, 100.771837
1759223398.293838, 5.926697, 12.384307, -1.265784, 1.737943, -2.518307, 2.779734, 68.700333, 8.857574, -273.053040, 13.726740, 100.771837
1759223398.313864, 4.102764, 14.499285, 0.434997, 1.750616, -2.872488, 3.038998, 68.348129, 6.959488, -275.998657, 13.726740, 100.771837
1759223398.333843, 3.182044, 15.663466, 2.199972, 1.751289, -2.759399, 2.702775, 68.540802, 4.687897, -278.839355, 13.726740, 100.771837
1759223398.354032, 1.776049, 16.455348, 2.947262, 1.997439, -2.418784, 2.098404, 68.057114, 2.711945, -280.638916, 13.726740, 100.771837
1759223398.373909, -0.269797, 17.363798, 4.951359, 1.632002, -1.898735, 1.337183, 68.116425, 1.262802, -282.745667, 13.726740, 100.771837
1759223398.394030, -2.116325, 16.395194, 4.633379, 0.636175, -0.939183, 0.517917, 67.913528, 0.058289, -284.097473, 13.726740, 100.771837
1759223398.413900, -3.386898, 14.206594, 2.538303, -0.068649, 0.721166, 0.101436, 68.276611, 0.006485, -284.654572, 13.726740, 100.771837
1759223398.433861, -2.647388, 11.699865, -0.048483, -0.362060, 1.614233, 0.762229, 69.680420, 0.019333, -283.928894, 13.726740, 100.771837
1759223398.453837, -1.368286, 9.170391, -0.589572, -0.217496, 1.470250, 1.571603, 71.034485, -1.152512, -283.002319, 13.726740, 100.771837
1759223398.473944, -2.156876, 8.045415, 2.550573, -0.486935, 0.248928, 1.142468, 72.099457, -2.164139, -282.541626, 13.726740, 100.771837
1759223398.493857, 0.990002, 6.669198, 2.455403, -0.733113, -1.468647, 0.953353, 71.993988, -2.327835, -283.946075, 13.726740, 100.771837
1759223398.513912, 4.135834, 5.058050, -0.825401, -0.055470, -1.651412, 1.199369, 71.772888, -3.373688, -285.468140, 13.726740, 100.771837
1759223398.533818, 1.993023, 4.457704, 0.617105, 0.132539, -1.850649, 1.110695, 71.222504, -4.589554, -287.075562, 13.726740, 100.771837
1759223398.553836, -0.461632, 3.220650, 1.173009, -0.024619, -2.345495, 0.792416, 70.035034, -5.321838, -288.249786, 13.726740, 100.771837
1759223398.573847, -2.068291, 2.875586, 1.533636, -0.084335, -3.136182, 0.502648, 68.602890, -5.758118, -290.899597, 13.726740, 100.771837
1759223398.593851, -3.430741, 2.934393, 0.871938, -0.099458, -3.061270, 0.051769, 67.198029, -6.302872, -293.178650, 13.726740, 100.771837
1759223398.613833, -4.928314, 3.153164, 0.138116, -0.234625, -2.591944, -0.587834, 65.440781, -5.891190, -295.071289, 13.726740, 100.771837
1759223398.633876, -5.100398, 4.531176, -1.662025, -0.443210, -1.878659, -1.247816, 64.339447, -5.250885, -296.505402, 13.726740, 100.771837
1759223398.653832, -1.519720, 7.654113, -6.060323, -0.244191, -1.316445, -1.590283, 63.860443, -4.240860, -297.405731, 13.726740, 100.771837
1759223398.673946, 5.830629, 13.339594, -10.413730, 0.212980, -0.287231, -1.233910, 64.009521, -3.903595, -297.500366, 13.726740, 100.771837
1759223398.693898, 10.758046, 19.239655, -6.969970, -0.134462, 1.175473, -0.186268, 64.922104, -3.926651, -297.403381, 13.726740, 100.771837
1759223398.713014, 12.012009, 18.117523, -5.964405, -0.544867, 1.704327, 0.728362, 66.448563, -3.925125, -296.656555, 13.726740, 100.771837
1759223398.733887, 7.969250, 9.740510, -5.090522, -0.263994, 1.147298, 0.802237, 67.949997, -4.526764, -295.421021, 13.726740, 100.771837
1759223398.753535, 4.338892, 5.617096, -4.671985, 0.060537, 0.723112, 0.415603, 68.916519, -5.220001, -294.802734, 13.726740, 100.771837
1759223398.773860, 0.955436, 5.916521, 1.929427, 0.135161, 1.183944, 0.044552, 70.085098, -5.849274, -293.430359, 13.726740, 100.771837
1759223398.793870, 0.052822, 11.122862, 5.729474, -0.367408, 0.372635, -0.338921, 70.912796, -5.718338, -293.513916, 13.726740, 100.771837
1759223398.813242, 0.221164, 16.792930, 1.840692, -0.612531, 0.980507, -0.526680, 72.168640, -5.457916, -293.012878, 13.726740, 100.771837
1759223398.833884, 2.418593, 15.073894, -6.003610, 0.042258, 2.885169, -0.230955, 73.699280, -5.210785, -290.894653, 13.726740, 100.771837
1759223398.853894, -3.875464, 10.489446, -1.210568, -0.017039, 1.693092, -0.616647, 75.708496, -5.016312, -289.244751, 13.726740, 100.771837
1759223398.873958, -5.537938, 8.417414, 3.560477, -0.299170, 0.153140, -1.311113, 76.233643, -4.466309, -288.526886, 13.726740, 100.771837
1759223398.893834, -4.141370, 8.161833, 3.173814, -0.478533, -0.521319, -1.659440, 75.857941, -2.873169, -288.187988, 13.726740, 100.771837
1759223398.913439, -2.760215, 8.964340, 3.035399, -0.351996, -0.513517, -1.729019, 75.615234, -1.357620, -288.552063, 13.726740, 100.771837
1759223398.933822, -0.790835, 9.595212, 3.971981, -0.420309, -0.561853, -1.446309, 75.542923, 0.047867, -288.732239, 13.726740, 100.771837
1759223398.953847, 0.399682, 10.244340, 4.538060, -0.790057, -0.936984, -1.351053, 74.510361, 1.480927, -289.536255, 13.726740, 100.771837
1759223398.973873, 2.049886, 11.568483, 4.011485, -1.096601, -1.394106, -1.296796, 74.301147, 2.903152, -290.694031, 13.726740, 100.771837
1759223398.993907, 4.125658, 11.884218, 2.381632, -1.440397, -0.655558, -1.248456, 73.496658, 4.625595, -290.784790, 13.726740, 100.771837
1759223399.013659, 6.749404, 10.489746, 0.399832, -1.941960, 1.792179, -1.120857, 74.194809, 6.774796, -289.223511, 13.726740, 100.771837
1759223399.033893, 5.646425, 7.874380, -0.339079, -1.807312, 3.061423, -1.133635, 75.822510, 8.466415, -286.155884, 13.726740, 100.771837
1759223399.053876, 4.529381, 7.434295, -0.463577, -1.565571, 2.691034, -0.617574, 77.344025, 9.419434, -283.321106, 13.726724, 100.771835
1759223399.073861, 2.014421, 7.428609, -1.344793, -1.433283, 2.171476, -0.158085, 78.863358, 10.357391, -281.025330, 13.726724, 100.771835
1759223399.093878, 0.554108, 7.460332, -1.773355, -0.865627, 2.054346, -0.391299, 79.443130, 10.569687, -278.976501, 13.726724, 100.771835
1759223399.113844, 0.269198, 7.613112, -1.971625, -0.006446, 1.740049, -0.536363, 80.453674, 11.318466, -277.306274, 13.726724, 100.771835
1759223399.133844, 0.409857, 9.115324, -0.771083, 0.315386, 1.235646, -0.701198, 80.644501, 11.750214, -275.481659, 13.726724, 100.771835
1759223399.153907, 1.282843, 9.944915, 0.374094, -0.047140, 0.975793, -0.882536, 80.692200, 11.910187, -274.731628, 13.726724, 100.771835
1759223399.173843, 2.199074, 9.506926, 0.689530, -0.495225, 0.742984, -0.972323, 81.175858, 12.963989, -272.735413, 13.726724, 100.771835
1759223399.193892, 3.164087, 8.092701, 0.671274, -0.281224, 0.298526, -0.992562, 80.945038, 13.843262, -271.900696, 13.726724, 100.771835
1759223399.213888, 5.466112, 8.033145, 0.445471, 0.357006, -0.669574, -0.725759, 80.651917, 14.817261, -271.723206, 13.726724, 100.771835
1759223399.233075, 6.719776, 8.248773, 1.395371, 0.545304, -1.371445, -0.210002, 80.607727, 14.715637, -272.438354, 13.726724, 100.771835
1759223399.253834, 7.831134, 8.719682, 1.892167, 0.259730, -1.240414, 0.294010, 80.474640, 14.654526, -273.789917, 13.726724, 100.771835
1759223399.273898, 9.020005, 10.263344, 1.727117, -0.148459, -0.281144, 0.544132, 80.724457, 14.282562, -273.545105, 13.726724, 100.771835
1759223399.293851, 8.602815, 11.421988, 1.227477, -0.176553, 0.445976, 0.877744, 80.918167, 13.776611, -273.253784, 13.726724, 100.771835
1759223399.313949, 7.806295, 12.523919, 0.444274, 0.267067, 0.616159, 1.273598, 82.203140, 12.527817, -271.947205, 13.726724, 100.771835
1759223399.332870, 7.774571, 15.449783, -0.312294, 0.670627, 1.181350, 1.538751, 82.722137, 10.990067, -270.927460, 13.726724, 100.771835
1759223399.353526, 6.980744, 16.176573, -2.092083, 0.860220, 2.009441, 1.762664, 83.561752, 8.924576, -269.034485, 13.726724, 100.771835
1759223399.373839, 6.509834, 11.617265, -4.160674, 1.538973, 0.915725, 2.582597, 84.634995, 6.692352, -266.909058, 13.726724, 100.771835
1759223399.393840, 8.557775, 11.000160, -9.503933, 2.523879, -2.055029, 3.584933, 84.504669, 3.316284, -267.697205, 13.726724, 100.771835
1759223399.413858, 2.931251, 15.948974, -2.271200, 2.581196, -3.235556, 3.254085, 84.649582, -0.733444, -269.036316, 13.726724, 100.771835
1759223399.433830, -0.531962, 17.836952, 2.792986, 2.431631, -3.330073, 1.873688, 83.678162, -3.876678, -272.316101, 13.726724, 100.771835
1759223399.453829, -0.817321, 18.163611, 5.557990, 1.792909, -2.763001, 0.779919, 82.482025, -6.155136, -274.637085, 13.726724, 100.771835
1759223399.473833, -1.206977, 18.303073, 6.228516, 1.074931, -0.954309, 0.130287, 82.024384, -6.783157, -276.039368, 13.726724, 100.771835
1759223399.493894, -3.190124, 15.308974, 3.322553, 0.021247, 1.222913, 0.051465, 82.034866, -7.278259, -275.536346, 13.726724, 100.771835
1759223399.513840, -5.556044, 10.997167, -1.482160, -0.252559, 1.407241, 0.920427, 81.897736, -7.824585, -273.026276, 13.726724, 100.771835
1759223399.533291, -0.620697, 9.501090, -2.897433, 0.336976, 0.101848, 1.240963, 81.960373, -9.210846, -272.449036, 13.726724, 100.771835
1759223399.554019, -1.384746, 8.346486, 4.377947, 0.071463, -0.863226, 0.916588, 81.036133, -10.299820, -272.802979, 13.726724, 100.771835
1759223399.573896, 1.611747, 6.887669, 3.048417, 0.645776, -0.518531, 0.911409, 80.825516, -11.003098, -273.578369, 13.726724, 100.771835
1759223399.593837, 1.062427, 5.036203, -0.292542, 0.734985, -1.131471, 0.774098, 79.800995, -12.246017, -273.664917, 13.726724, 100.771835
1759223399.613860, -0.263661, 2.666692, 0.917877, 0.036363, -1.835668, 0.549406, 78.999313, -12.642303, -274.792542, 13.726724, 100.771835
1759223399.633883, -0.796371, 1.524358, 0.236876, -0.122762, -2.040356, 0.380235, 78.787567, -13.185364, -275.718933, 13.726724, 100.771835
1759223399.653895, -2.317737, 1.902941, 0.437391, -0.280871, -1.934346, 0.094780, 77.537292, -13.438950, -277.890381, 13.726724, 100.771835
1759223399.673864, -2.545336, 2.672977, 1.473781, -0.595022, -1.814591, -0.180027, 76.841629, -13.086914, -279.281616, 13.726724, 100.771835
1759223399.693886, -2.762161, 3.143138, 1.083676, -0.994743, -1.739360, -0.656166, 75.792908, -12.581467, -280.400818, 13.726724, 100.771835
1759223399.713854, -3.233669, 4.179079, -0.497994, -1.203871, -1.487805, -1.229648, 74.962540, -10.809509, -281.881500, 13.726724, 100.771835
1759223399.733665, 0.814328, 6.153846, -2.300678, -1.074983, -1.074870, -1.353711, 74.760651, -9.155640, -282.266388, 13.726724, 100.771835
1759223399.753835, 7.408857, 9.273192, -5.296722, -0.753386, -0.323062, -0.713978, 74.342346, -8.388535, -283.373383, 13.726724, 100.771835
1759223399.773810, 9.833435, 16.178219, -10.588806, -0.132793, 1.117047, 0.219517, 74.599228, -7.389069, -282.560394, 13.726724, 100.771835
1759223399.793903, 10.677690, 21.147235, -12.340613, -0.121845, 1.293783, 0.974604, 74.864853, -8.147232, -281.681549, 13.726724, 100.771835
1759223399.813836, 9.789591, 12.916868, -8.684368, -0.209489, 1.007451, 0.930671, 74.577271, -8.581436, -280.829468, 13.726724, 100.771835
1759223399.833810, 5.688773, 9.824756, -5.764040, -0.321133, 0.938423, 0.610123, 74.773575, -9.224228, -280.645874, 13.726724, 100.771835
1759223399.853716, 2.948160, 14.774469, -1.903839, -0.394317, 0.510307, 0.256998, 74.562103, -9.144241, -279.481873, 13.726724, 100.771835
1759223399.873830, 2.490119, 16.968156, 3.017143, 0.065967, -0.636738, 0.259499, 74.147308, -9.381287, -279.863098, 13.726724, 100.771835
1759223399.893819, -0.227898, 14.640094, 5.068375, 0.763028, 0.548800, -0.558905, 73.952728, -9.459015, -280.132904, 13.726724, 100.771835
1759223399.913828, -2.191892, 7.120056, -6.475418, 1.629149, 1.698728, -0.713044, 74.012009, -9.703888, -278.886230, 13.726724, 100.771835
1759223399.933814, -8.030601, 5.810578, 2.807501, 0.457355, 0.874224, -0.857829, 74.547745, -9.460724, -277.816467, 13.726724, 100.771835
1759223399.953821, -6.858340, 5.900360, 4.630536, -0.086258, 1.270438, -1.708472, 74.478088, -8.820969, -277.124573, 13.726724, 100.771835
1759223399.973820, -4.165312, 8.698883, 3.480870, -0.477342, 1.431437, -2.220645, 75.304138, -6.581635, -276.351685, 13.726724, 100.771835
1759223399.993818, -2.027290, 11.778275, 3.879056, -0.493307, 1.108486, -1.797962, 75.606934, -4.903732, -275.912598, 13.726724, 100.771835
1759223400.013456, -1.318307, 11.464186, 5.104288, -0.642598, -0.785756, -1.312441, 75.877197, -3.619629, -275.135834, 13.726724, 100.771835
1759223400.033821, 0.339977, 12.761095, 3.606416, -0.810717, -1.756647, -1.151244, 75.273956, -2.178192, -276.782471, 13.726724, 100.771835
1759223400.053886, 2.672977, 13.280786, 2.973299, -1.081986, -1.882988, -0.828599, 74.831680, -1.061951, -278.852478, 13.726707, 100.771829
1759223400.073865, 5.486912, 11.725303, 1.293467, -1.752512, -0.585496, -0.764129, 73.731506, 0.027695, -279.414398, 13.726707, 100.771829
1759223400.093822, 7.174225, 7.989451, 0.402974, -2.590004, 2.408625, -1.555375, 74.487259, 1.426880, -278.391479, 13.726707, 100.771829
1759223400.113830, 8.852261, 8.035090, 0.070330, -2.545945, 3.166108, -1.780082, 75.073975, 3.464752, -275.641785, 13.726707, 100.771829
