SamplingTime,AccelerationX,AccelerationY,AccelerationZ,GyroX,GyroY,GyroZ,Subject,Activity
1759223391.16069,0.383072,10.437073,-8.298902,0.646299,-0.152115,-0.805407,6,WALK
1759223391.18069,0.488268,5.105934,-5.707029,1.232352,1.207001,-0.996817,6,WALK
1759223391.20068,5.097555,4.298789,6.735189,-0.60471,-0.428834,-0.075751,6,WALK
1759223391.22073,15.76477,13.984382,-2.732832,-0.375141,0.696952,2.988267,6,WALK
1759223391.24072,8.027758,19.155409,10.062231,-1.73649,-0.178834,2.537744,6,WALK
1759223391.26076,1.317559,8.404546,9.364621,-2.014084,0.188936,-0.746082,6,WALK
1759223391.28075,2.800917,3.233968,1.699584,-1.679863,-1.316995,-1.426704,6,WALK
1759223391.30082,5.26066,5.508609,2.459444,-2.162636,-1.826534,-0.482202,6,WALK
1759223391.32072,4.022857,9.927557,2.98108,-2.868244,-0.927092,0.113049,6,WALK
1759223391.34068,3.27841,11.871948,0.774375,-2.990493,-0.714448,0.148757,6,WALK
1759223391.36069,3.742885,12.83741,1.491887,-2.99486,-0.424445,0.010009,6,WALK
1759223391.37992,4.23235,11.162816,-0.365714,-2.342656,-0.293522,0.060003,6,WALK
1759223391.40071,3.77805,8.909573,0.000449,-1.707857,0.005713,0.180052,6,WALK
1759223391.41998,1.922095,7.426065,0.883161,-1.443869,0.260234,0.106003,6,WALK
1759223391.43978,1.074548,7.013963,1.291821,-1.489694,0.124146,-0.100106,6,WALK
1759223391.46069,-0.010774,8.394969,0.901866,-1.547001,-0.152619,-0.109606,6,WALK
1759223391.48069,0.092177,9.18296,-0.079757,-1.584409,-0.396475,0.263373,6,WALK
1759223391.50069,-0.29329,8.839841,0.056114,-1.626398,-0.19871,0.598182,6,WALK
1759223391.52031,-0.65661,8.188469,-0.347608,-1.582913,0.256336,0.480395,6,WALK
1759223391.54072,0.401777,8.627206,0.197222,-1.535509,0.409428,0.160358,6,WALK
1759223391.56069,1.947085,9.727043,0.393098,-1.532538,0.059953,0.26894,6,WALK
1759223391.58069,2.547131,10.145579,-0.009427,-1.522577,-0.295808,0.409609,6,WALK
1759223391.60068,3.065775,10.090363,-0.736367,-1.616183,-0.367352,0.376659,6,WALK
1759223391.61981,2.412906,10.865186,-4.04261,-1.76576,-0.392816,0.430634,6,WALK
1759223391.64069,0.4953,11.163265,-4.49676,-1.090362,-1.125993,0.470655,6,WALK
1759223391.65993,-0.28072,11.374403,-4.164265,-0.23274,-1.330944,0.469873,6,WALK
1759223391.68062,-1.240795,11.10715,-3.51798,0.209909,-0.525684,0.35799,6,WALK
1759223391.70069,-1.802684,11.314698,-2.812439,0.518403,-0.154902,0.156288,6,WALK
1759223391.72024,-2.490269,11.676821,-3.553444,1.17044,-0.794051,-0.263275,6,WALK
1759223391.74069,-2.801216,13.887267,-0.28087,1.9801,-0.747578,-0.896098,6,WALK
1759223391.76069,-2.090138,15.896601,2.893991,2.332613,0.875298,-1.45434,6,WALK
1759223391.78069,0.390255,15.515474,1.753005,2.710115,0.963302,-1.702639,6,WALK
1759223391.80069,3.053505,16.271294,3.675399,2.579465,0.686897,-1.73904,6,WALK
1759223391.82063,6.939444,18.747497,3.564068,2.278511,1.19282,-1.129092,6,WALK
1759223391.84068,12.649016,21.860857,4.763863,1.707672,1.225466,0.570881,6,WALK
1759223391.86069,13.258041,16.66499,-2.2917,2.938559,-0.005249,1.543315,6,WALK
1759223391.88070,7.301717,10.678289,0.823605,3.560352,-1.332842,0.632331,6,WALK
1759223391.90069,5.761796,6.607099,3.319112,3.233373,-0.922916,-0.436496,6,WALK
1759223391.92061,5.377975,6.460604,1.414075,3.240259,0.27906,-0.845011,6,WALK
1759223391.94069,4.724508,8.03524,2.254739,3.148278,0.631264,-0.602421,6,WALK
1759223391.96070,3.250428,7.2878,2.840421,3.081065,0.69753,-0.440477,6,WALK
1759223391.98070,2.132186,5.144242,2.231994,3.091036,0.528046,-0.367721,6,WALK
1759223392.00071,1.817349,2.785354,1.756297,2.725082,0.3257,-0.218698,6,WALK
1759223392.02069,1.610699,1.020379,1.985841,1.832039,0.564133,-0.067115,6,WALK
1759223392.04067,2.222567,0.719158,2.091036,0.788305,0.52502,0.273326,6,WALK
1759223392.06070,2.234239,1.04462,2.136226,-0.068462,0.482123,0.527384,6,WALK
1759223392.08070,2.214936,1.107318,1.769016,-0.701889,0.880203,0.606005,6,WALK
1759223392.10081,1.854459,1.838298,0.613963,-1.227843,1.612751,0.564417,6,WALK
1759223392.12071,1.678934,3.39004,-1.17256,-1.585295,1.848954,0.468402,6,WALK
1759223392.14066,2.131288,7.613861,-11.452813,-0.593938,1.513346,0.259544,6,WALK
1759223392.16070,7.306655,17.847576,-26.018238,0.887686,1.343021,0.051698,6,WALK
1759223392.18040,6.502801,20.446033,-15.695638,-0.497016,1.370718,-0.3823,6,WALK
1759223392.20070,0.442628,12.421118,-6.287922,-1.535183,-1.769015,-1.422879,6,WALK
1759223392.22077,2.5808,6.097732,-4.907066,-0.291756,-1.947302,-1.138194,6,WALK
1759223392.23984,7.128287,5.386804,-4.213496,0.308912,-0.651688,0.087775,6,WALK
1759223392.26069,14.90211,12.122741,3.448099,0.213553,-0.190144,2.624144,6,WALK
1759223392.28015,9.738565,19.514838,1.918055,-0.325666,-0.540766,1.636918,6,WALK
1759223392.30077,-0.362572,7.078756,12.362311,-2.31901,0.727355,-0.736462,6,WALK
1759223392.32070,-1.303493,1.844583,2.655469,-2.437439,-0.289332,-1.645853,6,WALK
1759223392.34025,0.773626,4.192546,1.875408,-2.660121,-1.989383,-1.318957,6,WALK
1759223392.36070,6.312163,11.792491,5.643433,-3.725037,-1.997009,0.104917,6,WALK
1759223392.38069,3.881151,14.138509,-0.253935,-3.159593,-2.590056,0.426871,6,WALK
1759223392.40070,3.429095,13.379547,0.795025,-2.618555,-1.77864,0.10053,6,WALK
1759223392.42018,4.725855,10.780192,1.203086,-2.341726,-0.782341,0.057515,6,WALK
1759223392.44066,3.315969,8.346486,-0.282665,-1.77596,-0.094576,-0.077263,6,WALK
1759223392.46068,1.91985,5.882254,-0.234632,-1.379501,0.086812,-0.125589,6,WALK
1759223392.48049,1.68073,6.707057,1.054496,-1.413817,0.14313,0.020831,6,WALK
1759223392.50022,1.042226,8.431032,1.111059,-1.504575,0.24313,0.08316,6,WALK
1759223392.52068,0.091429,9.062353,-0.09921,-1.4205,0.091781,0.116635,6,WALK
1759223392.53983,-0.529717,8.983793,-0.478541,-1.489084,-0.319984,0.250946,6,WALK
1759223392.55999,-0.811784,8.969577,0.373944,-1.637972,-0.445931,0.344535,6,WALK
1759223392.58069,-0.363919,8.895058,0.500239,-1.491164,-0.24899,0.33456,6,WALK
1759223392.60068,1.722778,8.947281,-0.622492,-1.288512,-0.136674,0.316557,6,WALK
1759223392.62068,2.970755,9.721656,-0.765995,-1.470861,-0.12443,0.325719,6,WALK
1759223392.64056,2.393453,10.292374,-0.522235,-1.491182,-0.46171,0.419108,6,WALK
1759223392.66038,1.6309,10.524312,-1.048361,-1.396227,-0.925367,0.515786,6,WALK
1759223392.68069,0.792032,10.301053,-3.67899,-1.460941,-1.163482,0.587423,6,WALK
1759223392.70068,0.328006,11.587337,-4.889109,-0.969028,-1.113036,0.408396,6,WALK
1759223392.72068,-0.207847,13.81185,-2.646191,0.03677,-0.769174,0.179713,6,WALK
1759223392.74074,-0.679504,12.903101,-1.250671,0.343866,-0.4328,0.05514,6,WALK
1759223392.76068,-1.82513,13.455713,-1.290175,0.728156,-0.138806,-0.193601,6,WALK
1759223392.78068,-3.341557,14.678102,0.745794,1.357856,0.59756,-0.67022,6,WALK
1759223392.80068,-1.813757,15.06701,-0.543633,2.156148,1.091552,-1.175781,6,WALK
1759223392.82068,3.291878,12.688371,-3.62138,3.196799,1.026021,-0.963448,6,WALK
1759223392.84068,5.176563,13.235895,-0.514604,3.392104,0.328556,-0.718845,6,WALK
1759223392.86069,4.790648,13.708002,4.060716,2.791791,0.352264,-0.710091,6,WALK
1759223392.88071,6.485294,14.021043,3.936516,2.21801,0.625689,-0.460887,6,WALK
1759223392.90069,7.338228,14.443919,3.993828,1.756838,0.25499,-0.199081,6,WALK
1759223392.92070,7.93214,14.203452,4.196437,1.35419,-0.394202,-0.048741,6,WALK
1759223392.94069,8.077139,12.281806,3.0761,1.599341,-0.666167,-0.043685,6,WALK
1759223392.95982,4.44723,10.869376,-3.16274,3.388156,-1.050938,-0.581922,6,WALK
1759223392.98069,3.568258,9.554511,1.748815,3.98701,0.089997,-0.728211,6,WALK
1759223393.00070,2.4982,7.425916,1.695993,4.242983,0.535401,-0.661307,6,WALK
1759223393.02070,2.574814,5.760449,1.368137,4.120212,0.730083,-0.496885,6,WALK
1759223393.04067,2.736423,4.690989,0.900968,3.286931,1.281958,-0.406409,6,WALK
1759223393.05989,2.466926,4.45935,1.051952,2.697746,1.619785,-0.391709,6,WALK
1759223393.08037,2.322076,3.392584,2.199673,1.15891,1.036598,-0.264435,6,WALK
1759223393.10070,2.954744,2.211195,1.949479,0.670492,0.476196,-0.050819,6,WALK
1759223393.12070,3.239355,1.258452,1.203685,0.424589,0.555616,0.158459,6,WALK
1759223393.14068,2.757522,1.066168,0.882263,-0.181165,0.611634,0.205126,6,WALK
1759223393.16022,2.174384,1.673697,0.593463,-0.610749,0.553238,0.201342,6,WALK
1759223393.18070,2.223764,2.676119,-1.590049,-1.421514,0.536313,0.300255,6,WALK
1759223393.20071,0.925359,4.944326,-5.461623,-1.897485,0.436777,0.139447,6,WALK
1759223393.22070,1.802684,8.832958,-13.002011,-1.46768,0.765203,-0.056603,6,WALK
1759223393.24031,3.405303,15.898995,-22.33865,0.188603,1.383192,-0.055576,6,WALK
1759223393.26062,1.836802,20.352061,-13.916148,-0.359345,0.756176,-0.331158,6,WALK
1759223393.28071,-0.38816,15.021221,-5.251681,-0.998057,-1.806306,-1.093251,6,WALK
1759223393.30070,1.366341,8.384195,-6.385037,-0.175662,-1.086938,-1.215431,6,WALK
1759223393.32076,7.053617,7.557597,-4.738424,-0.342508,0.13209,-0.239258,6,WALK
1759223393.34075,11.216087,9.631275,4.587141,-1.196776,-0.896352,1.848999,6,WALK
1759223393.36072,10.740838,15.254506,-8.532635,0.70191,-1.538988,1.903316,6,WALK
1759223393.37996,3.962404,7.294684,12.054057,-1.549132,-0.664419,0.095576,6,WALK
1759223393.40070,1.13545,2.749441,6.034286,-2.597157,-0.588908,-0.645699,6,WALK
1759223393.42070,2.36592,4.549432,5.453393,-3.691452,-0.390844,-0.298313,6,WALK
1759223393.44068,5.163844,9.008932,4.858583,-4.336652,-0.203352,0.528175,6,WALK
1759223393.46072,1.695095,12.746131,-2.908506,-2.860541,-2.305089,0.228265,6,WALK
1759223393.48073,3.612252,13.096582,3.130568,-2.583406,-2.152736,0.128159,6,WALK
1759223393.50072,3.662979,11.111789,1.037438,-2.119121,-1.652639,0.270323,6,WALK
1759223393.52012,3.874417,8.93546,-0.690578,-1.338327,-1.190806,0.476289,6,WALK
1759223393.54069,2.109741,7.881263,0.580145,-1.041401,-0.488234,0.318155,6,WALK
1759223393.56071,0.489165,7.266552,1.525555,-1.316925,-0.390101,0.083683,6,WALK
1759223393.58071,0.537049,8.825925,1.4247,-1.70348,-0.502779,0.12244,6,WALK
1759223393.60079,0.268151,9.165154,1.179444,-1.831331,-0.496581,0.135994,6,WALK
1759223393.62070,-0.162955,8.987983,0.320823,-1.712749,-0.593391,0.16427,6,WALK
1759223393.64003,-0.591218,9.110686,-0.408511,-1.493383,-0.821291,0.381454,6,WALK
1759223393.66070,-0.61112,9.282619,-0.835427,-1.220178,-0.796757,0.614023,6,WALK
1759223393.68071,-0.100706,8.818443,-0.791882,-0.973883,-0.138555,0.47803,6,WALK
1759223393.70074,2.167501,8.989329,-0.388459,-1.163523,0.47803,0.294406,6,WALK
1759223393.72072,3.27452,9.6413,-0.21069,-1.51503,0.547707,0.411118,6,WALK
1759223393.74073,2.831892,9.568277,-0.21458,-1.437482,-0.062833,0.537559,6,WALK
1759223393.76072,2.351106,9.671228,-0.820762,-1.105675,-0.6652,0.517472,6,WALK
1759223393.78070,1.90354,10.630704,-2.121861,-0.910758,-0.656207,0.563836,6,WALK
1759223393.80070,0.552761,12.311733,-3.066224,-0.772417,-0.574782,0.508658,6,WALK
1759223393.82071,-0.847547,12.533047,-1.40794,-0.169721,-0.597706,0.344504,6,WALK
1759223393.84068,0.043694,11.215189,-1.955315,-0.12664,-0.453945,0.132362,6,WALK
1759223393.86070,0.800561,11.521347,-3.374627,0.11047,-0.489027,-0.010767,6,WALK
1759223393.87992,-1.611447,17.225533,-1.480963,1.200659,-0.557719,-0.422395,6,WALK
1759223393.90073,-3.814562,16.185252,-1.282993,2.266934,-0.351026,-0.935335,6,WALK
1759223393.91970,-1.969081,11.96607,-2.952051,3.003006,0.603758,-1.287029,6,WALK
1759223393.93980,3.55943,13.354558,-0.968006,3.01235,0.560724,-1.247081,6,WALK
1759223393.96070,3.705476,14.900913,4.039916,2.501835,0.503105,-1.262717,6,WALK
1759223393.98034,5.503073,15.967081,4.324078,2.169131,1.107153,-1.150425,6,WALK
1759223394.00074,7.936479,16.344317,4.568436,1.758704,1.202829,-0.479686,6,WALK
1759223394.02002,8.898649,15.106515,4.094234,1.423537,0.81164,0.272828,6,WALK
1759223394.04042,7.116914,11.574618,-1.968333,2.678205,-0.600544,0.253618,6,WALK
1759223394.06022,6.306327,9.708937,-0.921917,3.832715,-0.994035,-0.185035,6,WALK
1759223394.07989,3.813814,8.450185,4.424634,3.487567,0.221687,-0.715157,6,WALK
1759223394.10071,2.548029,8.432229,1.642572,3.46934,0.718234,-0.955522,6,WALK
1759223394.12069,2.479944,7.295881,0.965163,3.339989,1.050934,-0.849173,6,WALK
1759223394.14071,2.690334,5.565471,1.657386,2.865593,1.300729,-0.650185,6,WALK
1759223394.16073,2.689736,3.887136,1.867028,2.249788,1.371684,-0.43568,6,WALK
1759223394.18080,2.275539,2.790592,2.140267,1.661397,1.41292,-0.274025,6,WALK
1759223394.19998,2.599654,2.212542,2.392556,1.097209,0.951262,-0.07249,6,WALK
1759223394.22082,3.166182,1.75091,2.437746,0.416062,0.502276,0.023716,6,WALK
1759223394.24076,4.208857,1.413028,1.922993,-0.386066,0.438444,0.079471,6,WALK
1759223394.26073,3.687819,1.908777,0.836923,-1.248338,0.682105,0.16779,6,WALK
1759223394.28084,2.195483,3.39004,-0.658106,-2.076491,0.891696,0.144297,6,WALK
1759223394.30044,0.961871,6.966528,-7.111826,-2.022983,0.584686,-0.127166,6,WALK
1759223394.32073,3.531447,13.621661,-20.862924,0.019786,0.451345,-0.228356,6,WALK
1759223394.34076,1.458817,20.595372,-22.95381,0.772185,2.25457,-0.020949,6,WALK
1759223394.36075,-3.38585,15.443349,-4.26527,-1.079314,-0.15628,-0.759359,6,WALK
1759223394.38071,-0.701202,8.96015,-4.912154,-0.334891,-1.453436,-1.091551,6,WALK
1759223394.40073,5.335628,6.992565,-5.10758,0.43435,-0.681411,-0.276949,6,WALK
1759223394.42076,14.261062,13.276297,-0.955735,0.432267,-0.092341,2.064957,6,WALK
1759223394.44068,12.831873,20.021062,-1.83351,0.274596,-0.941493,1.807991,6,WALK
1759223394.46076,3.10079,6.35885,12.89113,-1.260421,-0.941033,-0.473087,6,WALK
1759223394.48077,2.087893,2.37011,6.121225,-2.024909,-0.163962,-1.128454,6,WALK
1759223394.50069,3.013103,4.413561,7.127838,-3.576198,-0.152247,-0.490556,6,WALK
1759223394.52077,7.253832,9.977686,6.179135,-4.731129,0.230097,0.887232,6,WALK
1759223394.54073,3.258808,11.339388,0.419135,-3.411639,-1.124937,0.50655,6,WALK
1759223394.56081,2.302923,12.231228,-1.046565,-1.770501,-2.567792,-0.190252,6,WALK
1759223394.58071,5.138855,11.030087,3.044078,-1.871565,-1.923493,0.097643,6,WALK
1759223394.60077,3.954473,8.957906,0.797419,-1.658226,-1.029079,0.270897,6,WALK
1759223394.62079,2.073977,6.868665,-0.937629,-1.252304,-0.537741,0.12676,6,WALK
1759223394.64071,0.840514,6.80462,-0.170587,-1.424823,-0.624333,0.125587,6,WALK
1759223394.66079,1.301099,9.593117,1.725022,-1.98945,-0.7621,0.370522,6,WALK
1759223394.68077,0.889147,9.409811,1.952023,-2.171476,-0.719242,0.223817,6,WALK
1759223394.69995,-0.050877,9.335591,1.945887,-2.129009,-0.682126,0.119547,6,WALK
1759223394.72079,-0.697012,9.244162,0.081104,-1.599174,-0.763835,0.075118,6,WALK
1759223394.74076,-1.295263,9.229049,-0.659453,-1.052897,-1.038909,0.178435,6,WALK
1759223394.76077,-1.400458,9.519944,-0.124498,-1.01005,-1.117463,0.438937,6,WALK
1759223394.78071,-0.938078,9.080908,-0.793229,-1.331157,-0.695299,0.492726,6,WALK
1759223394.80052,1.86239,9.791088,-1.605911,-1.601813,0.298091,0.236814,6,WALK
1759223394.82070,2.523788,10.414179,-1.104326,-1.454583,0.236132,0.44122,6,WALK
1759223394.84075,1.914763,9.741857,-1.426645,-1.160977,-0.454394,0.525667,6,WALK
1759223394.86081,2.031779,9.791986,-2.331204,-0.880493,-0.657873,0.631691,6,WALK
1759223394.88081,0.359729,12.095357,-2.151639,-0.628335,-0.561275,0.613279,6,WALK
1759223394.90073,-1.893814,12.803442,-2.427122,-0.259772,-0.581069,0.422949,6,WALK
1759223394.92075,-1.511041,12.365154,-2.412906,0.079077,-0.249381,0.059182,6,WALK
1759223394.94065,1.114052,11.47885,-3.062334,0.335088,-0.143823,-0.087347,6,WALK
1759223394.96073,0.345663,15.161881,-1.269825,1.002491,-0.295158,-0.155321,6,WALK
1759223394.98071,-2.383428,17.204583,0.691026,1.71144,-0.132578,-0.713044,6,WALK
1759223395.00073,-1.550994,13.477111,-2.505532,2.730129,0.290633,-1.308143,6,WALK
1759223395.01994,3.104082,11.90412,-2.776825,3.486664,0.293793,-1.263304,6,WALK
1759223395.04070,4.758476,14.308797,1.246481,3.215108,-0.325463,-1.049749,6,WALK
1759223395.06074,5.404461,15.152154,5.795464,2.280443,-0.289826,-0.881035,6,WALK
1759223395.08073,6.801478,15.17849,4.374805,1.722939,0.07309,-0.616085,6,WALK
1759223395.10053,8.01444,15.023167,3.327641,1.429977,0.403255,-0.19236,6,WALK
1759223395.12038,8.30788,12.308291,-3.334225,2.547049,0.835715,-0.079769,6,WALK
1759223395.14075,5.058499,10.046519,-1.330727,3.190837,0.095728,-0.325893,6,WALK
1759223395.16073,3.031059,8.867824,4.038719,2.539165,0.520598,-0.757681,6,WALK
1759223395.18071,0.601992,9.103653,2.38672,2.749082,1.637359,-1.443253,6,WALK
1759223395.20073,-0.029628,8.693795,1.472284,3.221267,1.459421,-1.765594,6,WALK
1759223395.22071,1.25127,6.761225,1.885135,3.305266,1.219593,-1.498581,6,WALK
1759223395.24070,2.721459,4.180276,1.413028,2.890019,1.4332,-0.970289,6,WALK
1759223395.26073,3.081188,2.531719,1.306785,2.12079,1.845965,-0.538259,6,WALK
1759223395.28008,3.079991,1.848623,1.307683,1.357099,1.751135,-0.294245,6,WALK
1759223395.30076,3.967342,1.49473,1.619378,0.533263,1.23537,-0.078816,6,WALK
1759223395.32072,4.516213,1.30873,1.345691,-0.285456,0.79812,0.142594,6,WALK
1759223395.34070,3.661483,1.285836,0.970849,-1.061188,0.710353,0.300227,6,WALK
1759223395.36071,2.558803,2.344821,-0.915483,-1.534956,0.856202,0.386539,6,WALK
1759223395.38072,1.271321,4.954501,-3.520374,-1.865712,1.157002,0.279755,6,WALK
1759223395.40078,1.534085,10.565462,-12.419472,-1.448686,1.349811,0.353874,6,WALK
1759223395.42009,3.517531,22.198739,-29.861381,1.294587,1.760795,0.473447,6,WALK
1759223395.44069,1.591396,22.397757,-7.214179,-0.136389,0.516763,-0.153118,6,WALK
1759223395.46073,-2.206556,12.394333,-5.543774,-0.22284,-1.542716,-1.173005,6,WALK
1759223395.48072,2.211345,5.009867,-6.749554,0.27706,-0.441448,-1.004601,6,WALK
1759223395.50071,10.120889,8.282741,6.99077,-1.290689,-0.220148,0.764388,6,WALK
1759223395.51988,9.762806,14.581586,-6.225673,0.618783,-1.619284,1.600501,6,WALK
1759223395.53982,6.558915,13.888764,2.533814,0.179748,-0.315844,0.210357,6,WALK
1759223395.56072,1.650952,3.426551,10.937761,-1.662505,0.340541,-0.689417,6,WALK
1759223395.58072,0.918176,2.524386,7.028778,-3.038034,0.047428,-0.687331,6,WALK
1759223395.60071,4.750395,6.92852,5.826888,-4.270708,0.181008,0.521106,6,WALK
1759223395.62029,3.857358,11.121067,1.055993,-3.502597,-1.194243,1.009004,6,WALK
1759223395.64075,2.655918,13.992163,0.164901,-2.253776,-2.060089,0.711703,6,WALK
1759223395.66072,4.244471,13.080122,3.111415,-2.117977,-0.854764,0.490365,6,WALK
1759223395.68072,3.045425,10.098743,0.312294,-1.413049,0.049245,0.104345,6,WALK
1759223395.70080,2.764555,7.298873,-1.360954,-0.688692,0.513051,0.039085,6,WALK
1759223395.72071,2.34108,6.2969,-0.835876,-0.785228,0.785029,0.172892,6,WALK
1759223395.74070,1.661726,7.764995,0.911143,-1.614018,0.575574,0.486466,6,WALK
1759223395.76083,0.911742,9.654469,1.804181,-2.066002,0.101553,0.516847,6,WALK
1759223395.78065,0.049829,9.427319,0.818817,-1.749785,-0.491226,0.2281,6,WALK
1759223395.80071,-0.617704,8.615385,-0.05387,-1.104258,-0.838564,0.054987,6,WALK
1759223395.82071,-0.096516,7.880365,0.460285,-0.965619,-0.785993,0.196908,6,WALK
1759223395.84070,0.852186,7.810784,0.503082,-1.274947,-0.070842,0.400169,6,WALK
1759223395.86072,2.495357,9.527127,0.6605,-1.593965,0.507422,0.425365,6,WALK
1759223395.88072,3.327491,10.297012,0.475548,-1.883734,0.83899,0.424093,6,WALK
1759223395.90073,3.589357,8.948029,-3.321057,-2.061361,0.626698,0.451184,6,WALK
1759223395.92072,3.424756,10.223391,-6.827216,-1.334156,-1.014158,0.559737,6,WALK
1759223395.94030,2.164209,12.8624,-2.830096,-0.606655,-1.37682,0.532596,6,WALK
1759223395.96071,-0.259921,11.972654,-1.573888,-0.28722,-0.758954,0.552653,6,WALK
1759223395.98072,-1.963245,12.006323,-2.563143,0.085277,-0.295489,0.439738,6,WALK
1759223396.00074,-1.686565,13.589339,-3.296666,0.511442,-0.092124,0.024058,6,WALK
1759223396.02072,-3.467851,18.785056,-0.632668,1.324315,0.032507,-0.758793,6,WALK
1759223396.04070,-3.436577,17.590499,1.47423,2.208833,0.487411,-1.429026,6,WALK
1759223396.06072,1.675343,13.137583,0.632668,2.882817,0.895171,-1.459794,6,WALK
1759223396.08072,4.520851,12.596045,-1.125724,3.557238,0.833281,-1.264052,6,WALK
1759223396.10071,7.184999,15.071649,1.054047,3.588991,0.480788,-0.858949,6,WALK
1759223396.12072,9.037213,15.63294,4.406977,2.769233,0.364161,-0.175926,6,WALK
1759223396.14072,10.081834,14.712369,4.462642,2.023721,0.440275,0.358671,6,WALK
1759223396.16072,10.389788,12.791621,2.019958,2.098047,0.420433,0.398299,6,WALK
1759223396.18072,9.256732,8.680178,-0.368857,2.850892,-0.435958,0.21122,6,WALK
1759223396.20071,5.679645,6.775142,2.158522,2.894537,-1.247586,-0.243499,6,WALK
1759223396.22079,4.791845,7.571064,2.103306,2.836414,-0.850886,-0.367984,6,WALK
1759223396.24070,2.322226,8.261342,2.045845,2.932027,0.289878,-0.679381,6,WALK
1759223396.26081,0.182109,8.206425,1.067215,3.177767,0.366761,-0.978844,6,WALK
1759223396.28073,0.137667,7.173178,1.587206,3.121682,0.449072,-0.913998,6,WALK
1759223396.30082,0.980874,5.516989,1.521066,2.746926,1.063074,-0.610464,6,WALK
1759223396.32072,1.776049,4.434061,1.396268,2.064828,1.412478,-0.333749,6,WALK
1759223396.33985,2.370409,3.938462,1.371878,1.417037,1.271176,-0.236567,6,WALK
1759223396.36072,2.414552,2.658013,1.130362,0.767294,0.684017,-0.331225,6,WALK
1759223396.38073,2.516156,1.001076,1.081281,-0.116339,0.485228,-0.41352,6,WALK
1759223396.40079,2.98931,0.290746,1.001674,-1.091511,0.644362,-0.222015,6,WALK
1759223396.42012,3.43942,0.953192,0.68938,-1.928686,0.898026,0.080173,6,WALK
1759223396.44025,3.470246,2.442984,-0.998681,-2.320584,1.181903,0.364486,6,WALK
1759223396.46071,4.852747,7.152677,-6.900388,-1.651476,1.199615,0.61391,6,WALK
1759223396.48072,5.105336,15.446641,-20.516961,0.458791,1.638695,0.166694,6,WALK
1759223396.50073,4.923975,22.252309,-26.282798,2.165301,2.5111,0.075077,6,WALK
1759223396.52072,2.144756,18.014572,-9.204359,0.336248,0.162376,-0.156932,6,WALK
1759223396.54067,1.597681,7.562684,-5.994183,-0.336076,-0.573119,-1.003189,6,WALK
1759223396.56073,1.307833,0.794127,-4.064307,-0.277824,1.087229,-1.237071,6,WALK
1759223396.58072,8.180837,5.333832,11.076924,-1.743967,-0.773574,0.370409,6,WALK
1759223396.60080,12.027871,19.038692,-11.138125,1.903834,-3.995254,1.770928,6,WALK
1759223396.62072,7.431901,18.978238,8.264934,-0.694293,-0.044935,0.501887,6,WALK
1759223396.64072,0.784101,4.411167,10.72752,-2.70785,-0.779282,-1.070362,6,WALK
1759223396.66074,0.585682,2.528876,5.473295,-3.49882,-1.17968,-1.326894,6,WALK
1759223396.68072,5.378873,6.050447,4.317793,-4.167398,-1.358832,-0.098112,6,WALK
1759223396.70081,4.96752,10.768371,0.341922,-3.417519,-2.170934,0.659527,6,WALK
1759223396.72072,4.042161,13.140277,2.92751,-3.027694,-1.948328,0.448739,6,WALK
1759223396.74070,1.822436,12.748226,3.51379,-2.916305,-1.259858,-0.480388,6,WALK
1759223396.76073,1.396568,10.071808,-0.699556,-2.001669,-1.624909,-0.85316,6,WALK
1759223396.78041,2.928408,8.467693,0.545579,-1.564638,-1.329932,-0.344822,6,WALK
1759223396.80074,2.288707,7.741352,0.013617,-1.257958,-0.633293,0.153191,6,WALK
1759223396.82072,1.21401,8.395118,0.615759,-1.133267,0.138069,0.526242,6,WALK
1759223396.84071,0.491859,8.510938,1.068263,-1.05006,0.525116,0.694198,6,WALK
1759223396.86073,-0.347907,7.810634,0.67711,-0.955101,0.490956,0.66765,6,WALK
1759223396.88073,-0.84216,8.290073,1.56476,-1.226126,0.260681,0.578561,6,WALK
1759223396.90052,-0.240318,9.805603,2.776975,-1.59939,0.095812,0.42167,6,WALK
1759223396.92046,0.173879,9.131186,1.194407,-1.930476,-0.459343,0.309751,6,WALK
1759223396.94077,1.195156,9.225158,-1.991078,-2.422173,-0.380361,0.265121,6,WALK
1759223396.96016,2.641702,9.572318,-3.361309,-2.183357,-0.009841,0.229474,6,WALK
1759223396.98073,4.46788,10.453833,-4.006098,-0.972429,-0.153015,0.483294,6,WALK
1759223397.00082,4.440346,11.733833,-4.374057,-0.321956,-0.816191,0.684046,6,WALK
1759223397.02072,0.081403,11.491569,-2.191592,-0.50935,-1.723795,0.676878,6,WALK
1759223397.04062,-2.309806,12.989442,0.356586,-0.450602,-1.682716,0.529858,6,WALK
1759223397.05997,-2.786103,12.871976,-0.020351,-0.387052,-0.652737,0.218963,6,WALK
1759223397.08070,-1.181239,12.985102,-1.590498,-0.118297,0.594414,-0.01655,6,WALK
1759223397.10072,-0.411054,18.386571,-0.563236,1.001415,1.028484,-0.453106,6,WALK
1759223397.11972,0.048183,17.982699,-0.896778,2.13456,0.595007,-0.882203,6,WALK
1759223397.14074,3.120393,13.249362,-1.729511,2.71278,0.36838,-1.125136,6,WALK
1759223397.15992,5.077503,10.144831,-3.309685,3.348699,0.335705,-1.023322,6,WALK
1759223397.17982,6.414515,11.56549,-1.319055,3.597977,-0.128324,-0.74365,6,WALK
1759223397.20077,6.822876,12.848034,4.978593,2.642813,-0.61591,-0.484956,6,WALK
1759223397.22071,7.014712,13.410672,4.589535,1.935454,-0.398655,-0.380553,6,WALK
1759223397.24071,7.402572,13.711294,3.143886,1.715313,0.02615,-0.406522,6,WALK
1759223397.26026,7.34152,12.343456,2.650681,1.647039,-0.021501,-0.268447,6,WALK
1759223397.28072,5.117007,9.762507,-0.559046,2.343702,-1.362921,-0.195785,6,WALK
1759223397.30074,4.437354,8.867375,1.239448,2.616852,-1.595636,-0.169778,6,WALK
1759223397.32075,1.108216,7.816769,1.693748,2.932959,-0.336545,-0.815193,6,WALK
1759223397.34072,-0.518195,7.856124,-0.286107,3.552398,0.367628,-1.396613,6,WALK
1759223397.36077,1.099836,6.785467,0.220566,3.388371,0.652965,-1.214239,6,WALK
1759223397.38073,2.772336,4.914099,0.779313,2.54479,0.968091,-0.598782,6,WALK
1759223397.40081,3.21257,3.771167,1.44939,1.687928,0.966276,-0.128486,6,WALK
1759223397.42073,3.419219,3.500772,1.667113,1.146506,0.619058,0.056246,6,WALK
1759223397.44072,3.680187,2.809895,1.806575,0.682593,0.258147,-0.04354,6,WALK
1759223397.46073,4.40159,2.409165,1.818546,0.00107,0.362159,-0.008592,6,WALK
1759223397.47986,4.088099,2.239027,1.387889,-0.901245,0.830321,0.212854,6,WALK
1759223397.50073,2.987664,2.382081,0.291344,-1.669662,0.945293,0.35689,6,WALK
1759223397.52073,2.137723,2.907309,-1.293019,-2.153188,1.089249,0.403822,6,WALK
1759223397.54073,0.698508,5.59091,-5.905747,-2.212119,1.521607,0.176513,6,WALK
1759223397.56073,-0.574758,15.790658,-25.094825,0.216446,1.153068,-0.203247,6,WALK
1759223397.58073,3.637541,29.072491,-26.52147,0.619703,2.42952,0.502957,6,WALK
1759223397.60085,-1.975216,16.592715,-0.504428,-1.348229,-1.769476,-0.576155,6,WALK
1759223397.62075,-0.174926,6.925827,-4.979042,0.297692,-2.557182,-1.497178,6,WALK
1759223397.64072,4.457255,2.101511,0.185551,0.171118,-1.370602,-0.869514,6,WALK
1759223397.66074,13.029245,8.18802,8.370728,-1.205542,-1.964989,1.480858,6,WALK
1759223397.69982,8.314314,15.47582,-15.572935,0.901499,4.626858,2.263586,6,WALK
1759223397.72072,-2.700061,6.378901,10.155306,-2.607427,-0.551984,-1.112653,6,WALK
1759223397.74075,-0.684891,5.470302,6.861034,-3.651976,-0.291083,-1.49349,6,WALK
1759223397.76078,0.827346,6.697779,6.580463,-4.018471,-0.08527,-1.254227,6,WALK
1759223397.78074,2.838176,10.428095,2.643648,-3.175087,-1.209992,-0.499895,6,WALK
1759223397.80087,4.711639,13.550882,0.939275,-1.711179,-2.571227,0.521971,6,WALK
1759223397.82073,5.071368,12.942456,3.323451,-1.30878,-1.602291,0.876711,6,WALK
1759223397.84071,3.720739,10.64058,1.376067,-0.83496,-0.263542,0.23215,6,WALK
1759223397.86074,3.267936,7.905804,-0.471209,-0.441238,0.172342,-0.21796,6,WALK
1759223397.88034,4.026748,5.999271,-2.160168,-0.795371,0.563142,-0.106099,6,WALK
1759223397.90008,3.499126,7.423522,1.605462,-2.159014,0.607366,0.242905,6,WALK
1759223397.92073,1.303643,9.046042,2.409016,-2.691863,-0.1769,0.091612,6,WALK
1759223397.94072,0.774225,9.087492,0.968006,-2.191845,-1.090031,-0.090394,6,WALK
1759223397.96073,0.810886,8.723573,0.873285,-1.453519,-1.54327,-0.076939,6,WALK
1759223397.97984,0.636558,8.943989,1.546355,-1.032453,-1.456763,0.039026,6,WALK
1759223398.00074,0.649726,9.203012,1.456273,-1.004189,-1.153397,0.234246,6,WALK
1759223398.02086,0.612766,9.08001,0.250194,-1.261021,-0.982023,0.553605,6,WALK
1759223398.04073,1.836353,10.175507,-1.481113,-1.647636,-0.596455,0.505696,6,WALK
1759223398.06074,2.577358,9.614665,-2.033276,-1.530696,-0.572612,0.469103,6,WALK
1759223398.08024,2.501342,9.686042,-1.187524,-1.136601,-0.830057,0.666828,6,WALK
1759223398.10075,0.334889,10.326042,-1.355866,-0.998541,-1.012195,0.736611,6,WALK
1759223398.12073,-1.512238,10.947038,-2.921375,-1.095081,-1.11158,0.635955,6,WALK
1759223398.14069,-2.380884,11.955745,-3.053954,-0.577859,-0.946086,0.299748,6,WALK
1759223398.16076,-1.647211,12.626421,-2.052729,0.215206,-0.34148,0.033562,6,WALK
1759223398.18065,-0.07841,12.582428,-1.373972,0.580585,0.415072,-0.08482,6,WALK
1759223398.20074,0.483629,17.503111,0.209493,0.769778,1.163156,-0.382188,6,WALK
1759223398.22093,0.354791,17.011401,-0.07018,1.223017,1.040166,-0.828156,6,WALK
1759223398.24074,2.076371,12.641834,-3.333776,2.111156,0.050508,-1.080801,6,WALK
1759223398.26078,3.594595,10.662577,-3.136703,2.749392,-0.324085,-1.007917,6,WALK
1759223398.28079,4.998794,11.927015,-0.797718,3.064929,-0.287844,-0.798311,6,WALK
1759223398.29992,6.216994,13.116335,2.561347,2.823933,-0.354767,-0.480693,6,WALK
1759223398.32085,6.413168,12.778602,4.269011,2.188522,-0.293029,-0.278226,6,WALK
1759223398.34074,6.714389,12.720393,3.364302,1.742914,-0.048137,-0.255632,6,WALK
1759223398.36090,8.108263,12.855815,2.025495,1.715262,0.143404,-0.13664,6,WALK
1759223398.38086,7.526472,11.474211,0.477494,2.073734,-0.436184,-0.218505,6,WALK
1759223398.40087,2.94412,10.164284,2.13458,2.294156,-0.907758,-1.089294,6,WALK
1759223398.42087,0.365565,10.735002,1.090708,2.984902,-0.216957,-1.91465,6,WALK
1759223398.44078,-0.684742,9.724948,0.989105,3.414156,0.649872,-2.258263,6,WALK
1759223398.46082,-0.7021,8.012645,0.839916,3.315753,1.903622,-2.019126,6,WALK
1759223398.48092,1.395221,6.802226,0.973093,2.77283,2.702154,-1.341163,6,WALK
1759223398.50076,2.21329,5.768829,1.489044,2.089931,2.585065,-0.79887,6,WALK
1759223398.52079,2.868403,4.937442,1.559822,1.635734,2.183536,-0.492881,6,WALK
1759223398.54078,3.841646,3.10513,1.603816,1.209722,1.373181,-0.329642,6,WALK
1759223398.56078,4.685153,1.504756,1.510891,0.5759,0.886497,-0.279534,6,WALK
1759223398.58073,4.758625,0.512658,1.220893,-0.344879,0.640114,-0.239231,6,WALK
1759223398.60076,4.524143,1.298854,0.050578,-1.151142,0.425797,0.026831,6,WALK
1759223398.62092,3.747225,2.710685,-1.306486,-1.595315,0.276223,0.298638,6,WALK
1759223398.64083,3.140444,4.627693,-2.792537,-1.784538,0.429804,0.496733,6,WALK
1759223398.66074,2.849399,6.914604,-6.562806,-1.377857,0.905517,0.57494,6,WALK
1759223398.68075,1.597232,10.442909,-13.543999,-0.294277,1.33803,0.404569,6,WALK
1759223398.70080,1.534683,17.302147,-19.439271,0.854543,1.52335,0.390229,6,WALK
1759223398.72081,2.347066,22.772898,-11.589732,-0.026285,0.417284,0.224521,6,WALK
1759223398.74076,0.540042,15.086762,-6.278345,-0.354486,-1.288208,-0.766471,6,WALK
1759223398.76093,0.506823,5.768081,-7.615656,0.094423,-0.152233,-1.139911,6,WALK
1759223398.78075,4.120122,3.407099,-0.675315,-0.625771,-0.25154,-0.149619,6,WALK
1759223398.79983,10.267085,8.451532,10.19062,-2.033905,-1.786922,2.095548,6,WALK
1759223398.82083,11.747749,19.285294,-20.157981,2.152187,-1.019968,2.575004,6,WALK
1759223398.84079,2.58469,12.063335,13.649344,-0.777033,-0.326359,0.072349,6,WALK
1759223398.86083,-0.019603,4.28592,8.812607,-2.486322,-0.017412,-1.199613,6,WALK
1759223398.88074,1.295113,3.828179,6.487538,-3.588723,0.425947,-1.036038,6,WALK
1759223398.90021,3.938162,6.898742,6.106112,-4.38167,-0.002205,0.019136,6,WALK
1759223398.92075,3.201048,11.901277,-4.413112,-2.141503,-3.600324,0.574105,6,WALK
1759223398.94074,5.312135,12.863447,3.097349,-1.752024,-3.437608,1.070909,6,WALK
1759223398.96075,4.099621,11.730241,1.185878,-1.675547,-2.065742,0.924461,6,WALK
1759223398.98074,3.199551,8.305037,-3.222595,-1.116288,-0.061903,0.370573,6,WALK
1759223399.00073,2.818724,8.246229,-0.595109,-1.394342,1.561506,0.139197,6,WALK
1759223399.02075,1.402404,9.017461,2.106598,-1.89347,1.143166,-0.079458,6,WALK
1759223399.04073,0.931494,9.651625,0.791433,-1.86366,-0.103925,-0.054061,6,WALK
1759223399.06074,0.758064,9.417443,0.034417,-1.478944,-1.242999,0.191768,6,WALK
1759223399.08076,-0.084994,8.602067,0.11986,-1.088044,-1.56339,0.339081,6,WALK
1759223399.09977,-0.952294,8.498817,0.532261,-0.916238,-1.000412,0.496667,6,WALK
1759223399.11986,-1.535581,8.725668,0.688782,-1.118045,-0.187628,0.662352,6,WALK
1759223399.14073,-0.721104,8.797793,0.136619,-1.110643,0.518864,0.353855,6,WALK
1759223399.16066,1.865083,9.928754,-0.038906,-1.230254,0.89935,0.241248,6,WALK
1759223399.18055,3.533842,10.351331,-0.634164,-1.611612,0.865066,0.358392,6,WALK
1759223399.20074,3.546262,9.263316,-1.889624,-1.775586,0.090108,0.381636,6,WALK
1759223399.22032,3.215712,8.779837,-2.721609,-1.137039,-0.968963,0.42706,6,WALK
1759223399.24083,1.735198,9.966014,-2.206406,-0.539598,-1.207634,0.425255,6,WALK
1759223399.26093,1.029507,10.776002,-1.086668,-0.332821,-0.874537,0.511385,6,WALK
1759223399.27990,0.320374,11.11987,-0.575656,-0.250429,-0.65686,0.524986,6,WALK
1759223399.30074,-0.536301,11.339837,-0.307056,-0.247819,-0.196049,0.460967,6,WALK
1759223399.32068,-0.007632,11.610382,-1.13979,-0.387889,0.064557,0.270174,6,WALK
1759223399.34073,-0.030825,16.33489,-1.063175,0.277842,-0.074801,-0.14637,6,WALK
1759223399.36074,-0.594211,17.896508,-0.158915,1.117062,0.048722,-0.6496,6,WALK
1759223399.38074,0.852635,13.125462,-3.431789,1.952413,0.105181,-1.053369,6,WALK
1759223399.40074,2.674174,11.571925,-3.349488,2.791455,0.464967,-1.142027,6,WALK
1759223399.42076,3.330484,13.071593,0.096816,3.156611,0.1488,-1.087939,6,WALK
1759223399.44073,4.519654,13.71698,1.644068,3.229881,0.004731,-1.054018,6,WALK
1759223399.46075,6.088455,13.971364,3.482815,2.75479,0.433493,-0.761941,6,WALK
1759223399.48075,7.669975,14.108581,4.100968,2.134165,0.453638,-0.105253,6,WALK
1759223399.50078,9.150639,13.800627,3.185485,1.719388,0.498652,0.619874,6,WALK
1759223399.52013,8.552088,11.630283,1.830966,1.901136,0.238317,0.594181,6,WALK
1759223399.54014,3.909881,9.397541,-2.294992,3.313227,-0.367264,-0.642066,6,WALK
1759223399.56079,1.298555,10.125228,0.171634,3.893814,-0.326514,-1.465033,6,WALK
1759223399.58046,0.226551,9.231593,1.521366,3.630094,0.622717,-1.652026,6,WALK
1759223399.60086,0.649726,6.799383,1.073201,3.118288,1.647865,-1.303056,6,WALK
1759223399.61980,1.862988,4.931756,1.084424,2.65336,1.715756,-0.731585,6,WALK
1759223399.64046,2.355146,4.604948,1.285088,2.322456,1.711782,-0.422275,6,WALK
1759223399.66037,2.715923,4.544045,1.348235,2.040246,1.286812,-0.350948,6,WALK
1759223399.68075,3.875913,3.991284,1.415422,1.561834,0.789433,-0.330283,6,WALK
1759223399.70081,4.909909,2.995745,1.554884,0.708493,0.507035,-0.306521,6,WALK
1759223399.72018,5.215319,2.354847,1.654992,-0.331687,0.333852,-0.220523,6,WALK
1759223399.74072,4.18701,2.176778,1.128268,-1.190899,0.5071,-0.064803,6,WALK
1759223399.76033,3.31163,2.421735,0.600047,-1.89466,0.558343,0.169515,6,WALK
1759223399.78028,2.420239,2.445976,-0.543933,-2.381917,0.620506,0.260425,6,WALK
1759223399.80075,1.421557,4.340239,-4.12506,-2.429719,1.007017,0.213118,6,WALK
1759223399.82060,0.891541,10.883592,-18.009185,-0.739925,1.542646,0.052025,6,WALK
1759223399.86075,2.226907,24.470986,-3.028665,-0.335977,-0.368804,0.260142,6,WALK
1759223399.88074,0.14021,9.889699,-5.463269,-0.357493,-1.904927,-1.306345,6,WALK
1759223399.90076,0.33429,-0.381277,-4.351162,-0.017992,-0.636412,-1.812266,6,WALK
1759223399.92052,9.177873,2.57242,9.438392,-1.179111,-1.355383,0.100062,6,WALK
1759223399.93979,14.881759,9.957185,8.405144,-1.99325,-2.423228,2.708207,6,WALK
1759223399.96075,12.235268,16.83872,-27.356597,1.244582,3.337053,2.067782,6,WALK
1759223399.97991,0.897526,7.665037,14.988301,-1.651197,-0.829127,-0.394135,6,WALK
1759223400.00038,0.832284,5.397279,7.0813,-3.195645,-1.514037,-1.128977,6,WALK
1759223400.02075,3.511845,7.398682,6.706308,-4.568551,-1.2881,-0.616515,6,WALK
1759223400.04011,2.821267,8.942044,3.86065,-4.318283,-1.549282,-0.415199,6,WALK
1759223400.06075,2.017863,11.628338,-2.028038,-2.334843,-3.077115,-0.385667,6,WALK
1759223400.08075,4.804714,12.466608,4.95061,-2.251387,-2.34417,0.24805,6,WALK
1759223400.10074,2.529175,11.145458,2.220323,-1.666343,-1.53559,0.169266,6,WALK
1759223400.12074,1.329829,8.219743,-1.10642,-0.540188,-1.221762,-0.052658,6,WALK
1759223400.14073,1.595885,7.711574,-0.207697,-0.303784,-0.779003,0.121921,6,WALK
1759223400.16088,0.629974,9.797223,-0.852037,-0.962211,0.001354,0.743692,6,WALK
1759223400.18075,0.242712,11.058817,-0.130933,-1.745075,0.53981,1.054399,6,WALK
1759223400.20028,0.070779,9.554062,-0.15697,-1.683762,0.618428,0.590563,6,WALK
1759223400.22075,0.449362,8.441805,0.055964,-1.223309,0.504928,0.293689,6,WALK
1759223400.24078,-0.134674,7.27568,0.164601,-0.985976,0.215996,0.356398,6,WALK
1759223400.26077,-0.40043,8.137443,0.016011,-1.081023,0.055456,0.625165,6,WALK
1759223400.28036,0.678158,9.572916,0.000599,-1.15101,0.415646,0.364727,6,WALK
1759223400.30075,3.490147,9.665991,-0.274884,-1.3758,0.774988,0.198748,6,WALK
1759223400.32074,5.341165,8.74976,-2.138022,-1.421803,0.317225,0.468568,6,WALK
1759223400.34075,3.733009,8.34514,-3.845686,-0.937337,-0.544466,0.5893,6,WALK
1759223400.36088,1.135001,10.864139,-1.408389,-0.771497,-0.972997,0.585847,6,WALK
1759223400.38075,-0.184054,11.178228,-0.773926,-0.6972,-1.017811,0.462813,6,WALK
1759223400.40077,0.162207,11.187506,-2.110189,-0.5768,-0.752287,0.292704,6,WALK
1759223400.42075,0.825401,12.751368,-2.789095,-0.399349,-0.375047,0.275527,6,WALK
1759223400.43975,0.498443,13.93979,-2.387917,0.243805,-0.298517,0.139119,6,WALK
1759223400.45982,-1.256208,18.164958,0.193481,1.16032,0.068553,-0.455371,6,WALK
1759223400.48075,-0.591966,16.284761,-0.682497,1.791224,0.549177,-0.903236,6,WALK
1759223400.50085,2.161814,12.569858,-3.990386,2.780907,0.592518,-1.204838,6,WALK
1759223400.52075,4.508132,12.213122,-0.582689,3.160263,0.225455,-1.163691,6,WALK
1759223400.54022,5.987898,13.879636,1.649156,3.009683,-0.371296,-0.996665,6,WALK
1759223400.56082,7.065588,14.519337,4.123563,2.396908,-0.350258,-0.704911,6,WALK
1759223400.58075,8.30788,13.916148,4.080617,1.793054,-0.235477,-0.173858,6,WALK
1759223400.60077,8.628703,12.035352,1.831265,1.701761,-0.013553,0.160041,6,WALK
1759223400.62074,7.317279,9.857976,-0.909198,2.269748,-0.69208,-0.023151,6,WALK
1759223400.64058,4.895544,9.141511,0.66873,2.392213,-1.334337,-0.513256,6,WALK
1759223400.66075,2.454356,8.827122,1.162983,2.613775,-0.030885,-1.004277,6,WALK
1759223400.68068,0.346411,8.434024,0.434847,2.97409,0.454218,-1.334588,6,WALK
1759223400.70075,-0.062698,7.259968,0.846799,3.035057,0.757416,-1.283122,6,WALK
1759223400.72035,1.146074,6.130353,0.717213,2.837276,1.419492,-0.867194,6,WALK
1759223400.74022,1.483956,5.188983,0.969652,2.303766,1.535339,-0.523526,6,WALK
1759223400.75984,1.379958,4.680664,1.005864,2.019904,1.436068,-0.414048,6,WALK
1759223400.77994,2.209698,4.027795,1.046416,1.512637,1.184999,-0.220139,6,WALK
1759223400.80076,3.866336,2.631826,1.203685,0.694434,0.658285,-0.128941,6,WALK
1759223400.82080,3.974824,2.040458,1.060631,-0.045537,0.505527,-0.141519,6,WALK
1759223400.84081,3.500173,1.993472,0.94541,-0.482477,0.521214,-0.122139,6,WALK
1759223400.86032,2.333598,2.857629,-0.257676,-1.191694,0.909197,-0.017363,6,WALK
1759223400.88076,1.499818,4.298789,-1.211765,-1.696212,0.869198,0.03973,6,WALK
1759223400.90077,1.619827,5.995829,-3.596689,-1.752759,0.714371,0.174791,6,WALK
1759223400.92077,2.050634,9.114277,-9.138219,-1.058731,0.712358,0.283988,6,WALK
1759223400.94074,1.905635,16.213234,-20.485687,0.56119,1.499996,0.032518,6,WALK
1759223400.96066,1.926734,22.318,-17.105374,0.277329,1.383119,-0.337856,6,WALK
1759223400.98076,1.785626,16.491261,-6.416012,-0.39556,-0.866612,-1.007237,6,WALK
1759223401.00060,2.482787,8.046164,-7.497143,0.763418,-0.358262,-1.256062,6,WALK
1759223401.02075,7.53994,5.111321,-4.598064,0.525297,0.769252,-0.165575,6,WALK
1759223401.04074,11.537957,9.334693,7.680898,-0.929784,-0.601427,1.851406,6,WALK
1759223401.06078,5.082591,16.848745,-10.55394,1.348699,-3.222845,0.962243,6,WALK
1759223401.08076,4.928763,6.211906,10.145729,-0.802319,-0.322496,-0.183047,6,WALK
1759223401.10083,1.055544,1.313968,8.212112,-1.997222,-0.152126,-0.667742,6,WALK
1759223401.11989,3.043479,3.951929,6.703765,-3.230578,0.084003,0.080932,6,WALK
1759223401.14082,6.900688,9.506776,7.328801,-4.463572,-0.117094,1.507474,6,WALK
1759223401.16038,3.448847,13.682563,-0.997634,-2.753247,-2.561024,1.041527,6,WALK
1759223401.18020,3.700089,15.249867,-0.107739,-1.48207,-2.681798,0.2323,6,WALK
1759223401.20084,4.365228,12.009316,1.439514,-1.761637,-0.950727,0.22183,6,WALK
1759223401.22076,2.967613,8.069956,-1.692252,-1.74581,0.58014,0.199285,6,WALK
1759223401.24074,2.415151,7.355137,-0.684442,-1.880092,1.156732,0.191729,6,WALK
1759223401.25978,2.259677,8.38195,0.894234,-2.060328,0.71083,0.283967,6,WALK
1759223401.28076,1.641375,9.264663,1.250372,-1.969879,0.023332,0.329715,6,WALK
1759223401.30069,0.900519,8.997559,0.574309,-1.591436,-0.540861,0.376147,6,WALK
1759223401.32075,0.170587,8.181286,-0.256329,-1.167495,-0.70765,0.495122,6,WALK
1759223401.34076,-0.803105,8.105719,0.051924,-1.198635,-0.56549,0.601989,6,WALK
1759223401.36016,-0.888249,9.237578,0.621146,-1.240167,0.213948,0.535401,6,WALK
1759223401.38076,0.373495,9.169194,0.242413,-1.133392,0.54374,0.356807,6,WALK
1759223401.40082,2.610278,8.510489,-0.706589,-1.254767,0.840933,0.366489,6,WALK
1759223401.42075,4.355651,9.208249,-0.928801,-1.534684,0.959786,0.382646,6,WALK
1759223401.44074,4.372261,9.449315,-1.713799,-1.490304,-0.122626,0.554524,6,WALK
1759223401.46057,2.569577,9.705196,-3.013851,-1.002273,-1.369169,0.675103,6,WALK
1759223401.48076,1.618181,11.498602,-1.710208,-0.859551,-1.29272,0.621273,6,WALK
1759223401.50075,-0.066439,12.554296,-1.807922,-0.708097,-0.97357,0.574097,6,WALK
1759223401.52076,-1.619528,13.383887,-1.456423,-0.378452,-0.626415,0.410719,6,WALK
1759223401.54074,-1.495777,12.984953,-2.974197,-0.186021,-0.273156,0.201111,6,WALK
1759223401.56076,-1.194407,16.527324,-2.557157,0.745201,-0.160307,-0.233239,6,WALK
1759223401.57982,-0.806846,17.241993,-1.23451,1.61339,0.614407,-0.749037,6,WALK
1759223401.60076,0.832733,13.370569,-2.787749,2.547884,1.040014,-1.009788,6,WALK
1759223401.62075,3.165883,10.239851,-1.214309,2.893389,0.362003,-1.123708,6,WALK
1759223401.64073,4.991462,12.418724,1.323395,2.821831,-0.922452,-1.129689,6,WALK
1759223401.66076,5.810727,14.07207,3.433584,2.558175,-0.84645,-1.191427,6,WALK
1759223401.68076,6.553678,14.186543,4.444686,2.160167,-0.037069,-1.160186,6,WALK
1759223401.70088,7.885902,14.005182,3.469497,1.833026,0.477589,-0.765674,6,WALK
1759223401.72075,8.788965,13.0273,2.669984,1.652356,0.644135,-0.195632,6,WALK
1759223401.74074,5.581632,10.544663,-2.395848,2.624715,-0.465751,-0.347246,6,WALK
1759223401.76075,4.998943,10.197653,0.774674,2.878545,-1.161354,-0.79098,6,WALK
1759223401.78056,1.969381,9.623344,1.393874,3.027151,0.337198,-1.44601,6,WALK
1759223401.80083,1.603217,8.339304,0.632668,3.301643,1.403079,-1.61145,6,WALK
1759223401.82080,1.678784,6.706009,1.520318,3.137594,1.756537,-1.301804,6,WALK
1759223401.84055,2.254889,5.511452,1.999907,2.630016,1.773468,-0.86678,6,WALK
1759223401.86085,2.044349,4.464737,1.356465,2.207399,1.820632,-0.609217,6,WALK
1759223401.88081,2.273444,3.917064,1.648707,1.741793,1.599582,-0.430243,6,WALK
1759223401.90076,3.04737,2.920627,1.848324,1.127421,1.115371,-0.292581,6,WALK
1759223401.92083,4.056825,1.682076,1.798345,0.269468,0.703225,-0.220606,6,WALK
1759223401.94075,4.413561,0.816872,1.485004,-0.629762,0.705071,-0.080968,6,WALK
1759223401.96090,4.013879,1.080084,0.589871,-1.363016,0.866887,0.235175,6,WALK
1759223401.98076,2.736124,2.863914,-1.694796,-1.739224,1.170538,0.355998,6,WALK
1759223402.00086,3.024176,6.861034,-6.021567,-1.547643,1.03476,0.465174,6,WALK
1759223402.02076,3.605668,13.538911,-17.479168,-0.179124,1.127178,0.322413,6,WALK
1759223402.04075,2.662352,20.383485,-21.809232,0.61436,1.889439,-0.096306,6,WALK
1759223402.06085,-0.632668,16.725743,-5.427206,-0.929045,-0.443308,-0.842563,6,WALK
1759223402.07979,-0.687734,10.106075,-6.459706,-0.082718,-1.253758,-1.173132,6,WALK
1759223402.10078,2.059612,4.909759,-6.638373,0.506605,0.01363,-0.618073,6,WALK
1759223402.12076,11.491569,9.499294,6.403143,-1.233222,0.077176,1.435127,6,WALK
1759223402.14075,9.312098,19.903747,-14.087632,1.342075,-2.655567,1.797618,6,WALK
1759223402.16075,6.724415,14.908544,6.848763,-0.027167,-0.796443,-0.383707,6,WALK
1759223402.18015,2.446874,3.721338,10.43019,-1.467301,-0.060538,-1.178911,6,WALK
1759223402.20056,1.109264,2.016816,6.614132,-2.602061,-0.068345,-1.105338,6,WALK
1759223402.22076,3.747075,4.770596,5.796661,-3.791717,-0.181959,0.021712,6,WALK
1759223402.24075,4.288165,9.751583,0.745794,-3.162966,-1.850739,0.949533,6,WALK
1759223402.26076,3.955371,13.230658,1.13126,-2.268815,-2.927584,1.232167,6,WALK
1759223402.28060,4.374057,13.506739,3.466355,-2.300099,-1.722514,0.878876,6,WALK
1759223402.30058,1.848473,10.880898,-0.650774,-1.728813,-0.804775,-0.086965,6,WALK
1759223402.32076,3.450494,8.406641,-0.764648,-1.422361,0.217576,-0.15935,6,WALK
1759223402.33988,3.60043,8.101679,-0.082899,-1.454207,0.643386,0.004108,6,WALK
1759223402.36080,2.137872,8.895956,1.205331,-1.614223,0.299019,0.418112,6,WALK
1759223402.38077,1.414225,9.400085,1.268029,-1.604794,-0.10386,0.435514,6,WALK
1759223402.40077,0.546776,9.029283,0.696264,-1.500315,-0.743468,0.413958,6,WALK
1759223402.42079,0.008529,8.234108,-0.0205,-1.345877,-0.972417,0.438849,6,WALK
1759223402.44075,-0.159214,8.717438,0.258574,-1.308269,-0.605708,0.483239,6,WALK
1759223402.46085,-0.096367,9.322722,0.746243,-1.254141,0.085422,0.49014,6,WALK
1759223402.48095,-0.082301,8.559271,0.176423,-1.1002,0.221097,0.470114,6,WALK
1759223402.50035,0.914136,8.656086,-0.958429,-1.02555,0.216094,0.425328,6,WALK
1759223402.52083,3.122937,9.623643,-1.247529,-1.244105,0.526407,0.351062,6,WALK
1759223402.54081,3.994725,9.114875,-1.559074,-1.491304,0.279041,0.483668,6,WALK
1759223402.56081,2.316989,9.409063,-1.492635,-1.320329,-0.389681,0.602052,6,WALK
1759223402.58012,1.076343,10.93821,-1.48665,-0.987652,-0.906974,0.645516,6,WALK
1759223402.60088,-0.029628,11.931953,-1.999757,-0.802681,-0.948685,0.530151,6,WALK
1759223402.62079,-0.69776,11.695376,-1.995866,-0.426747,-0.697685,0.315323,6,WALK
1759223402.64093,-0.158317,11.510424,-2.396596,-0.3031,-0.513725,0.081674,6,WALK
1759223402.66087,0.954688,11.421988,-3.57993,-0.069334,-0.664682,-0.096238,6,WALK
1759223402.68095,0.495151,15.580417,-2.289755,0.802555,-0.706479,-0.287021,6,WALK
1759223402.70082,-1.407192,15.911864,-2.314744,1.696623,-0.326326,-0.633128,6,WALK
1759223402.72083,-1.443554,13.746309,-3.824288,2.768102,0.281985,-1.286306,6,WALK
1759223402.74080,2.73762,12.392986,-0.767042,3.074183,0.444299,-1.525488,6,WALK
1759223402.76092,5.342511,14.711471,0.619799,3.057203,-0.072425,-1.502365,6,WALK
1759223402.78080,6.558018,15.457714,3.533692,2.723535,0.327788,-1.324395,6,WALK
1759223402.80052,7.710227,15.408334,4.022857,2.29485,0.677481,-0.841282,6,WALK
1759223402.82079,9.61661,15.109058,4.034828,1.829922,0.367462,0.008016,6,WALK
1759223402.84094,9.740959,12.840403,3.28694,1.677783,-0.193685,0.476513,6,WALK
1759223402.86090,6.068403,9.801413,-4.760421,3.492201,-0.473571,-0.266714,6,WALK
1759223402.88085,4.004901,10.612598,0.621744,4.13265,0.015645,-0.781308,6,WALK
1759223402.89998,1.587356,9.717616,3.055151,3.746491,0.527809,-1.026389,6,WALK
1759223402.92008,-0.395791,7.683891,2.496703,3.141595,0.466786,-1.199948,6,WALK
1759223402.94077,1.538275,5.06224,1.073201,2.71296,1.10811,-0.889878,6,WALK
1759223402.96077,2.25878,3.558831,1.080383,2.416399,1.591873,-0.647428,6,WALK
1759223402.98078,2.095375,2.128146,1.939453,1.955654,1.505718,-0.543731,6,WALK
1759223403.00026,2.706495,1.853411,2.097021,1.424106,1.096671,-0.39343,6,WALK
1759223403.02077,3.301903,1.52361,2.215834,0.654838,0.800502,-0.273968,6,WALK
1759223403.04077,4.28622,1.465551,2.147,-0.399562,0.683891,0.022448,6,WALK
1759223403.06077,3.752612,1.111508,1.44101,-1.50314,0.547773,0.343073,6,WALK
1759223403.08077,2.611326,2.067842,0.172682,-2.23592,1.213434,0.55962,6,WALK
1759223403.10068,2.341679,4.580706,-1.93646,-2.65916,1.735039,0.817206,6,WALK
1759223403.12077,3.020585,10.039037,-12.19726,-1.443118,1.481237,0.825534,6,WALK
1759223403.16081,6.443096,22.637027,-8.623615,0.573922,1.508046,0.097581,6,WALK
1759223403.18077,0.947954,12.98196,-5.66109,-0.702046,-2.738947,-1.365628,6,WALK
1759223403.20086,4.680365,4.009989,-8.129811,-0.036232,-2.014767,-1.512027,6,WALK
1759223403.22001,11.564144,3.719991,-2.62195,-0.615523,0.537925,0.034548,6,WALK
1759223403.24076,10.267384,13.946973,-4.813692,0.445773,-2.076209,1.572927,6,WALK
1759223403.26077,1.927482,13.113192,7.417536,0.13,-2.270479,0.892949,6,WALK
1759223403.28077,1.627159,5.241955,9.330952,-1.209239,0.34266,0.429029,6,WALK
1759223403.30075,-0.957381,2.195333,6.271761,-2.289126,0.458139,-0.111837,6,WALK
1759223403.32037,1.125275,5.67755,4.124761,-3.114851,-1.311119,0.183476,6,WALK
1759223403.34037,4.563797,15.502156,1.373673,-3.317847,-2.654066,0.946682,6,WALK
1759223403.36024,3.100342,16.196774,-1.415272,-2.420382,-1.936576,0.60779,6,WALK
1759223403.37990,3.780594,12.597691,-0.013318,-1.907708,-0.756486,0.207127,6,WALK
1759223403.40082,3.962254,8.764125,1.555184,-2.095172,-0.389914,0.29704,6,WALK
1759223403.42078,2.941576,7.201759,0.706738,-2.197062,0.060114,0.157586,6,WALK
1759223403.44078,3.144185,7.219715,0.071826,-2.125572,0.561081,0.056495,6,WALK
1759223403.46077,3.609409,8.194604,0.358681,-1.993869,0.603432,0.124877,6,WALK
1759223403.48077,2.397344,8.781483,0.139612,-1.721324,0.168651,0.139598,6,WALK
1759223403.50087,1.121534,8.681674,-0.48707,-1.465645,-0.299255,0.119589,6,WALK
1759223403.52083,0.357335,8.201338,-1.05285,-1.541689,-0.338082,0.23092,6,WALK
1759223403.54033,0.252439,8.919898,-0.542885,-1.906067,-0.141549,0.416946,6,WALK
1759223403.56077,-0.168193,10.177751,0.021099,-1.917426,-0.04801,0.366384,6,WALK
1759223403.58081,-0.135572,9.924116,-0.135123,-1.383424,-0.070068,0.145804,6,WALK
1759223403.60096,0.913538,8.632743,-0.579995,-0.848942,-0.075309,0.255006,6,WALK
1759223403.62084,1.956362,8.249371,-0.670227,-0.854858,0.460022,0.406495,6,WALK
1759223403.64075,3.795707,9.089437,-1.385943,-1.509031,1.267696,0.396926,6,WALK
1759223403.66077,2.532616,9.068787,-3.335572,-1.605552,0.328892,0.446289,6,WALK
1759223403.68056,0.713622,9.943119,-2.877381,-0.864301,-1.409971,0.405474,6,WALK
1759223403.70077,1.516727,11.746702,-0.538097,-0.568225,-1.507728,0.253049,6,WALK
1759223403.71992,2.077868,12.316522,-0.448165,-0.546177,-0.657846,0.291984,6,WALK
1759223403.74056,2.065149,13.213449,-1.650952,-0.408827,-0.119428,0.522197,6,WALK
1759223403.76042,-0.301071,13.207464,-5.216367,0.164501,-0.862331,0.460251,6,WALK
1759223403.78010,-1.815852,17.371579,-2.486528,0.954299,-1.108201,-0.070883,6,WALK
1759223403.80077,-1.976264,17.020829,-0.330549,1.760457,-0.061622,-0.614103,6,WALK
1759223403.82046,-0.323217,12.769325,-2.93589,2.709605,0.707069,-1.063021,6,WALK
1759223403.84075,3.171569,10.418668,-1.657236,3.143576,0.436109,-1.282629,6,WALK
1759223403.86080,4.959888,12.043732,1.190218,3.096813,-0.520644,-1.221449,6,WALK
1759223403.88053,5.457882,12.80449,2.389413,2.915884,-0.801716,-1.163932,6,WALK
1759223403.90089,6.702867,14.219014,4.540603,2.288881,-0.960757,-1.311692,6,WALK
1759223403.92073,8.073248,14.800506,3.583222,2.026387,-0.605237,-1.168599,6,WALK
1759223403.94084,11.948862,16.11582,3.501969,1.747759,-0.606842,-0.275291,6,WALK
1759223403.96079,10.884639,11.804312,-1.068861,2.379778,0.521328,-0.05616,6,WALK
1759223403.98082,6.204424,9.83957,-2.0439,3.443152,1.397066,-0.496433,6,WALK
1759223404.00004,3.672855,10.070012,0.454449,3.869873,0.92862,-0.596302,6,WALK
1759223404.02078,0.051026,8.814553,1.595885,3.616209,0.495503,-1.022284,6,WALK
1759223404.03994,0.6605,7.166294,2.229151,3.061338,0.956317,-1.14268,6,WALK
1759223404.06077,1.737143,5.360169,1.650802,2.60762,1.470067,-0.894884,6,WALK
1759223404.08078,2.401384,3.656844,1.548151,2.237159,1.39129,-0.526766,6,WALK
1759223404.10080,2.767398,2.825457,1.653047,1.791069,1.245834,-0.250916,6,WALK
1759223404.12079,3.167828,2.238878,1.589451,1.204288,0.866207,-0.126709,6,WALK
1759223404.14080,3.341857,1.801936,1.9405,0.414096,0.472433,-0.082043,6,WALK
1759223404.16079,3.634997,1.732205,2.115726,-0.470087,0.52775,0.054219,6,WALK
1759223404.18072,3.234118,1.588254,1.559523,-1.422609,0.740434,0.229658,6,WALK
1759223404.20086,3.000833,2.447323,0.266804,-2.207765,1.014219,0.35273,6,WALK
1759223404.22083,3.192069,4.712088,-2.408268,-2.532675,1.323037,0.411278,6,WALK
1759223404.24073,2.381632,9.843012,-12.923152,-1.399554,1.281514,-0.018549,6,WALK
1759223404.28078,5.387103,21.891682,-11.158775,-0.01052,1.244197,0.091173,6,WALK
1759223404.30080,-3.063531,13.395259,-5.990293,-0.531239,-1.832117,-1.132191,6,WALK
1759223404.32078,0.319177,4.175338,-6.175394,0.669882,-0.812758,-1.363159,6,WALK
1759223404.34082,4.817732,0.831686,-1.661576,0.021729,0.767523,-0.316068,6,WALK
1759223404.36075,11.877335,8.867674,11.354352,-1.754247,-1.218288,2.25471,6,WALK
1759223404.40080,1.965191,8.333019,20.205865,-0.873405,-0.081802,-0.410766,6,WALK
1759223404.42078,0.609773,2.476353,6.886023,-1.757803,0.093712,-1.199638,6,WALK
1759223404.44077,1.025766,3.121889,6.014235,-3.073698,-0.572751,-0.948253,6,WALK
1759223404.46077,3.784335,8.027459,3.818452,-3.846179,-1.853436,0.132193,6,WALK
1759223404.48078,2.749591,14.114866,-3.42296,-2.609399,-3.234911,0.687145,6,WALK
1759223404.50082,6.04072,14.616302,3.47279,-2.540856,-1.811016,1.099907,6,WALK
1759223404.52078,3.393033,12.019491,0.547374,-2.092374,-0.897831,0.444504,6,WALK
1759223404.53984,3.281104,8.572289,-0.901417,-1.627145,-0.430985,-0.012743,6,WALK
1759223404.56080,3.420267,7.652317,0.105644,-1.697579,0.256965,0.039311,6,WALK
1759223404.58084,2.421436,8.021922,0.159813,-1.929965,0.358177,0.186524,6,WALK
1759223404.60078,1.56925,9.737667,0.927454,-2.066059,-0.063432,0.242392,6,WALK
1759223404.62075,0.763451,9.557803,0.943615,-1.956142,-0.506479,0.197225,6,WALK
1759223404.64030,0.216376,8.611345,-0.223559,-1.582384,-0.814117,0.256471,6,WALK
1759223404.66077,0.195576,8.102128,-0.068684,-1.49367,-0.625888,0.487866,6,WALK
1759223404.68077,0.077213,8.601768,1.191564,-1.622234,-0.13578,0.606733,6,WALK
1759223404.70085,0.191686,8.755895,1.364994,-1.340655,0.310083,0.464458,6,WALK
1759223404.72076,0.822109,7.979425,0.847847,-1.01384,0.416236,0.406983,6,WALK
1759223404.74065,2.472612,8.132953,0.039804,-1.073061,0.739852,0.513873,6,WALK
1759223404.76077,4.554819,9.909601,-1.060033,-1.831654,1.283999,0.525147,6,WALK
1759223404.78046,2.651728,9.863961,-2.23379,-2.074823,0.218997,0.530772,6,WALK
1759223404.80084,0.166996,10.465355,-4.021511,-1.221797,-1.332927,0.439182,6,WALK
1759223404.82080,0.517596,11.965172,-3.804237,-0.526173,-1.56665,0.427725,6,WALK
1759223404.84076,-0.21458,12.89098,-2.433856,-0.173037,-0.792622,0.424321,6,WALK
1759223404.86080,-0.935085,13.048698,-1.697639,0.193918,-0.065989,0.328429,6,WALK
1759223404.88077,-0.38831,12.29662,-1.796998,0.310485,0.227197,0.100265,6,WALK
1759223404.90078,-0.695815,14.759655,-0.40058,0.557944,0.148698,-0.129843,6,WALK
1759223404.92076,-1.806425,15.956606,0.657208,1.162484,0.409883,-0.554832,6,WALK
1759223404.94076,-1.043573,15.107412,-1.142034,2.044481,0.829464,-1.214727,6,WALK
1759223404.96015,2.983175,12.27986,-2.117222,2.793802,1.018412,-1.405301,6,WALK
1759223404.98077,4.598214,12.649465,-0.797568,3.263478,1.084759,-1.16974,6,WALK
1759223405.00076,7.35409,14.240412,1.18079,3.419008,0.891089,-0.576007,6,WALK
1759223405.02047,8.624214,14.84001,4.85993,2.797737,0.497335,0.115784,6,WALK
1759223405.04076,8.75365,14.27019,4.327071,2.358974,0.025884,0.242573,6,WALK
1759223405.06076,9.380632,13.177387,4.661361,2.029279,-0.974546,0.002614,6,WALK
1759223405.08063,9.200318,10.109666,5.535095,1.606408,-0.887671,-0.325154,6,WALK
1759223405.10082,4.573673,8.131008,-2.20072,3.311096,-0.214238,-0.883277,6,WALK
1759223405.12084,1.92823,9.983222,0.399083,4.474597,0.177755,-1.22396,6,WALK
1759223405.14081,1.029656,10.145579,2.379388,4.380841,0.004206,-1.126695,6,WALK
1759223405.16054,-0.002095,8.574983,1.291373,3.794361,0.611969,-0.916155,6,WALK
1759223405.18078,2.169895,6.01184,0.981473,2.692862,1.384094,-0.371482,6,WALK
1759223405.20087,2.72505,4.689194,1.356764,1.736178,1.431581,-0.126438,6,WALK
1759223405.22013,3.002179,4.016273,1.840243,1.273592,1.002106,-0.175434,6,WALK
1759223405.24076,3.669862,2.914791,2.287809,0.891575,0.476554,-0.214772,6,WALK
1759223405.26077,3.91871,1.518373,2.579004,0.143525,0.355502,-0.086443,6,WALK
1759223405.28078,3.466654,0.562188,2.538153,-0.906997,0.43618,0.102252,6,WALK
1759223405.30079,2.890699,0.602142,1.940351,-1.825626,0.514476,0.316734,6,WALK
1759223405.31998,2.131887,1.662324,1.106869,-2.507366,0.93701,0.41135,6,WALK
1759223405.34077,1.821838,3.930232,-1.013495,-2.94546,1.190206,0.530286,6,WALK
1759223405.35988,1.247379,5.959467,-5.133617,-2.720657,1.321524,0.503353,6,WALK
1759223405.40079,3.512443,26.936415,-7.686136,0.593603,1.827165,0.733235,6,WALK
1759223405.42077,-2.271798,14.781352,-3.514688,-0.225891,-1.726965,-1.020404,6,WALK
1759223405.44076,1.811214,4.585046,-6.02007,0.563048,-1.216443,-1.656134,6,WALK
1759223405.46027,1.879299,-0.315286,-4.70715,0.455223,-0.121426,-1.695378,6,WALK
1759223405.48086,10.924593,1.290026,4.573524,-1.209397,-0.0321,-0.274415,6,WALK
1759223405.50088,14.411448,9.016713,6.533327,-1.960215,-0.785916,2.079448,6,WALK
1759223405.52081,6.068254,19.011308,-26.060137,2.110358,-0.266154,0.987444,6,WALK
1759223405.54077,0.914286,10.904092,14.049026,-1.685174,-0.804416,-0.131197,6,WALK
1759223405.56071,1.004667,3.333926,7.643339,-2.874037,-0.664721,-0.7507,6,WALK
1759223405.58081,2.987515,4.340987,5.405808,-3.550787,0.102567,-0.408866,6,WALK
1759223405.60080,4.667646,7.299771,5.472696,-4.051765,0.369855,0.378184,6,WALK
1759223405.62078,3.176208,11.36348,0.265607,-2.625693,-1.831241,0.370832,6,WALK
1759223405.64076,3.964648,13.064111,3.039289,-1.912692,-2.511183,0.322694,6,WALK
1759223405.66078,3.727473,11.893795,2.68375,-1.853438,-2.112255,0.269385,6,WALK
1759223405.68070,2.592023,9.219771,-1.035791,-1.211811,-2.020887,0.118011,6,WALK
1759223405.70078,2.90297,8.36968,-1.277755,-0.926615,-1.013034,0.197245,6,WALK
1759223405.72079,1.78787,9.047538,-0.399682,-1.24833,0.506976,0.342865,6,WALK
1759223405.74079,1.515081,9.85199,1.067365,-1.568069,1.023913,0.440736,6,WALK
1759223405.76079,1.113453,9.024494,0.262015,-1.318824,0.77696,0.351538,6,WALK
1759223405.78034,0.621146,8.428937,-0.206949,-0.914916,0.207585,0.278867,6,WALK
1759223405.80091,0.260818,8.806472,1.217751,-0.775899,-0.102688,0.185681,6,WALK
1759223405.82079,0.630274,9.197775,2.226308,-1.007973,-0.147934,0.128479,6,WALK
1759223405.84076,1.504606,9.011775,1.493533,-1.204295,0.165886,0.192389,6,WALK
1759223405.86078,2.515857,8.749011,0.602441,-1.418769,0.648678,0.181159,6,WALK
1759223405.88079,3.967043,9.193884,-0.444573,-1.682782,1.067723,0.267885,6,WALK
1759223405.90079,4.833295,9.563639,-1.635389,-1.60365,0.650904,0.377374,6,WALK
1759223405.92086,3.112313,9.841964,-2.050783,-1.169527,-0.609154,0.335909,6,WALK
1759223405.94078,1.299902,10.138995,-2.511518,-1.147866,-1.42051,0.28952,6,WALK
1759223405.96081,-0.205752,11.108348,-2.358438,-1.12963,-1.517321,0.250088,6,WALK
1759223405.98085,-0.411803,10.522666,-0.864606,-0.515868,-0.944406,0.103473,6,WALK
1759223406.00085,0.389058,10.844985,0.165948,0.031476,-0.020682,0.053954,6,WALK
1759223406.02072,1.399561,10.917111,-0.155174,0.107808,0.716311,0.075558,6,WALK
1759223406.04077,1.930026,12.986898,-0.143203,0.138209,0.828041,-0.002254,6,WALK
1759223406.06079,1.063175,15.338004,0.452953,0.491684,0.324709,-0.337763,6,WALK
1759223406.08079,1.452532,14.959271,-1.035343,1.097781,-0.325167,-0.691881,6,WALK
1759223406.10081,2.967912,13.779379,-2.934992,1.968287,-0.475416,-0.836584,6,WALK
1759223406.12079,3.860949,11.7678,-2.469469,2.658652,-0.646402,-0.845087,6,WALK
1759223406.14078,4.82267,11.561899,-0.565181,3.105194,-0.495644,-0.831177,6,WALK
1759223406.16079,7.275081,12.103288,0.101754,3.373297,-0.457011,-0.517324,6,WALK
1759223406.17985,7.699453,11.826458,3.754856,2.830233,-0.777805,-0.22481,6,WALK
1759223406.20081,8.159739,11.942876,4.821024,2.000191,-1.31755,0.097602,6,WALK
1759223406.22079,9.624691,12.385953,4.350863,1.334548,-1.844258,0.468636,6,WALK
1759223406.24077,7.733571,10.154557,4.029741,0.871476,-1.048543,0.093173,6,WALK
1759223406.26079,2.298583,9.824008,-5.444415,2.689545,-0.234989,-0.743007,6,WALK
1759223406.28026,2.274791,9.845556,-1.210269,3.83377,-0.036368,-0.931607,6,WALK
1759223406.30082,0.196773,9.094225,1.429638,3.651652,-0.227934,-0.977139,6,WALK
1759223406.32079,-0.204854,7.3291,0.905457,2.894405,0.062641,-0.780072,6,WALK
1759223406.34078,2.601001,5.931784,0.466121,2.02381,0.72537,-0.36566,6,WALK
1759223406.36069,2.872892,5.091868,0.836025,1.548989,0.899765,-0.342683,6,WALK
1759223406.38066,3.150919,4.122516,1.271171,1.266984,0.486698,-0.396992,6,WALK
1759223406.40081,3.644873,2.841917,1.521665,0.823169,0.073285,-0.323258,6,WALK
1759223406.42088,3.649212,1.708562,1.387739,-0.03747,-0.055818,-0.13919,6,WALK
1759223406.44078,3.057396,1.420659,0.614412,-0.990635,0.086283,0.056045,6,WALK
1759223406.46079,2.734178,2.035969,-0.17328,-1.702153,0.354743,0.304157,6,WALK
1759223406.48085,1.940052,1.995417,-1.182137,-2.155731,0.633962,0.42661,6,WALK
1759223406.50080,0.741305,3.525312,-3.809923,-2.311546,1.023116,0.395084,6,WALK
1759223406.52089,-0.707936,8.182334,-11.126603,-1.3888,1.086659,0.481273,6,WALK
1759223406.58015,2.151489,18.202966,-4.331111,0.735517,-0.463344,-0.668787,6,WALK
1759223406.60082,2.694524,2.075174,-6.048651,0.270555,-0.074476,-2.1775,6,WALK
1759223406.62079,4.64924,-4.743662,-0.976535,0.039593,-0.522782,-1.827435,6,WALK
1759223406.64086,14.141053,4.281581,9.05502,-1.288558,0.20955,0.972346,6,WALK
1759223406.66084,12.110321,13.276896,-4.558859,0.610475,0.4524,1.612734,6,WALK
1759223406.68013,-2.305915,22.30154,-10.148273,0.503335,-0.99029,-0.300105,6,WALK
1759223406.70080,1.57718,6.146514,10.242844,-1.926337,-1.284168,-0.636461,6,WALK
1759223406.72093,1.644667,1.034744,6.049998,-2.395038,-0.890999,-0.88655,6,WALK
1759223406.74080,5.940314,4.030788,4.59971,-2.818559,0.057469,-0.012986,6,WALK
1759223406.76081,7.782502,7.340772,4.649839,-3.205731,-0.010545,0.939778,6,WALK
1759223406.78080,6.383241,9.94716,2.554164,-2.649194,-0.63478,0.944999,6,WALK
1759223406.80079,2.867805,12.262353,-2.84102,-1.293967,-1.761587,0.156141,6,WALK
1759223406.82084,4.341885,11.745504,1.931073,-1.585718,-1.410277,0.148225,6,WALK
1759223406.84087,2.524686,9.602993,-1.386542,-1.690232,-0.761509,0.266248,6,WALK
1759223406.86089,2.303222,9.375245,-0.567725,-2.013015,0.039685,0.455394,6,WALK
1759223406.88098,3.116652,10.713304,1.208773,-2.232572,0.650412,0.597953,6,WALK
1759223406.90081,1.926734,9.814132,1.048511,-1.842829,0.774881,0.340249,6,WALK
1759223406.92089,0.860117,8.409334,0.403872,-1.140439,0.28597,0.055079,6,WALK
1759223406.94078,0.377985,7.982418,0.861164,-0.809641,-0.449141,0.046647,6,WALK
1759223406.96087,-0.04953,8.924087,-0.492308,-0.784246,-0.727884,0.386978,6,WALK
1759223406.98086,-0.07033,9.800964,-1.104774,-1.222694,-0.242122,0.66971,6,WALK
1759223406.99995,1.035343,10.792014,-0.663343,-1.302791,-0.052939,0.541151,6,WALK
1759223407.02086,1.528099,9.346963,0.043545,-1.042047,-0.069278,0.189676,6,WALK
1759223407.04078,2.632874,8.440608,0.245555,-0.895452,-0.22764,0.278563,6,WALK
1759223407.06080,3.456479,8.144775,-0.059406,-0.997876,0.05966,0.499358,6,WALK
1759223407.08079,3.860949,9.1252,0.246303,-1.276915,0.606195,0.589959,6,WALK
1759223407.10034,2.110339,9.289502,0.225504,-1.45531,0.380019,0.696585,6,WALK
1759223407.12086,-0.192135,10.685172,-1.583016,-1.384826,-0.244333,0.650355,6,WALK
1759223407.14085,0.265008,11.427225,-3.615394,-1.132907,-0.670704,0.384093,6,WALK
1759223407.16085,0.811784,11.013178,-2.484732,-0.438061,-0.638324,0.203387,6,WALK
1759223407.18081,1.021726,11.814487,-0.678906,0.088,-0.22609,0.136825,6,WALK
1759223407.20064,2.006341,11.081862,-2.659958,0.036717,-0.225544,0.138222,6,WALK
1759223407.22078,1.365144,13.904476,-2.023549,0.197268,-0.8023,-0.062753,6,WALK
1759223407.24080,-0.339378,15.944934,0.151583,0.801379,-0.729558,-0.476299,6,WALK
1759223407.26080,0.476296,13.273753,-2.174683,1.528042,-0.114744,-0.714786,6,WALK
1759223407.28081,1.789067,11.79264,-4.374356,2.572655,0.252018,-0.954272,6,WALK
1759223407.30080,2.298583,11.599907,-0.554108,2.844254,0.009385,-1.091446,6,WALK
1759223407.31999,4.187309,11.674277,1.279402,2.951018,-0.708434,-1.108098,6,WALK
1759223407.34079,5.754913,12.947693,3.112462,2.770524,-0.823967,-1.042318,6,WALK
1759223407.36080,6.885275,13.797036,4.3769,2.198347,-0.530011,-0.950373,6,WALK
1759223407.38080,8.592939,14.376882,3.552995,1.680875,-0.28053,-0.628692,6,WALK
1759223407.40081,9.917382,13.476363,2.111686,1.496017,0.015708,-0.28002,6,WALK
1759223407.42041,8.320599,9.911097,-1.510442,2.188839,-0.287762,-0.35024,6,WALK
1759223407.44079,5.252878,8.283489,-0.746093,2.667366,-0.718546,-0.726115,6,WALK
1759223407.46080,1.598878,8.195801,0.956633,2.645005,0.109895,-1.2362,6,WALK
1759223407.48080,0.205602,8.736741,0.77213,2.65952,1.084412,-1.433105,6,WALK
1759223407.50080,0.499191,8.397363,0.978181,2.627246,1.518046,-1.148178,6,WALK
1759223407.52081,1.426495,6.909516,1.120486,2.369186,1.573202,-0.557,6,WALK
1759223407.54079,2.270302,5.42586,1.055993,1.98209,1.456459,-0.181653,6,WALK
1759223407.56080,2.776975,4.042909,1.151012,1.63624,1.288795,-0.157587,6,WALK
1759223407.58080,3.204789,2.181866,1.404798,1.097215,1.017203,-0.268777,6,WALK
1759223407.60088,4.478354,1.276558,1.724424,0.155362,0.826776,-0.177094,6,WALK
1759223407.62064,4.718074,1.524209,0.922965,-0.861255,0.781726,0.063498,6,WALK
1759223407.64078,4.062511,2.009783,0.089184,-1.563266,0.637325,0.241712,6,WALK
1759223407.66089,2.920028,3.320159,-0.934487,-1.874934,0.757185,0.337401,6,WALK
1759223407.68087,1.946785,5.471798,-2.817526,-1.783237,0.678767,0.323332,6,WALK
1759223407.70080,1.406593,9.639954,-9.425673,-0.850584,0.658104,0.286074,6,WALK
1759223407.72086,1.875707,17.968184,-20.78182,1.012275,1.523758,0.2658,6,WALK
1759223407.74080,0.259472,23.356634,-18.024897,1.133607,1.700391,-0.087261,6,WALK
1759223407.76087,-0.114772,16.110433,-5.403863,-0.190609,-0.427217,-0.806361,6,WALK
1759223407.78080,2.672677,8.00651,-5.308394,0.157585,-0.557234,-1.110659,6,WALK
1759223407.80086,3.036895,2.414403,-5.434538,0.627599,0.903675,-1.174311,6,WALK
1759223407.81984,12.68478,6.548441,3.510498,-1.089266,0.439885,0.576588,6,WALK
1759223407.84079,13.336751,13.639767,3.506308,-0.812472,-0.9411,2.251875,6,WALK
1759223407.86080,2.897882,18.458696,-11.879879,1.430176,-2.216612,-0.073805,6,WALK
1759223407.88087,4.797232,5.472846,11.233445,-1.636122,-1.122349,-0.523872,6,WALK
1759223407.90079,2.665046,1.582717,6.596624,-2.462431,-0.679833,-0.386151,6,WALK
1759223407.92025,3.138649,2.909254,5.564574,-3.169789,0.016058,0.178126,6,WALK
1759223407.94049,5.728127,7.215675,5.155015,-3.660807,0.39044,1.074011,6,WALK
1759223407.96081,5.664232,10.850672,5.742493,-3.479536,-0.463062,1.12468,6,WALK
1759223407.98081,1.780987,14.021492,-3.562123,-1.396099,-2.765326,0.030634,6,WALK
1759223408.00013,3.98036,12.535292,2.41949,-1.366701,-2.610632,-0.193964,6,WALK
1759223408.02065,2.9935,9.406669,-0.537947,-1.358326,-1.644832,0.066882,6,WALK
1759223408.04082,1.718738,7.896077,-1.462708,-1.555665,-0.032886,0.328743,6,WALK
1759223408.06080,1.400458,9.59177,1.306636,-2.009902,0.913554,0.456817,6,WALK
1759223408.08081,1.203685,10.168623,1.093701,-1.736686,0.715788,0.376699,6,WALK
1759223408.10080,-0.172532,9.188347,-0.546626,-0.989771,-0.408235,0.232458,6,WALK
1759223408.12080,-0.381576,8.306683,-0.760608,-0.719292,-1.110259,0.36923,6,WALK
1759223408.14080,-0.394445,9.08839,-0.044891,-1.221688,-0.630509,0.643474,6,WALK
1759223408.16080,-0.19004,10.346393,0.514753,-1.34048,0.371566,0.418364,6,WALK
1759223408.18081,0.989404,9.598504,0.765097,-1.083111,0.610237,0.200792,6,WALK
1759223408.20080,2.012626,8.086117,0.333692,-0.948087,0.437559,0.300649,6,WALK
1759223408.22081,2.941875,8.072051,-0.069881,-1.075221,0.413832,0.388916,6,WALK
1759223408.24080,4.170699,9.295488,-0.311545,-1.581432,0.549684,0.442975,6,WALK
1759223408.26081,4.3564,9.573365,-2.143259,-1.779199,0.259669,0.438508,6,WALK
1759223408.28081,0.233435,9.259126,-4.771195,-1.040686,-1.446307,0.447481,6,WALK
1759223408.30081,-0.902315,9.966313,-2.466477,-0.43523,-1.96328,0.38914,6,WALK
1759223408.32087,-0.244059,11.632827,-0.782455,-0.074315,-0.764832,0.222613,6,WALK
1759223408.34084,0.389507,12.406005,0.407463,-0.013634,0.602908,0.162277,6,WALK
1759223408.36101,1.142932,12.178705,-1.236007,-0.037151,0.88206,0.084753,6,WALK
1759223408.38083,0.27653,15.957055,-1.816002,0.534872,-0.151775,-0.129775,6,WALK
1759223408.40080,-0.872836,16.840515,-0.678158,1.083862,-0.400099,-0.559802,6,WALK
1759223408.42080,0.576105,14.48896,-2.777872,1.73118,0.107424,-1.011821,6,WALK
1759223408.44080,3.164686,12.192023,-3.614496,2.588262,0.441978,-1.020969,6,WALK
1759223408.46080,4.099621,12.11915,-0.461782,3.085398,-0.064659,-0.92953,6,WALK
1759223408.48043,4.415357,12.133066,0.40073,3.315073,-0.247166,-0.963127,6,WALK
1759223408.50024,5.535394,12.520328,1.592892,3.4739,-0.173929,-0.971793,6,WALK
1759223408.52080,6.728455,13.158233,4.365378,2.859581,-0.021049,-0.813581,6,WALK
1759223408.54085,8.554632,13.788956,4.289212,2.162883,-0.182493,-0.332178,6,WALK
1759223408.56081,9.66614,13.45257,3.385102,1.709458,-0.578292,0.185025,6,WALK
1759223408.58028,8.607754,9.900174,-0.903512,2.300319,-0.901384,0.059122,6,WALK
1759223408.60081,2.148796,9.219771,-1.791312,3.195624,-0.388898,-0.997654,6,WALK
1759223408.62019,-0.984765,10.858602,-0.261267,3.469583,0.53979,-1.702886,6,WALK
1759223408.63985,-1.229572,10.300454,0.819416,3.148185,1.325676,-1.685818,6,WALK
1759223408.66092,0.693421,7.749133,0.646434,2.783377,1.984716,-1.027355,6,WALK
1759223408.68081,2.331952,5.898116,1.426495,2.492594,2.214297,-0.522991,6,WALK
1759223408.70081,2.625841,4.38932,1.82917,2.272823,2.056136,-0.426612,6,WALK
1759223408.72083,3.443012,3.448698,2.005742,1.83834,1.609583,-0.417412,6,WALK
1759223408.74023,3.907337,2.20506,1.881843,1.053247,1.285059,-0.443899,6,WALK
1759223408.75990,4.646248,1.615787,1.681627,-0.017467,0.989985,-0.325326,6,WALK
1759223408.78081,4.946121,1.706617,1.325041,-0.994715,0.611148,-0.096833,6,WALK
1759223408.80092,4.629638,2.287959,0.842909,-1.677877,0.53512,0.067935,6,WALK
1759223408.82029,3.689764,2.702754,-0.168791,-2.217751,0.425177,0.158521,6,WALK
1759223408.84071,2.648586,3.746028,-2.73358,-2.509216,0.605176,0.160066,6,WALK
1759223408.86099,2.553266,7.788937,-11.20217,-1.75978,1.328444,0.27305,6,WALK
1759223408.88084,4.48853,19.597438,-28.86255,1.431132,1.499589,0.495573,6,WALK
1759223408.90102,5.469254,25.924416,-14.116363,0.438799,1.8188,0.501922,6,WALK
1759223408.92087,-0.740557,14.898967,-4.174141,-0.824126,-1.617058,-1.074186,6,WALK
1759223408.94087,4.097227,7.325359,-6.424541,-0.019548,-1.925894,-1.315353,6,WALK
1759223408.96101,12.816012,9.280075,-0.498742,-0.29619,-0.118412,0.288671,6,WALK
1759223408.97996,10.122086,11.10745,-0.108038,0.208649,-0.711417,1.02167,6,WALK
1759223409.00083,-0.476296,12.784738,-3.552696,1.096479,-2.549638,-0.370605,6,WALK
1759223409.02080,2.399439,2.995146,9.538051,-1.24869,-0.139812,-0.089133,6,WALK
1759223409.04079,-0.170587,0.695067,7.694515,-2.665425,0.190622,-0.438646,6,WALK
1759223409.06044,4.559458,5.311836,6.634183,-3.7949,0.386244,0.375344,6,WALK
1759223409.08081,7.14744,10.065523,6.454917,-4.444917,-0.407887,1.34142,6,WALK
1759223409.10083,2.812888,13.970915,-4.747403,-1.764599,-3.093101,0.616623,6,WALK
1759223409.12083,4.817732,13.20507,2.35754,-1.270066,-2.514419,0.270938,6,WALK
1759223409.14081,3.756053,9.861268,1.297807,-1.495346,-1.556968,0.281075,6,WALK
1759223409.16084,2.261772,7.222109,-2.265364,-1.439431,-0.4048,0.196651,6,WALK
1759223409.18082,2.851045,8.458714,-0.379331,-1.881907,0.586203,0.29799,6,WALK
1759223409.20083,2.931401,10.528651,1.790264,-2.276525,0.382869,0.306476,6,WALK
1759223409.22081,1.87047,9.91394,1.218649,-2.02293,-0.317673,0.052082,6,WALK
1759223409.24080,1.017985,8.72881,-0.254384,-1.248846,-1.190416,-0.08359,6,WALK
1759223409.26086,0.527622,8.368333,0.074669,-0.792143,-1.579763,0.044464,6,WALK
1759223409.28081,0.13632,9.43914,0.02469,-0.890104,-1.249223,0.415839,6,WALK
1759223409.30092,-0.059406,10.489746,0.242712,-1.205562,-0.203482,0.822783,6,WALK
1759223409.32083,-0.352247,9.267955,0.411054,-1.081946,0.487027,0.535706,6,WALK
1759223409.34094,1.303792,8.402151,0.278326,-0.950282,0.458824,0.352912,6,WALK
1759223409.36081,3.239953,8.765621,0.05387,-1.049156,0.486414,0.447332,6,WALK
1759223409.38002,3.841347,9.221717,-0.205752,-1.312351,0.704402,0.516216,6,WALK
1759223409.40080,3.191321,9.176825,-0.603339,-1.4073,0.636426,0.572105,6,WALK
1759223409.42080,0.774674,10.256161,-1.900248,-1.37164,-0.115797,0.601226,6,WALK
1759223409.44079,-1.347786,10.52087,-2.906561,-1.182767,-1.009766,0.406504,6,WALK
1759223409.45987,-0.68564,10.59524,-2.029684,-0.599353,-0.83512,-0.004866,6,WALK
1759223409.48082,1.115399,11.291654,-0.642843,-0.065836,0.018132,-0.123133,6,WALK
1759223409.50083,2.135778,11.471518,-0.868796,-0.022135,0.423452,-0.09747,6,WALK
1759223409.52081,1.364096,12.09401,-0.852934,-0.057721,0.082716,-0.03013,6,WALK
1759223409.54083,-0.15682,14.837466,0.147393,0.30169,-0.08836,-0.194399,6,WALK
1759223409.56024,-0.390853,15.598523,-0.735469,0.734803,0.166436,-0.577663,6,WALK
1759223409.58037,1.514931,14.28261,-2.669086,1.298714,0.308765,-0.980224,6,WALK
1759223409.60083,4.010886,12.303952,-4.561852,2.283613,-0.126498,-0.885853,6,WALK
1759223409.62012,3.696947,11.533917,-1.283741,2.943934,-0.259492,-0.945574,6,WALK
1759223409.63999,4.192995,11.624897,1.316961,3.225227,0.228533,-0.967892,6,WALK
1759223409.66068,6.076035,11.902923,2.325967,3.062404,0.432039,-0.674747,6,WALK
1759223409.68082,7.322666,12.368296,4.258088,2.494796,0.429237,-0.243578,6,WALK
1759223409.70084,8.477569,13.051691,3.977068,1.905714,0.141023,0.222522,6,WALK
1759223409.72082,9.849147,12.690616,3.437924,1.679161,-0.343454,0.582699,6,WALK
1759223409.74082,9.496002,10.069863,1.578228,2.423233,-0.653884,0.511109,6,WALK
1759223409.76081,4.223072,8.799888,-3.186084,4.080735,-0.907234,-0.074724,6,WALK
1759223409.78084,2.255637,8.918252,0.77228,4.141452,-0.3636,-0.249815,6,WALK
1759223409.80090,-0.180762,8.948628,1.145027,3.209519,0.454388,-0.341332,6,WALK
1759223409.82089,0.420332,8.259397,1.203236,2.137025,0.882684,-0.379708,6,WALK
1759223409.84082,2.563891,6.67668,0.877026,1.748654,0.916851,-0.331052,6,WALK
1759223409.86080,3.280056,4.984129,0.955586,1.78142,0.86272,-0.324782,6,WALK
1759223409.88082,3.699939,3.362357,1.178995,1.669112,0.59528,-0.358541,6,WALK
1759223409.90083,3.92275,1.925237,1.28808,1.076533,0.501832,-0.341778,6,WALK
1759223409.92081,3.832518,1.240945,0.936133,0.072552,0.405202,-0.156131,6,WALK
1759223409.94081,3.476381,1.296311,0.288052,-0.960719,0.270534,0.069181,6,WALK
1759223409.96082,2.843264,1.993921,-0.39639,-1.718416,0.364483,0.18133,6,WALK
1759223409.98068,2.39091,2.656067,-1.801038,-2.18547,0.473618,0.222455,6,WALK
1759223410.00082,1.853112,4.338742,-4.757129,-2.326201,0.711111,0.249247,6,WALK
1759223410.02047,1.955614,6.165967,-7.618499,-2.066092,0.896269,0.334971,6,WALK
1759223410.04019,1.788918,13.164368,-19.118149,0.020839,1.309273,0.284278,6,WALK
1759223410.06084,5.26036,26.483312,-24.118439,1.697253,2.319826,0.64091,6,WALK
1759223410.08078,3.223044,21.531056,-4.966771,0.243489,-0.059413,-0.230246,6,WALK
1759223410.10081,2.291401,9.432706,-5.164443,-0.014631,-1.320905,-1.446269,6,WALK
1759223410.12082,4.308665,1.457171,-5.162946,0.008754,-0.23576,-1.55731,6,WALK
1759223410.14081,14.94341,5.108029,4.356549,-1.248998,-0.109341,0.3602,6,WALK
1759223410.16091,14.577097,9.716718,-3.50571,0.592463,-0.604172,1.487823,6,WALK
1759223410.18082,2.404527,15.321544,-9.119963,0.810037,-1.04684,0.148184,6,WALK
1759223410.20095,1.996166,5.581782,13.586496,-2.189332,-0.472589,0.107779,6,WALK
1759223410.22082,-0.415244,2.098967,6.772598,-2.902136,0.037095,-0.387274,6,WALK
1759223410.24080,2.351854,5.21936,6.836942,-3.827043,0.338705,-0.130172,6,WALK
1759223410.26082,4.847211,9.392154,6.942137,-4.392337,-0.195082,0.576443,6,WALK
1759223410.27983,1.496975,13.11828,-2.4982,-2.051182,-3.737163,0.099601,6,WALK
1759223410.30083,3.890428,13.324929,2.461389,-1.380831,-3.771569,0.034141,6,WALK
1759223410.32019,3.116652,11.267712,-0.695067,-1.037233,-2.975826,0.125297,6,WALK
1759223410.34001,1.469591,8.445097,-4.160524,-0.879354,-0.970313,0.228921,6,WALK
1759223410.36083,3.66268,9.422979,-0.170886,-1.649006,1.556205,0.638933,6,WALK
1759223410.38028,3.056947,10.239552,1.558326,-1.911032,2.041283,0.508254,6,WALK
1759223410.40082,0.903362,8.961497,0.048183,-1.346177,0.746567,0.006917,6,WALK
1759223410.42081,0.861913,8.169465,-1.155053,-0.630374,-0.945674,-0.01455,6,WALK
1759223410.44099,1.27177,8.594136,-0.014664,-0.598638,-1.244851,0.334232,6,WALK
1759223410.46083,0.594361,9.410709,-0.259023,-1.165205,-0.276195,0.681169,6,WALK
1759223410.48083,0.415993,10.326192,-0.440084,-1.463844,0.659316,0.496733,6,WALK
1759223410.50084,1.303044,9.786299,-0.259172,-1.22655,0.859741,0.065618,6,WALK
1759223410.52082,2.779668,8.343194,0.475548,-1.025651,0.475474,0.200653,6,WALK
1759223410.54093,3.221997,7.776517,0.413,-0.959505,0.119318,0.381968,6,WALK
1759223410.56104,3.711461,7.94426,-0.401927,-1.106665,0.099433,0.38974,6,WALK
1759223410.58101,4.365677,9.282619,-1.168221,-1.420108,0.448513,0.45591,6,WALK
1759223410.59996,1.376666,9.863812,-2.421885,-1.556657,0.284306,0.497922,6,WALK
1759223410.62082,-1.310227,10.324546,-3.278261,-1.187225,-0.600734,0.368948,6,WALK
1759223410.64091,-1.124976,10.898705,-1.500117,-0.491825,-0.600756,0.000035,6,WALK
1759223410.66081,0.229544,10.090961,-0.144849,0.089667,0.25648,-0.08444,6,WALK
1759223410.68101,3.107225,11.600955,-1.388637,0.04119,0.923636,-0.140286,6,WALK
1759223410.70092,2.436399,13.172898,-1.458817,0.09237,0.314263,-0.123825,6,WALK
1759223410.72089,0.344316,15.410728,0.09502,0.406467,-0.317907,-0.2776,6,WALK
1759223410.74101,-0.057461,15.831958,-0.38382,0.890833,-0.371482,-0.666004,6,WALK
1759223410.76091,2.457947,13.541455,-3.728819,1.651383,0.072826,-0.920349,6,WALK
1759223410.78100,4.783615,11.761516,-4.392761,2.621797,0.129102,-0.753635,6,WALK
1759223410.80084,4.110246,11.617415,-0.401178,3.073798,0.082681,-0.742158,6,WALK
1759223410.82093,5.190629,11.776779,1.145476,3.209138,0.004495,-0.639291,6,WALK
1759223410.84102,6.346879,12.041637,3.148674,2.82162,-0.084653,-0.498321,6,WALK
1759223410.86085,7.412598,12.524069,4.337545,2.1689,-0.205307,-0.33218,6,WALK
1759223410.88086,9.014169,13.097181,4.046949,1.58229,-0.705117,0.0799,6,WALK
1759223410.90087,10.018836,11.784261,2.695871,1.600922,-1.2966,0.441019,6,WALK
1759223410.92095,6.761674,9.976938,-3.035698,2.98397,-1.40704,-0.016755,6,WALK
1759223410.94100,2.552069,9.704896,-0.236577,3.492788,-0.750881,-0.559059,6,WALK
1759223410.96088,0.535104,9.411307,0.842759,3.175297,0.094232,-0.733224,6,WALK
1759223410.98101,-0.088885,8.843433,0.777218,2.576176,0.44862,-0.690811,6,WALK
1759223411.00089,2.073379,7.158364,0.766444,2.160191,0.81156,-0.536719,6,WALK
1759223411.02086,2.927211,5.549011,1.015441,2.017715,1.104757,-0.473237,6,WALK
1759223411.04090,3.150171,3.836559,1.081581,1.889023,1.000221,-0.44856,6,WALK
1759223411.06082,3.207931,2.380435,1.386991,1.403198,0.637722,-0.42667,6,WALK
1759223411.08083,3.437176,1.502511,1.249474,0.549026,0.441838,-0.228446,6,WALK
1759223411.10002,3.734805,1.114651,0.791583,-0.438503,0.344118,0.054956,6,WALK
1759223411.12085,3.766378,1.379659,0.311097,-1.368808,0.420388,0.314405,6,WALK
1759223411.14100,3.253271,1.855057,-0.475548,-2.000719,0.486918,0.491234,6,WALK
1759223411.16089,2.32477,2.600851,-2.614618,-2.28911,0.774253,0.476198,6,WALK
1759223411.18088,1.663821,5.844246,-8.963143,-1.786226,1.287266,0.469497,6,WALK
1759223411.20035,2.337938,15.487941,-22.831257,0.631053,1.465334,0.458164,6,WALK
1759223411.22082,6.122423,29.333609,-21.390097,1.131809,2.159469,0.837678,6,WALK
1759223411.24015,-0.374393,18.796728,-3.580529,-0.256269,-0.80469,-0.610397,6,WALK
1759223411.26083,1.18498,8.424597,-5.160702,0.24082,-1.618589,-1.468312,6,WALK
1759223411.28085,9.443629,6.19769,-2.971354,0.224582,-0.459969,-0.563128,6,WALK
1759223411.30064,14.97199,9.073426,2.044499,-0.31476,0.856028,0.743927,6,WALK
1759223411.32088,2.097919,12.469002,-16.287006,1.998569,-2.472624,-0.60706,6,WALK
1759223411.34085,3.727323,6.315305,9.024794,-1.220345,-0.598103,-0.141628,6,WALK
1759223411.36103,1.055544,0.506374,7.613112,-2.049791,-0.720873,-0.071421,6,WALK
1759223411.38083,1.005565,1.803432,5.668871,-2.760853,-0.490372,0.073644,6,WALK
1759223411.40083,6.36693,7.738209,6.431424,-3.810719,0.290814,1.238881,6,WALK
1759223411.41991,6.629993,12.714258,6.035932,-3.749552,-0.137079,1.556581,6,WALK
1759223411.44082,1.282694,16.439187,-5.143643,-1.058031,-2.468117,0.205286,6,WALK
1759223411.46087,4.006248,12.741792,3.391686,-1.305269,-1.729927,0.049745,6,WALK
1759223411.48083,1.561618,8.443003,-1.934665,-1.147646,-1.564881,-0.047984,6,WALK
1759223411.50083,2.685845,7.607127,-2.633472,-1.400698,-0.262166,0.222076,6,WALK
1759223411.52035,4.037372,8.715193,-0.93314,-2.127395,1.095543,0.532806,6,WALK
1759223411.54082,2.924817,9.93474,0.538246,-2.058402,1.080617,0.334918,6,WALK
1759223411.56083,1.721431,8.780884,-0.451906,-1.307536,0.116407,0.104884,6,WALK
1759223411.58082,1.633294,8.35337,-0.162506,-0.807492,-0.56101,0.125444,6,WALK
1759223411.60090,0.85069,8.033893,0.598102,-0.740359,-0.641713,0.168677,6,WALK
1759223411.62072,0.302867,9.279926,0.100556,-0.88914,-0.273575,0.415261,6,WALK
1759223411.64084,-0.295834,10.484658,-0.5574,-1.249221,0.254791,0.551437,6,WALK
1759223411.66048,0.357784,9.628581,-0.640449,-1.244519,0.515343,0.196552,6,WALK
1759223411.68045,2.659808,8.862437,0.246154,-1.135649,0.653948,0.050762,6,WALK
1759223411.70092,3.574244,8.126519,0.909797,-1.118356,0.454652,0.29866,6,WALK
1759223411.72083,3.235614,7.758111,0.772579,-1.140872,0.303071,0.451088,6,WALK
1759223411.74083,3.476082,8.495076,0.45849,-1.262906,0.484329,0.499884,6,WALK
1759223411.76084,3.219303,10.218902,-0.70195,-1.450389,1.008466,0.591045,6,WALK
1759223411.78088,0.292392,11.451467,-4.101866,-1.359327,0.344285,0.341539,6,WALK
1759223411.80088,-1.768118,10.565612,-6.109105,-0.705355,-1.428174,-0.015708,6,WALK
1759223411.82082,0.202759,10.220997,-1.505504,-0.309223,-1.284101,-0.009656,6,WALK
1759223411.84084,1.246182,11.039963,0.864157,0.254999,0.031941,-0.099981,6,WALK
1759223411.86011,1.675343,11.752537,2.14281,0.579917,1.275045,-0.208309,6,WALK
1759223411.88083,2.198027,12.33792,1.476025,0.050814,2.105057,-0.054668,6,WALK
1759223411.90084,1.370232,14.079552,-0.543783,-0.516884,1.57105,0.055452,6,WALK
1759223411.91988,0.542287,14.389002,-4.293552,0.18399,-0.31598,-0.213159,6,WALK
1759223411.94081,1.53588,14.407108,-3.938911,1.302068,-0.45271,-0.480568,6,WALK
1759223411.96084,3.710713,13.463494,-2.381782,2.013396,0.273085,-0.493192,6,WALK
1759223411.98083,4.194641,11.044752,-1.447295,2.517716,-0.202137,-0.418828,6,WALK
1759223411.99994,3.770269,10.263793,0.766593,2.794602,-0.468955,-0.491474,6,WALK
1759223412.02022,4.431218,10.683227,1.634641,2.935677,-0.504709,-0.589856,6,WALK
1759223412.04081,5.024831,10.575039,3.941454,2.486953,-0.561671,-0.617809,6,WALK
1759223412.06083,6.720524,11.603349,4.458003,1.834746,-0.780241,-0.363763,6,WALK
1759223412.08083,8.108862,12.580931,3.660136,1.339075,-1.251488,0.104306,6,WALK
1759223412.10084,9.259575,12.638691,-0.322768,1.913711,-1.105994,0.199504,6,WALK
1759223412.12070,4.266018,11.320085,-2.383428,3.005817,-0.254605,-0.530304,6,WALK
1759223412.14081,0.794576,10.531794,0.439635,3.167806,0.217235,-1.174157,6,WALK
1759223412.16082,-0.180912,10.434679,1.370381,2.906202,0.267469,-1.423722,6,WALK
1759223412.18083,1.361104,9.013271,1.356465,2.622749,0.750045,-1.017588,6,WALK
1759223412.20085,3.260154,6.637774,1.190218,2.603554,1.454681,-0.501588,6,WALK
1759223412.22082,3.590405,4.791546,1.624765,2.424412,1.550271,-0.324329,6,WALK
1759223412.24084,3.627216,3.291129,1.511938,2.003008,1.269535,-0.43663,6,WALK
1759223412.26033,4.235043,2.279879,1.315913,1.240015,0.76451,-0.476283,6,WALK
1759223412.28089,4.279785,1.546056,1.190218,0.190219,0.409609,-0.316239,6,WALK
1759223412.30084,3.756353,1.704672,0.519392,-0.705076,0.241346,-0.059085,6,WALK
1759223412.32082,2.924218,2.284667,0.057311,-1.358361,0.370646,0.084532,6,WALK
1759223412.34025,2.481889,3.137751,-0.777966,-1.789534,0.440941,0.166979,6,WALK
1759223412.35999,1.86224,4.779575,-3.094506,-1.934861,0.515052,0.255589,6,WALK
1759223412.38084,1.836652,8.218696,-7.867646,-1.455561,0.700423,0.511606,6,WALK
1759223412.40084,1.132607,15.287427,-20.279487,0.693672,1.4413,0.445622,6,WALK
1759223412.42084,0.479738,23.840263,-19.988591,1.205927,2.258761,0.155161,6,WALK
1759223412.44082,-0.877774,18.635119,-5.853524,-0.364144,-0.459298,-0.947856,6,WALK
1759223412.46086,1.972972,8.68347,-5.808333,0.013774,-0.936089,-1.663331,6,WALK
1759223412.48084,2.468123,1.811812,-4.993407,0.447077,0.504663,-1.547299,6,WALK
1759223412.50087,10.641179,4.232649,5.072864,-1.114333,-0.109842,0.435306,6,WALK
1759223412.52083,12.657845,10.266337,6.841431,-1.623406,-1.005429,2.289248,6,WALK
1759223412.54083,4.239533,22.890513,-27.812842,2.44675,-0.417452,0.447113,6,WALK
1759223412.56084,3.705925,8.579771,15.179538,-1.118019,-1.173644,-0.407061,6,WALK
1759223412.58084,1.980005,1.570746,6.408829,-1.8775,-0.686778,-0.600297,6,WALK
1759223412.60006,2.479196,2.094777,5.073014,-2.668287,0.107307,-0.170962,6,WALK
1759223412.62084,4.944924,6.055983,5.787384,-3.669198,0.556059,0.784224,6,WALK
1759223412.64081,5.752668,9.993098,6.49517,-4.108366,0.174872,1.260703,6,WALK
1759223412.66084,2.017414,14.27453,-5.295076,-1.551502,-2.788938,0.333983,6,WALK
1759223412.68084,4.597466,13.769503,1.858649,-1.178047,-2.798223,0.028133,6,WALK
1759223412.70093,4.668394,10.813412,0.191686,-1.31009,-1.507951,0.275554,6,WALK
1759223412.72085,2.753033,8.265832,-2.260126,-1.363321,0.218285,0.399825,6,WALK
1759223412.74083,2.76246,8.780286,-0.752378,-1.50987,1.141808,0.560743,6,WALK
1759223412.76085,1.998709,9.351901,1.244386,-1.49713,0.935047,0.480163,6,WALK
1759223412.78084,1.313968,9.074922,1.049259,-1.14301,0.485235,0.335499,6,WALK
1759223412.80084,0.37559,8.4442,0.143652,-0.716379,-0.116434,0.291351,6,WALK
1759223412.82084,-0.691924,8.3203,0.370652,-0.772846,-0.806217,0.310158,6,WALK
1759223412.84020,-0.512958,9.702802,0.7226,-1.123692,-0.706258,0.392815,6,WALK
1759223412.86084,0.110582,9.533561,0.758663,-1.244448,-0.223345,0.189348,6,WALK
1759223412.88084,1.999458,8.491635,0.32187,-1.307164,0.216975,0.042874,6,WALK
1759223412.90083,3.55943,8.626608,0.1652,-1.432346,0.484207,0.23444,6,WALK
1759223412.92089,3.826533,9.044695,-0.040253,-1.531281,0.388474,0.39465,6,WALK
1759223412.94062,4.188506,9.388263,-0.823156,-1.586814,0.091378,0.435531,6,WALK
1759223412.96090,3.366248,8.621221,-3.016395,-1.524446,-0.595803,0.517434,6,WALK
1759223412.98087,0.239121,9.984719,-3.854515,-1.109151,-1.505484,0.560073,6,WALK
1759223413.00084,-1.080982,11.448324,-1.755099,-0.443036,-1.15968,0.262769,6,WALK
1759223413.02084,-0.667384,11.771242,-0.139163,0.003084,-0.119838,0.018467,6,WALK
1759223413.04084,0.591667,11.068544,-1.048062,-0.025267,0.464923,-0.133432,6,WALK
1759223413.06084,1.574038,13.435362,-2.053178,0.251251,0.247174,-0.355378,6,WALK
1759223413.07992,1.170765,15.464298,-1.346439,0.646435,0.115065,-0.50855,6,WALK
1759223413.10022,0.101155,15.887623,0.026037,1.221418,-0.129813,-0.727528,6,WALK
1759223413.12090,2.794482,13.176339,-2.578106,1.92723,0.05329,-0.86516,6,WALK
1759223413.14089,3.545962,12.472893,-3.208829,2.725667,-0.113414,-0.833003,6,WALK
1759223413.16084,3.72433,12.514342,-1.278653,3.01821,0.040366,-0.903215,6,WALK
1759223413.18085,5.310938,12.230929,1.534534,3.157431,0.512877,-0.794863,6,WALK
1759223413.20096,7.485172,11.902624,3.41907,2.779204,0.418242,-0.331375,6,WALK
1759223413.22085,8.840739,12.423512,4.361637,2.262563,-0.012063,0.038253,6,WALK
1759223413.24082,11.331308,13.631088,3.56347,2.022513,-0.745225,0.305623,6,WALK
1759223413.26084,12.502072,11.753286,3.077896,2.042116,-1.89978,0.489797,6,WALK
1759223413.28002,8.338406,6.834099,-0.137218,2.632856,-1.464919,0.128813,6,WALK
1759223413.30086,3.630358,7.661745,0.63162,2.995791,-0.347256,-0.262782,6,WALK
1759223413.32084,0.430807,8.809914,0.285808,3.136819,0.238742,-0.512023,6,WALK
1759223413.34083,-1.376666,8.874557,0.337433,2.968464,0.580607,-0.727264,6,WALK
1759223413.36097,-1.873164,8.069507,0.576554,2.392647,1.15081,-0.680681,6,WALK
1759223413.38035,1.816301,5.374683,0.678158,1.761245,1.009962,-0.115403,6,WALK
1759223413.39998,2.474407,3.630657,0.902464,1.264241,0.951536,0.022263,6,WALK
1759223413.42085,3.549254,3.248932,1.28,0.843579,0.774531,-0.081591,6,WALK
1759223413.44084,3.240402,2.283171,1.054197,0.386633,0.572742,-0.270374,6,WALK
1759223413.46066,4.387674,2.505831,0.620846,-0.315386,0.641424,-0.094701,6,WALK
1759223413.48085,4.096778,2.653673,-0.349853,-1.09865,0.708527,0.080885,6,WALK
1759223413.50093,3.887286,3.694253,-1.640627,-1.717132,0.525224,0.178425,6,WALK
1759223413.52084,3.276764,5.575946,-3.89372,-1.91001,0.370614,0.099141,6,WALK
1759223413.54087,3.384653,8.263737,-7.357831,-1.552356,0.1492,0.037241,6,WALK
1759223413.56092,3.839851,11.445331,-11.268759,-1.007704,0.645727,0.026548,6,WALK
1759223413.58059,3.815909,14.954034,-15.495572,0.245722,1.333814,0.145292,6,WALK
1759223413.60090,3.399617,17.575236,-12.783092,0.885863,1.500082,0.254479,6,WALK
1759223413.62084,1.08577,14.682292,-7.879767,0.681499,0.154008,-0.484624,6,WALK
1759223413.64084,2.701857,7.471256,-5.789928,0.181627,-0.205111,-1.023249,6,WALK
1759223413.66031,4.857985,2.911349,-2.160019,-0.324643,-0.272134,-0.831105,6,WALK
1759223413.68085,12.61026,7.332991,4.515764,-1.185655,-0.672004,0.470715,6,WALK
1759223413.70096,12.130372,11.498004,-1.112107,0.00914,-0.555323,0.986468,6,WALK
1759223413.72086,2.733131,17.745374,-13.367576,1.217665,-0.901244,-0.179087,6,WALK
1759223413.74084,3.118897,5.58238,11.866711,-1.706412,-1.056976,0.091687,6,WALK
1759223413.76064,1.29242,1.613393,6.067057,-2.433195,-0.916905,-0.082388,6,WALK
1759223413.78012,2.028637,2.977489,5.770475,-3.141246,-0.14205,-0.051308,6,WALK
1759223413.80095,5.146935,6.625355,5.957522,-3.703995,0.276459,0.519046,6,WALK
1759223413.82085,5.83841,10.181193,5.278616,-3.462979,-0.453424,0.6394,6,WALK
1759223413.84081,0.97878,13.938892,-8.02282,-0.685423,-4.109244,-0.34239,6,WALK
1759223413.86087,4.368819,12.259809,1.933168,-0.904052,-3.94229,-0.085422,6,WALK
1759223413.88085,1.897405,9.896732,-2.219874,-1.312348,-1.695615,0.246019,6,WALK
1759223413.90086,1.654842,9.565434,-0.891242,-1.957341,0.654705,0.461985,6,WALK
1759223413.92085,2.460042,10.216956,1.477222,-2.265746,1.360116,0.516562,6,WALK
1759223413.94085,1.30469,9.722554,0.458639,-1.710075,0.822238,0.222172,6,WALK
1759223413.96046,0.562488,8.901642,-0.884358,-0.725564,-0.310312,0.01742,6,WALK
1759223413.98018,0.473304,8.765322,0.622343,-0.283575,-0.585447,0.082246,6,WALK
1759223414.00002,-0.585682,9.039009,0.069432,-0.42281,0.044293,0.338521,6,WALK
1759223414.02084,-1.131111,8.871864,-0.135272,-1.152548,1.5013,0.528943,6,WALK
1759223414.04084,0.506823,9.49271,0.831686,-1.361169,1.673622,0.125818,6,WALK
1759223414.06085,2.18022,9.540594,1.43682,-1.199791,1.106366,0.042947,6,WALK
1759223414.08054,2.418443,8.64621,1.653047,-1.132859,0.501702,0.125908,6,WALK
1759223414.10089,2.930353,8.371326,0.444573,-1.184108,0.374941,0.136366,6,WALK
1759223414.12086,4.798728,9.409512,-1.34614,-1.401521,0.665304,0.208245,6,WALK
1759223414.14083,4.28173,10.123134,-3.131915,-1.50096,0.584687,0.352988,6,WALK
1759223414.16084,0.424821,9.713725,-4.746056,-1.092538,-0.427581,0.275834,6,WALK
1759223414.18086,-1.103877,9.490316,-4.456657,-0.552992,-1.161925,0.179499,6,WALK
1759223414.20087,0.708983,11.613674,-0.976685,0.182984,-0.648093,-0.06368,6,WALK
1759223414.22085,1.906383,12.754212,1.278653,0.795533,0.600516,-0.173823,6,WALK
1759223414.24085,2.750489,12.440122,0.928352,0.504883,1.110963,-0.266737,6,WALK
1759223414.26084,2.353201,14.793473,1.23062,0.503604,0.137907,-0.352609,6,WALK
1759223414.28085,0.091728,17.204135,1.883788,1.1261,-0.657998,-0.562497,6,WALK
1759223414.30090,0.760608,14.758607,-1.09849,1.776299,-0.544905,-0.958829,6,WALK
1759223414.32092,4.116979,10.094403,-4.537461,2.237138,-0.038865,-0.925073,6,WALK
1759223414.34084,5.716306,9.62095,-4.507234,3.040603,0.319496,-0.509339,6,WALK
1759223414.36092,6.155941,10.680234,-1.812411,3.600933,0.077277,0.103496,6,WALK
1759223414.38092,6.384288,11.975797,3.384653,2.985543,-1.121235,0.463901,6,WALK
1759223414.40086,6.345682,13.126211,4.531326,2.18595,-1.720792,0.215066,6,WALK
1759223414.42085,6.522853,13.624953,2.710236,1.87847,-1.458735,-0.367739,6,WALK
1759223414.44086,7.688829,12.178256,2.543989,1.675412,-1.542892,-0.241561,6,WALK
1759223414.46093,6.148609,9.7242,2.344372,1.473217,-1.47046,-0.06179,6,WALK
1759223414.48009,1.094449,9.320777,0.215628,1.895009,-0.269441,-0.710253,6,WALK
1759223414.50085,-1.566706,9.932794,-1.864933,2.756295,-0.150856,-1.48644,6,WALK
1759223414.52085,-1.830966,9.948955,-0.983568,2.930735,0.545049,-1.708072,6,WALK
1759223414.54084,0.804601,7.703194,-0.383521,2.53937,1.678148,-1.042106,6,WALK
1759223414.56086,2.882469,5.647323,1.231368,2.02684,1.817689,-0.437351,6,WALK
1759223414.58050,2.897882,4.692336,1.773804,1.677675,1.323051,-0.364602,6,WALK
1759223414.60086,3.389441,3.911527,1.373224,1.319595,0.966748,-0.44531,6,WALK
1759223414.62097,4.320935,2.590227,0.830788,0.578754,0.890554,-0.40533,6,WALK
1759223414.64085,5.410896,1.851017,0.702997,-0.587792,0.501558,-0.260298,6,WALK
1759223414.66087,5.365406,1.779939,0.517148,-1.114659,0.280035,-0.14429,6,WALK
1759223414.68088,4.83928,2.438943,0.358831,-1.823098,0.137542,0.176084,6,WALK
1759223414.70094,3.617339,3.019088,0.195726,-2.297965,0.040543,0.442528,6,WALK
1759223414.72088,1.256208,3.448399,-1.140687,-2.703415,0.138638,0.369414,6,WALK
1759223414.74102,0.318878,7.286154,-4.972757,-2.721779,0.699084,0.623758,6,WALK
1759223414.76092,0.381277,17.480665,-20.501698,0.540684,1.047921,1.116574,6,WALK
1759223414.80085,-2.232294,20.904074,-3.338565,0.76109,-0.464479,-0.913465,6,WALK
1759223414.82087,0.50772,5.303755,-5.053262,0.309008,-1.577747,-1.819962,6,WALK
1759223414.84102,1.61444,-2.72505,-1.591994,0.212601,-0.285903,-1.855913,6,WALK
1759223414.86092,8.194903,0.920571,6.215497,-0.623176,0.121709,-0.049002,6,WALK
1759223414.88104,13.231406,9.687239,6.363638,-1.18496,0.406379,2.43545,6,WALK
1759223414.90090,3.375675,24.447941,-28.013955,1.547776,0.804034,1.194588,6,WALK
1759223414.92085,1.674744,11.356746,12.993632,-1.324747,-0.999008,-0.186872,6,WALK
1759223414.94102,2.09358,4.488081,7.663989,-2.230279,-0.399621,-0.504205,6,WALK
1759223414.96099,3.729119,4.560206,6.839336,-3.187802,0.394412,-0.110186,6,WALK
1759223414.98105,4.406977,5.71466,5.348647,-3.337788,0.509001,0.421732,6,WALK
1759223415.00003,6.308422,8.44405,4.176535,-2.63481,-0.242958,0.936525,6,WALK
1759223415.02091,5.922656,10.445453,2.140716,-1.697979,-0.925899,1.084512,6,WALK
1759223415.04104,2.459144,11.878233,-2.787898,-0.325636,-2.234786,0.300237,6,WALK
1759223415.06097,2.753033,10.924144,-0.540042,-0.343654,-1.510208,-0.189648,6,WALK
1759223415.08098,2.881122,9.609428,-0.669928,-1.595488,0.868828,0.029075,6,WALK
1759223415.10092,3.174861,10.536133,1.808071,-2.458037,1.587714,0.090091,6,WALK
1759223415.12085,1.930624,9.263615,0.858321,-2.172051,0.756735,-0.097187,6,WALK
1759223415.14085,0.760309,7.459883,-0.896479,-1.343287,-0.59484,-0.098056,6,WALK
1759223415.16088,0.148291,7.197269,-0.525078,-0.815334,-1.45503,0.009296,6,WALK
1759223415.18046,-0.158017,9.481487,-0.304812,-1.112685,-1.624667,0.433554,6,WALK
1759223415.20087,-0.360028,10.924293,0.002693,-1.494168,-0.448507,0.527975,6,WALK
1759223415.22086,-0.279523,10.301202,0.327706,-1.294376,0.635921,-0.059029,6,WALK
1759223415.24085,2.196979,9.327211,-0.39624,-1.107806,0.955152,0.064044,6,WALK
1759223415.26086,4.598812,9.583091,-2.765004,-0.996261,1.034292,0.167196,6,WALK
1759223415.28085,3.883844,8.963442,-3.777452,-0.444172,0.083677,0.261816,6,WALK
1759223415.30007,2.953846,8.843283,0.014814,-0.349666,-0.70889,0.460757,6,WALK
1759223415.32085,1.713799,8.683919,1.652448,-0.833815,-0.753787,0.513636,6,WALK
1759223415.34084,1.093402,9.464279,1.53588,-1.105401,-0.227865,0.529655,6,WALK
1759223415.36087,-0.310348,10.26903,0.360627,-1.056567,0.229815,0.550741,6,WALK
1759223415.38085,-1.755997,11.153688,-1.245284,-0.75639,0.051931,0.258889,6,WALK
1759223415.40051,0.784849,12.385355,-1.28823,-0.327957,0.084811,-0.044413,6,WALK
1759223415.42084,3.08433,10.965144,-1.652298,-0.16023,0.359797,-0.036504,6,WALK
1759223415.44086,2.452111,13.616274,-1.224485,0.223628,0.072848,0.12156,6,WALK
1759223415.46084,0.13632,16.171485,0.263811,0.637121,-0.269068,-0.131687,6,WALK
1759223415.48087,0.961721,14.61286,-1.423353,1.07151,-0.232426,-0.578344,6,WALK
1759223415.50083,3.244443,12.448352,-4.762516,1.90106,-0.280041,-0.757527,6,WALK
1759223415.52091,3.88983,11.046398,-3.431938,2.592571,-0.336227,-0.622141,6,WALK
1759223415.54084,3.636194,9.48059,-1.620426,3.072943,-0.490706,-0.496773,6,WALK
1759223415.56084,3.983652,9.768792,-0.602591,3.43272,-0.609292,-0.499779,6,WALK
1759223415.58087,4.453365,11.188853,2.257882,3.100717,-0.52742,-0.527806,6,WALK
1759223415.60090,4.668244,12.806884,4.253,2.487471,-0.204018,-0.690643,6,WALK
1759223415.62007,6.094141,14.29069,3.758298,1.975723,-0.039798,-0.576218,6,WALK
1759223415.64084,7.974637,14.481478,3.408745,1.535891,-0.280728,0.029853,6,WALK
1759223415.66091,5.866842,12.31727,-0.615011,2.159746,-0.953967,0.009915,6,WALK
1759223415.68086,1.185279,10.717045,-2.058714,2.964305,-1.114866,-0.878981,6,WALK
1759223415.70087,0.013617,10.304195,0.215478,2.784846,-0.108039,-1.532139,6,WALK
1759223415.72046,2.48144,8.869919,0.298228,2.574758,0.818751,-1.373066,6,WALK
1759223415.74084,3.57978,7.364864,0.710629,2.564038,1.361244,-1.061595,6,WALK
1759223415.76093,3.941006,5.638495,1.756446,2.412082,1.315777,-0.847092,6,WALK
1759223415.78094,3.436727,3.940108,1.698536,2.096382,1.160341,-0.790308,6,WALK
1759223415.80086,3.751415,2.998139,1.80867,1.468305,0.911948,-0.712894,6,WALK
1759223415.82084,3.923498,2.006491,1.880945,0.517469,0.686174,-0.533077,6,WALK
1759223415.84085,3.93517,1.322497,1.653346,-0.500103,0.594296,-0.177706,6,WALK
1759223415.86054,3.394978,1.199944,0.906804,-1.351283,0.624731,0.137071,6,WALK
1759223415.88034,2.465579,0.845452,0.566977,-2.181296,0.729289,0.340751,6,WALK
1759223415.90087,0.944363,2.154183,-0.620996,-2.884648,1.327262,0.416543,6,WALK
1759223415.92055,0.614412,6.131251,-5.465813,-2.891828,1.688086,0.714237,6,WALK
1759223415.94094,0.73068,17.888278,-27.956794,0.982648,1.479697,0.804214,6,WALK
1759223415.98087,-1.885284,20.097677,-2.805406,-0.245989,-1.248412,-1.081965,6,WALK
1759223416.00086,1.174206,6.932411,-7.13502,0.891991,-1.146132,-1.810548,6,WALK
1759223416.02093,2.461688,-1.457321,-1.533337,0.44074,0.272748,-1.429902,6,WALK
1759223416.04087,11.00809,4.258686,7.555053,-1.413542,0.255128,0.75488,6,WALK
1759223416.06093,10.032004,11.039365,0.332644,-0.539016,-0.486859,1.613465,6,WALK
1759223416.08099,0.080655,21.920861,-16.719608,0.984866,-0.89842,-0.146745,6,WALK
1759223416.10107,4.338293,6.908619,13.060969,-1.215252,-0.416874,-0.483349,6,WALK
1759223416.12007,3.127576,3.911078,8.991275,-1.639089,0.190029,-0.590534,6,WALK
1759223416.14095,5.249586,5.175217,6.16881,-2.75357,1.251992,0.251949,6,WALK
1759223416.16107,6.104466,7.350648,5.45055,-2.991075,-0.046564,0.820329,6,WALK
1759223416.18093,6.617424,8.981399,5.296722,-2.781893,-0.884053,0.897927,6,WALK
1759223416.20088,6.354062,11.108946,3.130119,-2.37917,-0.876519,0.701272,6,WALK
1759223416.22053,2.211943,11.844714,-5.042937,-0.52514,-1.663004,-0.225922,6,WALK
1759223416.24095,3.322703,9.54224,-1.258303,-0.304562,-0.936419,-0.139793,6,WALK
1759223416.26107,2.446575,7.997232,-0.282217,-1.331609,0.812343,0.258626,6,WALK
1759223416.28090,2.894141,9.992051,0.224157,-2.095582,1.298486,0.526902,6,WALK
1759223416.30108,2.231246,10.477326,0.163554,-1.888568,0.564025,0.350582,6,WALK
1759223416.32087,1.660828,9.100959,-0.222661,-1.22216,-0.394278,0.18133,6,WALK
1759223416.34086,1.141735,7.778163,-0.011971,-0.859889,-0.849536,0.158471,6,WALK
1759223416.36085,0.188992,7.691971,-0.143054,-1.196817,-0.86102,0.367116,6,WALK
1759223416.38092,0.667533,10.285041,0.772429,-1.511762,-0.416651,0.561754,6,WALK
1759223416.40087,0.711078,10.524761,1.335965,-1.348659,-0.00894,0.272934,6,WALK
1759223416.42074,1.034894,8.973169,1.563264,-1.35823,0.024658,0.218595,6,WALK
1759223416.44089,1.555034,8.379257,0.684742,-1.43482,0.120034,0.347686,6,WALK
1759223416.46106,2.869301,9.430012,-0.6813,-1.658259,0.69822,0.402985,6,WALK
1759223416.48092,2.575114,10.497228,-2.212691,-1.852164,0.510075,0.350494,6,WALK
1759223416.50094,0.327706,10.297162,-5.491102,-1.314622,-1.498708,0.14887,6,WALK
1759223416.52090,0.497246,9.823409,-3.439121,-0.771227,-2.117812,0.135864,6,WALK
1759223416.54089,1.196053,10.676194,-0.679055,-0.234691,-0.958577,0.197669,6,WALK
1759223416.56088,0.717213,11.410915,0.921319,0.273995,0.579151,0.212529,6,WALK
1759223416.58087,0.106991,12.054955,0.894384,0.2978,1.416342,0.266452,6,WALK
1759223416.60092,-1.123928,15.74846,0.841263,0.123362,1.343129,0.103784,6,WALK
1759223416.62087,-1.693748,17.114202,0.675315,0.282386,0.683276,-0.601255,6,WALK
1759223416.64077,2.505233,14.15063,-1.603666,0.661026,0.631748,-1.006039,6,WALK
1759223416.66089,6.533028,12.059743,-5.690269,1.693495,0.266099,-0.661808,6,WALK
1759223416.68087,6.123021,11.797878,-4.135983,2.790052,-0.058042,-0.582076,6,WALK
1759223416.70089,4.913351,10.935965,-0.174477,3.277164,-0.095579,-0.646055,6,WALK
1759223416.72001,5.072415,9.365668,1.84982,3.302338,-0.061221,-0.564021,6,WALK
1759223416.74086,5.253327,8.79106,4.133589,2.7253,-0.340814,-0.381526,6,WALK
1759223416.76089,6.915203,10.69849,4.479551,2.026134,-0.846107,-0.09312,6,WALK
1759223416.78087,9.846304,13.547291,4.039617,1.533114,-1.184094,0.352974,6,WALK
1759223416.80015,10.45084,13.241282,3.81097,1.422061,-1.129281,0.331124,6,WALK
1759223416.82067,3.549703,10.294918,-3.97228,3.141226,-1.263707,-0.491535,6,WALK
1759223416.84086,2.526182,9.719561,-1.695993,4.040155,-1.026152,-0.657318,6,WALK
1759223416.86046,-0.073771,8.637232,0.407314,3.498473,-0.013626,-0.663912,6,WALK
1759223416.88095,-0.700454,7.260417,1.032051,2.328051,0.945005,-0.605012,6,WALK
1759223416.90107,2.449867,6.364835,0.704793,1.750634,1.396747,-0.227842,6,WALK
1759223416.92090,2.783409,5.448006,0.790685,1.77736,1.325268,-0.155846,6,WALK
1759223416.94009,2.854188,4.21978,1.170016,1.674438,0.625486,-0.239076,6,WALK
1759223416.96087,3.718644,3.506757,0.907851,1.096655,0.302802,-0.21318,6,WALK
1759223416.98088,3.957615,2.310255,0.512808,0.135045,0.119468,-0.097054,6,WALK
1759223417.00089,3.334674,1.777246,0.18151,-0.932077,0.064523,0.026476,6,WALK
1759223417.02087,3.090914,2.30008,-0.222062,-1.708575,0.173237,0.216394,6,WALK
1759223417.04044,2.884714,3.089717,-1.76707,-1.960093,0.372306,0.355461,6,WALK
1759223417.06090,1.950377,4.924723,-4.713884,-1.76908,0.695338,0.322344,6,WALK
1759223417.08088,1.086219,9.276933,-9.531167,-1.121898,1.324069,0.133687,6,WALK
1759223417.10097,0.793678,18.379688,-21.686828,1.174692,1.791978,0.065345,6,WALK
1759223417.12087,2.687192,24.342148,-17.11525,1.439937,2.272919,0.452545,6,WALK
1759223417.14091,0.446968,15.316007,-6.275651,0.425277,0.004175,-0.425021,6,WALK
1759223417.16087,2.210147,5.683386,-5.080496,-0.011237,-0.212454,-1.454993,6,WALK
1759223417.18004,5.832425,1.505504,-2.231695,-0.429213,0.192012,-1.495096,6,WALK
1759223417.20090,14.484471,7.830835,9.3317,-1.638943,-2.182064,0.615784,6,WALK
1759223417.22087,14.176218,11.133038,-6.972514,0.827013,-0.938887,1.120052,6,WALK
1759223417.24086,4.819678,12.001385,-3.228581,-0.31839,0.491051,0.443879,6,WALK
1759223417.26100,1.098041,5.32246,11.413309,-2.688891,-0.444495,0.041961,6,WALK
1759223417.28091,0.155623,3.887136,6.918644,-3.580059,-0.120828,-0.182927,6,WALK
1759223417.30090,2.693776,7.353192,7.379977,-4.309255,-0.025668,0.23073,6,WALK
1759223417.32088,2.428319,11.005098,1.829619,-2.663008,-2.39062,0.178514,6,WALK
1759223417.34091,3.251027,13.68795,0.184952,-1.293439,-3.946577,0.107521,6,WALK
1759223417.36035,4.18282,12.956671,2.131887,-1.315675,-2.931909,0.251666,6,WALK
1759223417.38090,0.348656,9.583391,-4.045004,-0.788312,-1.570676,-0.065085,6,WALK
1759223417.40075,0.988506,7.738359,-1.479916,-1.595259,0.79544,0.179406,6,WALK
1759223417.42087,2.786701,9.551668,1.486201,-2.292306,1.399486,0.608452,6,WALK
1759223417.44089,1.479317,10.108619,1.312471,-1.89701,0.926369,0.420743,6,WALK
1759223417.46087,0.799813,9.403227,0.804901,-1.180857,0.033549,0.190161,6,WALK
1759223417.48025,0.000898,7.85373,0.356886,-0.780994,-0.997377,0.151014,6,WALK
1759223417.50087,-0.494253,7.361123,0.379182,-0.970852,-0.969541,0.328102,6,WALK
1759223417.52089,0.638803,9.15019,0.92072,-1.180149,-0.029029,0.362748,6,WALK
1759223417.54086,2.135179,9.682301,1.543961,-1.202544,0.588041,0.247776,6,WALK
1759223417.56087,2.994847,8.764125,1.069909,-1.339735,0.967407,0.32541,6,WALK
1759223417.58088,4.099023,8.295609,-0.239121,-1.614933,1.282277,0.3859,6,WALK
1759223417.60088,5.253627,9.67033,-1.740136,-1.664765,0.531959,0.526903,6,WALK
1759223417.62088,3.890877,9.679608,-2.009483,-1.259355,-0.806925,0.56065,6,WALK
1759223417.64087,2.66759,10.040833,-1.380856,-1.182171,-1.289592,0.581731,6,WALK
1759223417.66087,0.797568,12.293926,-2.419341,-1.13589,-1.463223,0.644418,6,WALK
1759223417.68088,-2.167351,12.198308,-3.102287,-0.522078,-1.542336,0.598657,6,WALK
1759223417.70087,-3.191321,12.53589,-2.230947,0.217446,-0.912126,0.294794,6,WALK
1759223417.72088,-2.653973,12.398373,-1.99856,0.385357,-0.24422,0.069505,6,WALK
1759223417.74090,0.346561,13.173197,-1.573739,0.45438,1.00058,-0.329107,6,WALK
1759223417.75991,1.094449,15.658528,-1.184681,1.010105,1.066575,-0.406285,6,WALK
1759223417.78088,0.613664,14.995932,-1.525106,1.69067,0.260439,-0.537427,6,WALK
1759223417.80097,1.13949,13.016377,-2.391059,2.36208,0.13721,-1.045324,6,WALK
1759223417.82098,4.010886,10.577134,-2.541894,3.048224,0.09935,-0.996994,6,WALK
1759223417.84085,4.992958,10.716147,-0.282067,3.367431,-0.107463,-0.758696,6,WALK
1759223417.86029,7.012916,12.154165,2.776975,3.088602,-0.47502,-0.361438,6,WALK
1759223417.88091,7.280169,12.728923,5.286248,2.342528,-0.8595,-0.276299,6,WALK
1759223417.90088,7.234829,13.302933,3.847482,1.84353,-1.148727,-0.745313,6,WALK
1759223417.92053,9.160814,13.59712,3.059341,1.486956,-1.414776,-0.925931,6,WALK
1759223417.94087,7.281515,11.216087,-2.076371,2.21565,-0.987602,-1.071744,6,WALK
1759223417.96071,3.026121,11.321581,-0.629675,2.971762,0.072588,-1.413984,6,WALK
1759223417.98089,0.105345,11.486631,0.716465,3.505826,0.907533,-1.773637,6,WALK
1759223418.00093,0.335787,10.646416,1.180192,3.62877,1.222518,-1.511802,6,WALK
1759223418.02090,1.819144,8.523059,0.963816,3.197512,1.578378,-0.962792,6,WALK
1759223418.04087,2.466626,6.227019,1.160739,2.393992,1.588069,-0.783174,6,WALK
1759223418.06089,2.882918,4.692186,1.316512,1.857665,1.538444,-0.840623,6,WALK
1759223418.08089,3.518728,3.211073,2.035221,1.373214,1.405835,-0.831111,6,WALK
1759223418.10068,3.425205,0.876577,2.129044,0.627704,1.166819,-0.623919,6,WALK
1759223418.12088,3.645771,-0.275782,1.825429,-0.357206,0.937629,-0.189727,6,WALK
1759223418.14087,3.499724,-0.044442,1.138892,-1.257105,0.752973,0.214521,6,WALK
1759223418.16090,3.661632,0.702848,0.777966,-2.021119,0.937494,0.57199,6,WALK
1759223418.18072,2.602946,2.081758,0.174926,-2.619495,1.368773,0.734251,6,WALK
1759223418.20090,2.157325,4.971111,-3.240702,-2.746476,1.79078,0.858493,6,WALK
1759223418.22088,2.832191,13.177686,-17.414974,-0.597326,1.32656,1.006136,6,WALK
1759223418.26088,-1.138293,22.014235,-3.41907,-0.724382,-0.792755,-0.744326,6,WALK
1759223418.28088,1.185429,10.47149,-6.595726,0.044878,-2.353391,-1.50137,6,WALK
1759223418.30088,1.169119,1.794903,-5.802348,0.715635,0.124415,-1.294541,6,WALK
1759223418.32088,8.399458,3.210774,6.050148,-1.22823,0.608863,0.2374,6,WALK
1759223418.34087,10.778397,10.433781,8.77864,-2.537033,-1.083258,1.936847,6,WALK
1759223418.36096,2.248006,21.414787,-27.332954,1.582084,-1.582409,0.329342,6,WALK
1759223418.38094,3.212869,12.152219,11.418247,-0.791275,-0.739713,-0.763065,6,WALK
1759223418.40095,2.22167,4.852299,8.578724,-2.365043,0.140842,-0.959131,6,WALK
1759223418.42089,3.010858,3.763984,6.327725,-3.238832,0.955987,-0.538271,6,WALK
1759223418.44086,3.535338,4.255245,4.999692,-3.139721,0.819925,0.150468,6,WALK
1759223418.46088,5.100248,8.164527,5.111172,-2.673551,-0.408045,0.851713,6,WALK
1759223418.48089,4.48419,11.59871,2.269105,-1.629009,-1.307239,0.730566,6,WALK
1759223418.50094,1.200393,13.328221,-4.82282,0.4323,-2.610362,-0.262128,6,WALK
1759223418.52089,3.973926,8.797943,-3.498078,0.588793,-0.717542,0.010635,6,WALK
1759223418.54088,3.001281,8.162432,0.081253,-1.528126,2.029979,0.740368,6,WALK
1759223418.56089,2.063203,10.786776,2.677765,-2.396238,1.26492,0.367847,6,WALK
1759223418.58089,0.984466,9.929054,0.193033,-1.85131,-0.168625,-0.208034,6,WALK
1759223418.60089,1.134852,8.454076,-0.311097,-1.182036,-1.176504,-0.222453,6,WALK
1759223418.62088,0.924461,7.841908,-0.547674,-1.046728,-1.189706,0.151613,6,WALK
1759223418.64086,1.020229,8.485649,0.057311,-1.389698,-0.293195,0.523697,6,WALK
1759223418.66092,1.664269,9.822661,0.712874,-1.264207,0.3035,0.386564,6,WALK
1759223418.68031,2.335843,9.132982,0.869245,-1.016212,0.066254,0.432384,6,WALK
1759223418.70088,2.634071,8.194305,0.956334,-1.130467,-0.140187,0.565319,6,WALK
1759223418.72093,3.05141,9.424625,0.165948,-1.572167,0.017109,0.574543,6,WALK
1759223418.74087,1.903839,9.791088,-1.331475,-1.873591,-0.202453,0.562957,6,WALK
1759223418.76093,0.378134,9.962423,-2.510769,-1.465049,-0.782896,0.462668,6,WALK
1759223418.78067,0.981772,11.034576,-3.039888,-0.7865,-0.858974,0.361749,6,WALK
1759223418.80093,0.39639,11.179575,-2.466626,-0.185781,-0.778603,0.347929,6,WALK
1759223418.82090,-0.707487,12.24679,-0.995389,0.362814,-0.144004,0.198147,6,WALK
1759223418.84085,-1.276259,14.393342,-1.048511,0.438051,0.659403,-0.002954,6,WALK
1759223418.86089,-1.829769,16.266206,-0.595408,0.585975,0.984354,-0.521589,6,WALK
1759223418.88089,-0.041749,17.244088,-0.157269,1.172499,0.687595,-1.20881,6,WALK
1759223418.90089,4.360889,13.751845,-1.65993,1.469944,-0.153194,-1.298922,6,WALK
1759223418.92092,6.972065,10.76029,-5.183447,2.26762,-0.402256,-0.894577,6,WALK
1759223418.94106,6.886323,10.506655,-3.77416,3.286004,-0.182824,-0.634432,6,WALK
1759223418.96100,7.810634,11.750592,0.158017,3.426531,-0.294644,-0.246095,6,WALK
1759223418.98095,7.585429,12.320562,4.882974,2.574437,-0.594603,-0.026964,6,WALK
1759223419.00089,7.419781,12.708123,5.164143,1.793105,-0.816492,-0.250516,6,WALK
1759223419.02095,8.422203,12.746879,3.849128,1.403075,-1.091612,-0.331445,6,WALK
1759223419.04088,8.918401,10.742484,2.671031,1.392355,-1.47367,-0.063133,6,WALK
1759223419.06100,4.690391,8.345588,-3.178003,2.753253,-2.266629,-0.233142,6,WALK
1759223419.08108,2.526182,7.796568,0.386963,3.21911,-1.725654,-0.492338,6,WALK
1759223419.10068,0.195876,7.388357,0.320823,3.11605,-0.645478,-0.739368,6,WALK
1759223419.12098,1.627758,6.270115,-0.924012,2.804537,0.379349,-0.604867,6,WALK
1759223419.14106,2.434305,5.360169,0.380528,2.038212,1.025773,-0.447578,6,WALK
1759223419.16102,2.274492,5.217863,1.403601,1.310083,1.196648,-0.315294,6,WALK
1759223419.18101,1.989133,4.359392,3.943849,0.660355,0.185079,-0.313607,6,WALK
1759223419.20095,2.582895,3.399467,0.910395,0.371342,0.264865,-0.156488,6,WALK
1759223419.22089,2.800168,2.108992,1.401506,-0.43828,-0.174628,0.106947,6,WALK
1759223419.24107,2.973748,1.471237,0.786645,-1.33781,-0.0673,0.442316,6,WALK
1759223419.26017,3.184438,1.65993,0.389656,-1.744779,0.058558,0.593781,6,WALK
1759223419.28094,2.745551,2.255787,-0.823905,-2.469105,0.556416,0.717728,6,WALK
1759223419.30092,1.265336,4.196138,-3.273323,-2.882185,1.402731,0.630471,6,WALK
1759223419.32099,-0.366911,8.665214,-8.193257,-2.147123,1.352566,0.595905,6,WALK
1759223419.38094,-1.148768,15.72362,-5.873725,0.448279,-0.412881,-1.295035,6,WALK
1759223419.40042,0.780959,0.84635,-4.429722,0.236392,-0.791084,-2.272453,6,WALK
1759223419.42089,7.070377,-0.441581,4.5626,-0.092293,-0.91758,-1.066195,6,WALK
1759223419.44028,11.853244,7.164499,9.789142,-0.878396,-1.196357,1.101506,6,WALK
1759223419.46036,6.142624,15.676335,-20.543447,1.129694,1.802697,0.77152,6,WALK
1759223419.48071,1.755997,10.108319,9.662699,-1.171779,-0.595952,0.066405,6,WALK
1759223419.50027,0.371401,3.593846,8.093898,-2.202448,0.054136,-0.523164,6,WALK
1759223419.52089,5.548113,6.344485,6.636577,-2.909713,0.656475,0.24837,6,WALK
1759223419.54094,7.363816,9.271696,4.9135,-3.16288,0.266241,0.937893,6,WALK
1759223419.56095,4.79783,12.268338,-1.182586,-1.691803,-1.373212,0.343132,6,WALK
1759223419.58090,4.345775,12.256517,0.312443,-1.018538,-1.537829,-0.056299,6,WALK
1759223419.60075,3.987543,10.226533,3.195062,-1.593439,-0.438881,0.06054,6,WALK
1759223419.62089,1.338957,8.830265,-0.320075,-1.629694,0.327324,-0.136148,6,WALK
1759223419.64001,1.133505,8.970774,-0.694917,-1.640822,0.586036,-0.07177,6,WALK
1759223419.66089,2.914941,10.074801,1.023072,-1.792912,0.530432,0.375675,6,WALK
1759223419.68090,2.194435,9.491064,0.597503,-1.581806,0.437325,0.449708,6,WALK
1759223419.70094,1.410185,8.261642,-0.095319,-1.190882,0.128675,0.266286,6,WALK
1759223419.72090,0.865803,7.759458,0.274435,-1.135122,-0.051082,0.123461,6,WALK
1759223419.74089,1.211616,8.719084,0.938228,-1.273374,-0.209225,0.256241,6,WALK
1759223419.76088,0.944213,9.612271,0.764798,-1.182021,-0.40085,0.212471,6,WALK
1759223419.78090,1.476624,9.319879,0.617255,-1.061386,-0.46245,0.042032,6,WALK
1759223419.80088,2.331952,8.507197,0.585532,-1.176749,-0.383121,0.17349,6,WALK
1759223419.82013,3.122937,8.677934,-0.045639,-1.279999,-0.013725,0.333345,6,WALK
1759223419.84081,3.309984,9.471911,-0.320823,-1.285713,0.407217,0.475322,6,WALK
1759223419.86089,2.533365,10.736199,-1.171214,-1.326732,0.404427,0.626593,6,WALK
1759223419.88090,0.836325,10.577284,-3.739743,-1.347119,-0.435737,0.42347,6,WALK
1759223419.90089,0.515202,10.012402,-3.445256,-0.947486,-1.24252,0.301478,6,WALK
1759223419.92053,0.897377,11.164312,-0.514454,-0.247895,-0.851694,0.231159,6,WALK
1759223419.94089,1.13156,11.283573,0.939724,0.06372,0.103465,0.250688,6,WALK
1759223419.96089,1.674445,10.27337,0.560243,-0.133954,0.968623,0.222609,6,WALK
1759223419.98090,2.723554,10.386496,-0.420631,-0.501319,0.983347,0.283326,6,WALK
1759223420.00089,1.869423,11.856236,-0.828394,-0.241057,-0.252125,0.34707,6,WALK
1759223420.02089,-1.000178,16.428862,-0.108188,0.479359,-0.789524,-0.083384,6,WALK
1759223420.04087,-0.533308,14.771027,-2.540398,1.214152,0.226196,-0.446211,6,WALK
1759223420.06092,1.558476,12.12304,-6.095488,2.176842,0.502626,-0.569043,6,WALK
1759223420.08090,2.89055,10.393529,-2.721758,2.907668,-0.097369,-0.542972,6,WALK
1759223420.10101,3.784784,9.864859,0.017358,3.25938,0.122406,-0.56939,6,WALK
1759223420.12089,4.193295,12.122442,2.213888,3.184369,-0.086446,-0.662455,6,WALK
1759223420.14093,5.220257,13.143269,4.160823,2.62394,-0.361902,-0.710553,6,WALK
1759223420.16090,6.805518,14.200609,5.058798,1.881995,-0.869871,-0.674089,6,WALK
1759223420.18090,8.302044,14.205098,3.969886,1.417181,-1.659092,-0.506264,6,WALK
1759223420.20101,10.420314,12.552799,-2.28347,2.252944,-1.958118,-0.329422,6,WALK
1759223420.22089,4.039317,10.94225,-1.278504,2.760416,-0.825255,-0.979601,6,WALK
1759223420.24099,-0.736666,11.379042,-0.048782,3.045274,0.80023,-1.775002,6,WALK
1759223420.26094,-1.231817,11.231948,1.487996,3.110675,1.080528,-1.898221,6,WALK
1759223420.28091,1.345691,9.375993,1.735347,2.969568,1.151483,-1.221616,6,WALK
1759223420.30096,3.349638,7.073669,1.030105,2.77458,1.212359,-0.601412,6,WALK
1759223420.32010,4.160075,4.928614,1.216554,2.405615,1.315942,-0.482779,6,WALK
1759223420.34091,4.776582,2.84072,1.472135,1.749335,1.196812,-0.5816,6,WALK
1759223420.36092,5.25617,0.962319,1.803582,0.79257,0.743116,-0.469954,6,WALK
1759223420.38095,5.395034,0.836025,1.698088,-0.197627,0.346895,-0.089021,6,WALK
1759223420.40092,4.121319,0.54079,1.064372,-1.066221,0.060591,0.22453,6,WALK
1759223420.42057,3.343054,1.617882,0.914585,-1.848475,0.214061,0.447819,6,WALK
1759223420.44088,1.269675,2.778321,0.820014,-2.449893,0.829038,0.320646,6,WALK
1759223420.46092,-0.093224,4.67827,-0.802955,-2.670906,1.090935,0.215986,6,WALK
1759223420.48062,0.604386,9.361029,-7.871387,-1.617581,1.163125,0.592375,6,WALK
1759223420.50100,1.823185,21.375133,-28.337322,1.49238,2.745665,1.259152,6,WALK
1759223420.52087,1.334169,24.634988,-11.806557,0.257232,1.313322,0.620029,6,WALK
1759223420.54089,-1.356764,13.577817,-6.758532,-0.561104,-1.394451,-0.972464,6,WALK
1759223420.56090,3.990985,5.897218,-3.542221,-0.267467,-1.384395,-1.05793,6,WALK
1759223420.58092,10.755652,8.975413,1.530493,-0.242756,-0.493747,0.501795,6,WALK
1759223420.60093,7.624036,14.403966,-5.690868,0.701545,-1.454659,0.188772,6,WALK
1759223420.62089,1.281796,12.169428,-3.279458,0.438878,-1.26679,-0.766639,6,WALK
1759223420.64004,3.184737,3.240552,7.84954,-0.973321,-0.476874,-0.303118,6,WALK
1759223420.66090,0.799514,1.37487,5.958719,-1.932553,-0.024938,-0.232626,6,WALK
1759223420.68051,3.67899,4.892102,6.531232,-2.937949,0.548202,0.567561,6,WALK
1759223420.70092,6.715287,9.769839,5.489605,-3.212589,-0.013349,1.421664,6,WALK
1759223420.72090,6.121824,13.803321,2.751686,-2.13077,-1.040673,0.864044,6,WALK
1759223420.74040,3.618985,15.924583,-4.237288,-0.728197,-1.726189,-0.049349,6,WALK
1759223420.76091,4.363732,10.617985,1.240047,-0.336788,-0.530824,-0.534478,6,WALK
1759223420.78091,3.843292,8.541763,0.961721,-1.22014,1.142002,-0.068854,6,WALK
1759223420.80093,3.303699,6.655432,-0.139911,-1.739768,1.455958,0.312109,6,WALK
1759223420.82095,3.016395,9.452458,1.310077,-2.364265,0.418697,0.635638,6,WALK
1759223420.84083,1.713949,10.327688,1.779939,-2.204023,-0.566267,0.345474,6,WALK
1759223420.86091,1.769764,9.163807,1.556979,-1.727145,-0.829022,0.217342,6,WALK
1759223420.88091,0.74325,7.422773,0.038756,-1.266001,-0.792806,0.247174,6,WALK
1759223420.90096,0.055067,8.048857,0.056264,-1.276035,-0.355811,0.488863,6,WALK
1759223420.92090,0.254534,10.548254,0.876427,-1.244213,0.112011,0.532754,6,WALK
1759223420.94089,0.482731,9.851242,0.812383,-1.080396,0.107596,0.287878,6,WALK
1759223420.96094,1.58137,8.113501,0.328305,-1.041847,-0.035462,0.286137,6,WALK
1759223420.98095,3.032556,7.27134,-0.489165,-1.13363,0.047227,0.358523,6,WALK
1759223421.00099,4.352509,8.456021,-0.524929,-1.275818,0.050393,0.489115,6,WALK
1759223421.02091,2.892944,9.240421,-0.372298,-1.186522,-0.338129,0.629806,6,WALK
