SamplingTime,AccelerationX,AccelerationY,AccelerationZ,GyroX,GyroY,GyroZ,Durations,Subject,Activity
1759259125.69286,0.979079,6.353912,-2.330456,0.308324,-0.402175,0.352704,6.28,4,WALK
1759259125.71336,0.46657,5.481076,-1.547253,-0.006532,-0.105189,-0.158155,6.30,4,WALK
1759259125.73379,0.934786,5.385457,-1.981202,-0.107947,-0.068684,-0.478367,6.32,4,WALK
1759259125.75381,1.670853,5.532252,-3.033454,-0.439737,0.016172,-0.705881,6.34,4,WALK
1759259125.77381,2.501941,6.232556,-3.387795,-0.933817,0.269252,-0.781862,6.36,4,WALK
1759259125.79351,3.585616,7.63077,-4.188357,-1.287277,0.524826,-0.602689,6.38,4,WALK
1759259125.81387,4.770148,9.635764,-5.912182,-1.364734,0.864924,-0.301095,6.40,4,WALK
1759259125.83378,5.836465,11.118673,-6.273557,-1.040522,1.339016,0.019891,6.42,4,WALK
1759259125.85381,6.832902,11.224915,-4.952705,-0.651388,1.746882,0.242969,6.44,4,WALK
1759259125.87381,7.233482,10.20738,-3.679589,-0.535805,1.818091,0.28019,6.46,4,WALK
1759259125.89382,7.132177,8.197896,-3.448847,-0.485909,1.644043,0.238022,6.48,4,WALK
1759259125.91380,6.757485,5.957372,-3.988291,-0.440293,1.364736,0.110644,6.50,4,WALK
1759259125.93379,6.231059,4.693982,-3.052158,-0.479233,0.990096,-0.235682,6.52,4,WALK
1759259125.95381,4.360889,9.777171,-1.376816,-0.764249,0.136413,-0.472804,6.54,4,WALK
1759259125.97385,3.390489,14.44347,0.319476,-1.29794,-0.597296,-0.493028,6.56,4,WALK
1759259125.99320,3.062483,16.6198,2.533814,-1.138237,-1.584357,-0.827371,6.58,4,WALK
1759259126.01381,1.425298,15.993716,0.805948,-0.446763,-2.158326,-1.164353,6.60,4,WALK
1759259126.03379,0.437989,11.525836,0.642993,-0.430649,-2.182008,-0.992261,6.62,4,WALK
1759259126.05382,0.413748,6.911761,0.28895,-0.476883,-1.761489,-0.60459,6.64,4,WALK
1759259126.07345,0.570119,4.393959,0.550068,-0.103446,-1.168661,-0.533501,6.66,4,WALK
1759259126.09381,0.909946,3.66672,1.214459,0.160599,-0.987217,-0.569382,6.68,4,WALK
1759259126.11382,1.253664,5.621436,2.331952,0.168287,-1.431803,-0.391245,6.70,4,WALK
1759259126.13379,1.603666,9.032425,2.817526,-0.092093,-2.366253,0.088979,6.72,4,WALK
1759259126.15382,2.00275,11.691635,1.812261,-0.231117,-2.733691,0.520269,6.74,4,WALK
1759259126.17386,2.290503,12.883798,0.493505,-0.204018,-2.141539,0.638879,6.76,4,WALK
1759259126.19291,1.946037,11.734132,-0.781108,-0.219753,-0.680425,0.370353,6.78,4,WALK
1759259126.21382,1.526304,9.41026,-0.409857,-0.366849,0.806393,0.275659,6.80,4,WALK
1759259126.23337,1.317858,7.58932,0.061202,-0.576416,1.339283,0.301264,6.82,4,WALK
1759259126.25383,1.327286,6.955305,0.361824,-0.744623,1.439369,0.265888,6.84,4,WALK
1759259126.27381,1.557279,7.545476,0.467767,-0.885881,1.28734,0.186456,6.86,4,WALK
1759259126.29381,2.082058,8.757241,0.258424,-1.140706,1.006034,0.097376,6.88,4,WALK
1759259126.31368,2.589479,9.234286,-0.142305,-1.668354,0.78925,-0.087762,6.90,4,WALK
1759259126.33323,2.673725,9.956886,1.017536,-2.029529,0.406745,-0.235036,6.92,4,WALK
1759259126.35288,2.804957,10.205584,1.196951,-1.912801,-0.225762,-0.217196,6.94,4,WALK
1759259126.37389,2.836979,10.151864,-0.55321,-1.836556,-0.531786,-0.285073,6.96,4,WALK
1759259126.39381,2.45286,9.916484,-4.553921,-2.057171,0.156111,-0.307979,6.98,4,WALK
1759259126.41382,2.454655,9.510218,-5.030517,0.289876,1.906513,-0.26834,7.00,4,WALK
1759259126.43380,2.842366,9.149442,0.562188,0.738338,2.135341,-0.068928,7.02,4,WALK
1759259126.45382,3.324648,8.510938,2.187402,0.755916,1.199803,0.048169,7.04,4,WALK
1759259126.47380,3.84,8.684368,0.719009,0.784423,0.344907,-0.141927,7.06,4,WALK
1759259126.49381,3.752313,9.882516,1.113304,0.451032,-0.015745,-0.251122,7.08,4,WALK
1759259126.51282,3.610456,9.525331,1.372775,0.539218,-0.454462,-0.029222,7.10,4,WALK
1759259126.53379,3.816806,9.239972,0.007183,0.531946,-0.554931,0.088103,7.12,4,WALK
1759259126.55382,4.037372,9.479393,-0.228796,0.240943,-0.189164,0.118007,7.14,4,WALK
1759259126.57354,3.982455,9.335292,0.615609,0.259337,0.071643,0.170265,7.16,4,WALK
1759259126.59382,4.326472,10.38889,0.20231,0.485147,0.177002,0.197233,7.18,4,WALK
1759259126.61382,4.598663,10.926687,-0.602291,0.523728,0.615677,0.300591,7.20,4,WALK
1759259126.63382,3.921553,10.972327,-2.536657,2.239762,0.674299,0.335604,7.22,4,WALK
1759259126.65290,2.475754,10.976816,-2.253243,2.896559,0.75923,0.569429,7.24,4,WALK
1759259126.67382,1.914015,11.116877,1.625513,1.737636,-0.083343,1.23265,7.26,4,WALK
1759259126.69382,1.65155,12.6764,0.809539,1.814528,-1.5426,1.42305,7.28,4,WALK
1759259126.71349,1.68881,12.658892,0.576853,1.302961,-2.015608,1.268043,7.30,4,WALK
1759259126.73358,1.609801,12.486659,-1.725022,0.902761,-1.357219,0.852424,7.32,4,WALK
1759259126.75382,1.491887,11.425879,-2.483086,1.403529,0.102494,0.289014,7.34,4,WALK
1759259126.77382,1.11076,9.066393,-0.732775,2.083694,0.688134,0.08537,7.36,4,WALK
1759259126.79382,0.968305,7.514501,0.45834,1.905781,0.380197,0.062027,7.38,4,WALK
1759259126.81382,1.224933,7.383269,-0.84635,1.444788,-0.260823,0.241444,7.40,4,WALK
1759259126.83380,1.783531,7.62239,-2.662951,1.248316,-0.165461,0.518488,7.42,4,WALK
1759259126.85386,2.472163,7.621791,-1.892916,1.024657,0.306748,0.731073,7.44,4,WALK
1759259126.87359,3.174262,7.724143,-1.108066,0.770374,0.334311,1.019408,7.46,4,WALK
1759259126.89348,3.729268,7.501932,-0.876577,0.602891,0.083218,1.2045,7.48,4,WALK
1759259126.91383,3.574693,6.22238,-0.929549,0.456009,-0.361805,0.937879,7.50,4,WALK
1759259126.93380,2.394501,5.607968,-1.419462,0.257522,-0.475453,0.209604,7.52,4,WALK
1759259126.95382,0.996138,5.967847,-1.578677,-0.001304,-0.227239,-0.226131,7.54,4,WALK
1759259126.97343,0.129885,5.901857,-1.978359,-0.282244,-0.021624,-0.550308,7.56,4,WALK
1759259126.99383,0.584185,5.64029,-3.08029,-0.633238,0.154687,-0.747848,7.58,4,WALK
1759259127.01382,1.716343,5.79322,-3.751415,-1.082344,0.549731,-1.160372,7.60,4,WALK
1759259127.03314,2.965368,7.685687,-4.185513,-1.460916,1.084718,-1.315648,7.62,4,WALK
1759259127.05301,4.638018,10.126575,-4.85978,-1.542856,1.404586,-0.976379,7.64,4,WALK
1759259127.07382,6.064513,11.353304,-4.367922,-1.310987,1.271957,-0.313049,7.66,4,WALK
1759259127.09383,6.38773,10.971279,-4.035876,-1.098882,1.567481,0.152706,7.68,4,WALK
1759259127.11383,7.11871,9.328707,-4.729147,-0.557941,2.373504,0.191063,7.70,4,WALK
1759259127.13383,7.867646,8.109311,-5.896619,-0.079961,3.150334,0.201857,7.72,4,WALK
1759259127.15372,8.265083,5.675305,-6.057181,0.121176,3.606404,0.251406,7.74,4,WALK
1759259127.17292,8.10961,5.672762,0.048782,-0.016013,1.911391,-0.215479,7.76,4,WALK
1759259127.19382,4.863072,14.578892,0.977582,-0.78811,-0.858806,-0.765599,7.78,4,WALK
1759259127.21383,3.977368,17.749115,2.488024,-0.89369,-2.130707,-0.708929,7.80,4,WALK
1759259127.23381,2.468422,16.7437,0.360776,-0.230376,-2.646583,-0.753334,7.82,4,WALK
1759259127.25358,1.031003,11.931354,-0.311695,-0.276269,-1.774053,-0.590901,7.84,4,WALK
1759259127.27371,0.633266,6.699126,0.806996,0.023997,-0.864542,-0.469943,7.86,4,WALK
1759259127.29377,0.72275,4.388422,1.444601,0.457299,-0.600094,-0.465977,7.88,4,WALK
1759259127.31383,0.965163,3.913772,2.501791,0.592871,-1.008002,-0.472196,7.90,4,WALK
1759259127.33286,1.287033,5.39668,3.47279,0.424396,-2.041272,-0.285188,7.92,4,WALK
1759259127.35343,1.71365,8.681375,3.184737,0.089358,-3.014387,0.05131,7.94,4,WALK
1759259127.37357,2.025495,10.434679,1.984494,-0.393203,-3.56484,0.423203,7.96,4,WALK
1759259127.39383,2.107646,11.667992,-0.349404,-0.684639,-2.587672,0.350942,7.98,4,WALK
1759259127.41383,2.054973,11.386374,-1.112705,-0.681177,-0.833709,0.219277,8.00,4,WALK
1759259127.43381,1.625364,9.610176,-0.572065,-0.69584,0.695765,0.235392,8.02,4,WALK
1759259127.45329,1.420659,8.075642,0.050727,-0.845812,1.309903,0.345008,8.04,4,WALK
1759259127.47343,1.52346,7.266103,0.179565,-0.966126,1.463711,0.412502,8.06,4,WALK
1759259127.49383,1.995417,7.595305,0.175974,-1.035039,1.488404,0.337849,8.08,4,WALK
1759259127.51357,2.712331,8.714595,-0.147543,-1.15181,1.474434,0.122706,8.10,4,WALK
1759259127.53381,3.368342,9.367015,-1.775001,-1.603165,1.75027,-0.189776,8.12,4,WALK
1759259127.55314,3.587412,10.107571,0.148889,-2.447964,2.077511,-0.500665,8.14,4,WALK
1759259127.57325,3.775955,10.229526,1.828572,-2.418599,1.292889,-0.453443,8.16,4,WALK
1759259127.59383,3.999364,9.148394,-0.386514,-2.329111,0.455379,-0.527229,8.18,4,WALK
1759259127.61385,3.913622,9.066093,-12.612654,-0.233074,0.206135,-0.654229,8.20,4,WALK
1759259127.63380,3.710414,9.25748,1.697339,0.576145,0.547546,-0.317526,8.22,4,WALK
1759259127.65303,3.879804,8.433875,1.726519,1.045787,-0.228721,-0.040122,8.24,4,WALK
1759259127.67309,4.408473,8.639926,-0.612018,1.042804,-0.22293,-0.176806,8.26,4,WALK
1759259127.69383,4.572327,9.931148,0.86281,0.84679,0.104594,-0.292972,8.28,4,WALK
1759259127.71384,4.399495,10.067917,1.075445,0.841329,0.000226,-0.103996,8.30,4,WALK
1759259127.73331,4.247763,9.490915,0.502633,0.700194,-0.059681,0.09045,8.32,4,WALK
1759259127.75283,4.194941,9.502586,0.847847,0.44313,-0.012551,0.242339,8.34,4,WALK
1759259127.77297,4.320786,10.329185,1.196053,0.412277,-0.187595,0.363406,8.36,4,WALK
1759259127.79385,4.629638,11.622951,0.786046,0.402312,-0.298485,0.447486,8.38,4,WALK
1759259127.81384,4.440197,10.983101,0.904559,0.428735,-0.28058,0.404056,8.40,4,WALK
1759259127.83381,3.857807,10.670807,1.462408,0.485307,-0.466833,0.273162,8.42,4,WALK
1759259127.85384,2.495506,10.23207,0.412551,1.613796,-1.462217,0.485287,8.44,4,WALK
1759259127.87384,0.542586,10.66946,-5.436933,3.113609,-1.806018,0.627197,8.46,4,WALK
1759259127.89385,0.146495,10.771813,-3.747524,1.876981,-0.29386,1.29804,8.48,4,WALK
1759259127.91383,1.327286,10.799047,0.131681,1.17667,0.247541,1.018798,8.50,4,WALK
1759259127.93381,1.333421,10.989685,0.409857,0.969661,0.626176,0.313699,8.52,4,WALK
1759259127.95384,1.501464,11.235689,0.625336,1.122494,0.816123,-0.115895,8.54,4,WALK
1759259127.97383,1.762731,9.788693,0.850839,1.773696,0.38932,0.067337,8.56,4,WALK
1759259127.99383,2.34961,8.485799,1.581969,1.800713,-0.516405,0.250728,8.58,4,WALK
1759259128.01383,3.21227,8.460959,-0.295385,1.712357,-1.098201,0.620039,8.60,4,WALK
1759259128.03325,4.180725,7.64723,-2.93589,1.818223,-0.877517,1.035094,8.62,4,WALK
1759259128.05384,5.055506,6.272958,-4.015974,0.953791,0.310947,1.182819,8.64,4,WALK
1759259128.07363,5.536292,6.565948,-1.400009,0.296818,0.843363,1.329105,8.66,4,WALK
1759259128.09385,4.874295,6.819734,0.480486,0.222004,0.060776,1.098296,8.68,4,WALK
1759259128.11383,2.75827,7.173028,-0.509666,0.198566,-1.063093,0.691994,8.70,4,WALK
1759259128.13380,1.093552,6.582558,-1.70527,-0.119613,-1.222469,0.37511,8.72,4,WALK
1759259128.15383,0.172083,5.90859,-1.654094,-0.520528,-0.890193,-0.147665,8.74,4,WALK
1759259128.17382,-0.370652,5.645827,-1.612196,-0.751015,-0.488462,-0.669998,8.76,4,WALK
1759259128.19383,-0.360776,5.798308,-1.911171,-0.886023,-0.094438,-0.9168,8.78,4,WALK
1759259128.21382,1.213112,6.376058,-2.271798,-1.092946,0.367551,-1.047089,8.80,4,WALK
1759259128.23381,2.748693,8.801534,-2.435202,-1.098332,0.746456,-1.056138,8.82,4,WALK
1759259128.25384,4.765509,11.122114,-4.961684,-0.846277,0.754041,-0.743251,8.84,4,WALK
1759259128.27382,6.638074,11.593173,-7.904008,-0.979629,1.188237,-0.314392,8.86,4,WALK
1759259128.29383,7.025635,11.502044,-4.536114,-0.928425,2.06634,0.080245,8.88,4,WALK
1759259128.31294,7.718607,9.829395,-2.9317,-0.350884,2.319062,0.204332,8.90,4,WALK
1759259128.33380,8.020426,7.443274,-3.555539,0.001195,2.277463,0.137536,8.92,4,WALK
1759259128.35385,7.806295,5.696853,-3.324798,-0.016334,1.892085,-0.094471,8.94,4,WALK
1759259128.37301,6.903082,9.607033,-1.652448,-0.382895,0.848005,-0.46728,8.96,4,WALK
1759259128.39383,5.135563,14.806641,0.060154,-1.005875,-0.722364,-0.501333,8.98,4,WALK
1759259128.41383,3.317765,15.565304,1.366042,-0.703093,-2.221624,-0.506204,9.00,4,WALK
1759259128.43380,1.996615,12.898013,-0.462231,-0.573232,-2.177242,-0.524956,9.02,4,WALK
1759259128.45381,1.231069,8.633342,-0.19408,-0.478786,-1.31222,-0.391559,9.04,4,WALK
1759259128.47380,0.803255,4.533271,0.728885,-0.021472,-1.141399,-0.496775,9.06,4,WALK
1759259128.49380,0.762404,3.614945,0.948403,0.459096,-0.987117,-0.632635,9.08,4,WALK
1759259128.51380,0.953491,5.082441,1.669507,0.672346,-1.114288,-0.634653,9.10,4,WALK
1759259128.53330,1.295862,6.826916,2.131288,0.651334,-1.320148,-0.5398,9.12,4,WALK
1759259128.55322,2.032827,10.733056,2.371457,0.44195,-1.851866,-0.199293,9.14,4,WALK
1759259128.57360,2.786851,13.319243,1.355717,-0.134473,-2.090595,0.449243,9.16,4,WALK
1759259128.59380,2.706944,11.533169,-0.74729,-0.477224,-1.107026,0.315447,9.18,4,WALK
1759259128.61382,2.512116,9.334244,-0.535254,-0.619363,0.055118,0.069124,9.20,4,WALK
1759259128.63379,2.123358,8.099285,-0.341473,-0.85977,0.539269,0.069648,9.22,4,WALK
1759259128.65380,1.891419,6.959795,-0.301669,-1.102974,0.772914,0.15028,9.24,4,WALK
1759259128.67382,2.161814,6.527043,-0.496348,-1.33472,0.933876,0.081818,9.26,4,WALK
1759259128.69380,2.845958,7.409007,-1.053299,-1.729486,1.277916,-0.144592,9.28,4,WALK
1759259128.71380,3.376722,9.162011,0.35494,-1.999354,1.477651,-0.267856,9.30,4,WALK
1759259128.73328,3.900304,9.662848,0.611868,-1.973422,1.124319,-0.226871,9.32,4,WALK
1759259128.75386,4.229657,9.492411,-0.218471,-2.096995,0.920582,-0.355872,9.34,4,WALK
1759259128.77381,3.692607,9.932046,0.190638,-2.196319,0.737296,-0.410477,9.36,4,WALK
1759259128.79381,2.141164,10.220548,-7.475446,-0.815028,0.575493,-0.396122,9.38,4,WALK
1759259128.81381,2.920028,9.729287,0.502633,-0.376231,0.50864,-0.285123,9.40,4,WALK
1759259128.83379,3.640683,8.480562,1.923292,0.169749,-0.533464,-0.102291,9.42,4,WALK
1759259128.85382,4.05084,8.434324,-0.44607,0.489868,-0.660386,-0.147662,9.44,4,WALK
1759259128.87380,4.579809,9.571569,0.538845,0.531508,-0.245624,-0.247358,9.46,4,WALK
1759259128.89379,4.891953,10.143634,0.433949,0.734586,-0.176579,-0.203351,9.48,4,WALK
1759259128.91383,4.511274,10.21546,0.804901,0.70937,0.020207,-0.074856,9.50,4,WALK
1759259128.93378,3.984999,9.479841,1.397166,0.776968,-0.216038,0.162256,9.52,4,WALK
1759259128.95381,3.507505,9.323021,0.679355,0.729543,-0.488853,0.371069,9.54,4,WALK
1759259128.97372,3.424457,8.911518,0.570269,0.553096,-0.459179,0.444908,9.56,4,WALK
1759259128.99379,3.589656,9.767445,0.713771,0.597754,-0.373125,0.40112,9.58,4,WALK
1759259129.01379,4.067898,11.326519,0.425569,0.609153,-0.248361,0.533356,9.60,4,WALK
1759259129.03377,4.048146,10.419715,0.650175,0.576519,-0.07353,0.485236,9.62,4,WALK
1759259129.05380,3.201796,9.697863,0.25199,0.630894,-0.292013,0.29535,9.64,4,WALK
1759259129.07359,0.839168,10.092159,-6.146514,3.385663,-1.000904,0.366336,9.66,4,WALK
1759259129.09381,0.618452,9.711181,-2.097919,2.233828,0.200704,1.279672,9.68,4,WALK
1759259129.11380,2.181417,11.23928,1.265635,1.464448,-0.184236,1.34276,9.70,4,WALK
1759259129.13377,2.814534,11.855787,2.223465,0.784424,-0.542562,0.88339,9.72,4,WALK
1759259129.15383,2.83249,12.605771,-0.624288,0.547878,-0.414165,0.355411,9.74,4,WALK
1759259129.17347,2.867206,12.068722,-1.345242,1.911272,0.29503,0.280744,9.76,4,WALK
1759259129.19378,2.901473,9.474006,0.060154,2.3109,0.243785,0.3304,9.78,4,WALK
1759259129.21381,3.662979,7.034164,-4.060716,1.474755,0.070394,0.315897,9.80,4,WALK
1759259129.23301,4.044256,6.521506,-3.7782,0.978165,0.865031,0.654183,9.82,4,WALK
1759259129.25382,4.172794,6.258593,0.331447,0.705741,0.512796,0.890463,9.84,4,WALK
1759259129.27335,4.745457,6.459257,0.402076,0.534121,-0.798103,1.081974,9.86,4,WALK
1759259129.29380,4.796184,6.593332,-1.140987,0.542872,-1.490997,1.137881,9.88,4,WALK
1759259129.31383,3.589507,6.669947,-1.694646,0.275842,-1.41672,0.787033,9.90,4,WALK
1759259129.33376,1.826327,6.343737,-1.718588,-0.091334,-1.057717,0.392457,9.92,4,WALK
1759259129.35380,0.570568,5.929689,-1.507449,-0.255396,-0.683716,-0.115788,9.94,4,WALK
1759259129.37321,-0.21877,5.993285,-1.608754,-0.323477,-0.331762,-0.609818,9.96,4,WALK
1759259129.39381,-0.530615,6.352116,-2.171541,-0.447649,-0.00435,-0.845941,9.98,4,WALK
1759259129.41280,0.399981,6.18123,-2.272247,-0.66444,0.383899,-0.961414,10.00,4,WALK
1759259129.43376,1.858499,7.406164,-2.274791,-0.964341,0.462359,-1.242549,10.02,4,WALK
1759259129.45372,3.664475,9.281272,-4.514567,-1.230171,0.666662,-1.08256,10.04,4,WALK
1759259129.47306,5.41329,10.587309,-7.404069,-1.290488,1.335649,-0.638077,10.06,4,WALK
1759259129.49293,6.754641,12.005425,-5.214422,-0.704996,1.706494,-0.032024,10.08,4,WALK
1759259129.51377,7.518242,10.575787,-2.593369,-0.131233,1.665256,0.36596,10.10,4,WALK
1759259129.53374,8.303241,8.795549,-4.904073,-0.054617,1.862831,0.13342,10.12,4,WALK
1759259129.55358,8.614637,7.50268,-4.76506,-0.250165,2.42083,0.05443,10.14,4,WALK
1759259129.57292,8.51827,5.135563,-3.725378,-0.311381,1.978449,0.03835,10.16,4,WALK
1759259129.59364,7.96102,4.237587,-1.181389,-0.428621,0.527726,-0.381816,10.18,4,WALK
1759259129.61377,6.202778,9.983222,-0.851288,-1.275772,-0.665544,-0.844781,10.20,4,WALK
1759259129.63374,4.679766,15.59553,3.348141,-2.041517,-1.266212,-0.664729,10.22,4,WALK
1759259129.65341,3.204789,15.567099,2.467674,-1.281248,-2.323244,-0.455086,10.24,4,WALK
1759259129.67276,1.344943,13.152248,-0.504279,-0.915183,-2.411717,-0.472423,10.26,4,WALK
1759259129.69377,0.317531,8.791957,-0.209493,-1.0788,-1.510851,-0.490154,10.28,4,WALK
1759259129.71376,-0.09098,5.330241,0.454749,-0.630718,-0.895848,-0.678055,10.30,4,WALK
1759259129.73375,-0.051475,4.288165,0.943465,-0.150505,-0.571687,-0.8121,10.32,4,WALK
1759259129.75341,0.440832,5.902006,1.94499,0.127644,-0.830433,-0.593137,10.34,4,WALK
1759259129.77378,0.929998,8.726117,2.50628,0.251891,-1.638323,-0.09071,10.36,4,WALK
1759259129.79378,1.423203,11.05358,2.162712,0.291024,-2.361911,0.334145,10.38,4,WALK
1759259129.81382,1.874061,11.676521,1.01155,0.253902,-2.296196,0.359968,10.40,4,WALK
1759259129.83375,2.435202,10.663026,0.07437,0.033926,-1.60112,0.070767,10.42,4,WALK
1759259129.85326,2.457199,9.204658,-0.393547,-0.269515,-0.70606,-0.253194,10.44,4,WALK
1759259129.87378,2.26282,8.144027,-0.23523,-0.529724,0.087044,-0.260355,10.46,4,WALK
1759259129.89378,2.223465,7.470508,-0.038756,-0.814992,0.487862,-0.10904,10.48,4,WALK
1759259129.91377,2.587085,7.458387,0.051625,-1.116264,0.647234,0.0108,10.50,4,WALK
1759259129.93298,3.032556,8.069208,-0.015413,-1.360554,0.719744,0.060976,10.52,4,WALK
1759259129.95310,3.438971,8.803928,-0.329502,-1.505249,0.888521,0.016777,10.54,4,WALK
1759259129.97377,3.973477,9.293543,-0.555604,-1.591407,1.234262,-0.116168,10.56,4,WALK
1759259129.99377,4.277241,9.706393,-0.831237,-1.736439,1.680591,-0.316711,10.58,4,WALK
1759259130.01377,3.933524,10.322002,-0.276081,-1.854994,2.003044,-0.273196,10.60,4,WALK
1759259130.03282,3.623624,9.622446,-0.076764,-1.854475,2.002623,-0.056679,10.62,4,WALK
1759259130.05296,2.840271,8.820089,-6.729203,-1.278247,1.957648,-0.052676,10.64,4,WALK
1759259130.07377,3.632004,9.156924,-1.502062,0.761828,2.452492,-0.326944,10.66,4,WALK
1759259130.09377,4.332308,9.78196,4.035577,1.010181,0.976112,0.021071,10.68,4,WALK
1759259130.11378,5.017349,8.855104,0.322768,1.106162,-0.228943,0.098222,10.70,4,WALK
1759259130.13374,4.861576,9.855432,2.193687,0.597503,-0.525639,-0.102071,10.72,4,WALK
1759259130.15279,3.952228,9.726444,1.395071,0.657952,-1.232396,0.238033,10.74,4,WALK
1759259130.17376,3.576189,9.00968,-0.038008,0.502992,-1.170218,0.513139,10.76,4,WALK
1759259130.19376,3.686771,9.054721,0.71033,0.562419,-0.876261,0.484029,10.78,4,WALK
1759259130.21374,4.038869,10.84289,0.604237,0.829154,-0.674746,0.511933,10.80,4,WALK
1759259130.23373,4.337396,11.158177,0.788441,0.998924,-0.454761,0.633877,10.82,4,WALK
1759259130.25375,4.134038,11.413459,-0.442179,1.24612,-0.528291,0.600266,10.84,4,WALK
1759259130.27376,2.757073,12.250681,-3.209128,3.097718,-0.768852,0.883752,10.86,4,WALK
1759259130.29375,2.079215,11.856386,-2.098218,1.760599,0.364887,1.583118,10.88,4,WALK
1759259130.31377,2.178724,11.758972,0.262015,1.61055,0.582088,1.359645,10.90,4,WALK
1759259130.33312,2.210596,11.805659,1.285387,1.251325,0.440288,0.786486,10.92,4,WALK
1759259130.35374,1.946037,12.33792,-0.52852,1.50745,0.439433,0.337139,10.94,4,WALK
1759259130.37376,1.433528,10.180445,-0.462979,2.226023,0.366584,0.178097,10.96,4,WALK
1759259130.39375,1.500566,7.432649,-0.546028,2.13666,0.010126,0.080042,10.98,4,WALK
1759259130.41374,2.504185,6.902932,-2.143409,1.20618,-0.307546,0.11701,11.00,4,WALK
1759259130.43372,3.258209,8.015787,-1.884386,1.032593,-0.154657,0.734104,11.02,4,WALK
1759259130.45374,3.917213,8.035839,-0.120907,0.939116,-0.248269,1.165364,11.04,4,WALK
1759259130.47282,4.832995,7.781006,-0.590769,0.692542,-0.658247,1.378689,11.06,4,WALK
1759259130.49377,5.013009,6.553379,-1.342997,0.55983,-0.661184,1.232828,11.08,4,WALK
1759259130.51374,3.831321,5.666327,-0.702848,0.343271,-0.586062,0.844471,11.10,4,WALK
1759259130.53372,1.993771,5.405658,-1.013047,0.050413,-0.668725,0.482557,11.12,4,WALK
1759259130.55344,0.619799,5.255572,-1.463755,-0.251949,-0.57403,-0.02463,11.14,4,WALK
1759259130.57374,-0.236278,5.483021,-1.742979,-0.547493,-0.285529,-0.582299,11.16,4,WALK
1759259130.59377,-0.585981,5.804592,-2.265364,-0.817726,0.080605,-0.930433,11.18,4,WALK
1759259130.61381,0.354043,5.699098,-2.354398,-1.059288,0.434293,-1.101722,11.20,4,WALK
1759259130.63371,2.019359,7.064391,-2.238728,-1.138728,0.822943,-1.412942,11.22,4,WALK
1759259130.65326,3.838953,9.388263,-3.615394,-1.071208,1.006013,-1.38835,11.24,4,WALK
1759259130.67373,6.374861,10.833763,-7.128735,-1.191014,1.301706,-1.058064,11.26,4,WALK
1759259130.69373,7.335684,12.006173,-2.991854,-1.165689,1.637057,-0.404553,11.28,4,WALK
1759259130.71372,8.022371,11.104158,-1.646163,-0.637636,1.181581,-0.090377,11.30,4,WALK
1759259130.73371,8.905383,9.403526,-6.049848,-0.268823,1.652737,0.024183,11.32,4,WALK
1759259130.75373,8.826224,6.86672,-6.720374,-0.121523,3.083968,0.083619,11.34,4,WALK
1759259130.77373,8.994417,4.811148,-2.508226,0.17501,3.040612,-0.004893,11.36,4,WALK
1759259130.79373,8.446444,8.593239,-0.500987,-0.255902,0.731896,-0.496119,11.38,4,WALK
1759259130.81372,5.915474,16.114474,3.330783,-1.245962,-1.12104,-0.689117,11.40,4,WALK
1759259130.83371,3.555689,16.589274,1.901445,-1.032042,-2.688391,-0.405832,11.42,4,WALK
1759259130.85375,1.893365,12.586767,-0.576853,-0.897167,-2.615298,-0.333749,11.44,4,WALK
1759259130.87373,0.84665,7.399729,0.603189,-0.737005,-1.781023,-0.396957,11.46,4,WALK
1759259130.89375,0.280421,4.638018,0.890793,-0.057537,-1.297751,-0.595824,11.48,4,WALK
1759259130.91372,0.199018,4.19928,1.291971,0.313059,-1.149369,-0.724551,11.50,4,WALK
1759259130.93370,0.675614,6.178986,2.348562,0.372965,-1.46934,-0.530193,11.52,4,WALK
1759259130.95290,1.27985,9.256732,2.870947,0.276394,-2.256015,-0.148217,11.54,4,WALK
1759259130.97372,1.571494,11.497256,1.962048,0.12518,-2.664136,0.206396,11.56,4,WALK
1759259130.99371,1.646313,11.775881,0.816273,-0.242714,-1.672225,0.357755,11.58,4,WALK
1759259131.01372,1.623119,10.442311,-0.447267,-0.331265,-0.923946,0.274088,11.60,4,WALK
1759259131.03370,1.706767,9.371653,-0.220566,-0.346378,0.632289,0.127512,11.62,4,WALK
1759259131.05336,1.881693,7.94022,0.496797,-0.391439,1.271019,0.156956,11.64,4,WALK
1759259131.07372,2.065747,7.201759,0.704344,-0.533158,1.2489,0.167784,11.66,4,WALK
1759259131.09372,2.410662,7.092673,0.743699,-0.704377,0.994621,0.105694,11.68,4,WALK
1759259131.11358,3.002778,7.851036,0.413748,-1.144552,0.533983,-0.084559,11.70,4,WALK
1759259131.13368,3.821894,8.644415,-1.821539,-1.508573,0.599398,-0.203129,11.72,4,WALK
1759259131.15371,4.143316,9.817574,-0.386364,-2.566405,1.301022,-0.480087,11.74,4,WALK
1759259131.17288,4.257639,10.218902,2.031779,-2.564456,0.825654,-0.458885,11.76,4,WALK
1759259131.19284,4.600907,9.523536,-0.49141,-2.288756,0.166911,-0.534831,11.78,4,WALK
1759259131.21372,4.299687,9.751134,-2.220921,-2.695355,0.613264,-0.734108,11.80,4,WALK
1759259131.23320,3.762787,9.190592,-9.737817,0.215379,1.309136,-0.592481,11.82,4,WALK
1759259131.25371,4.020463,9.570671,3.194912,0.465968,1.42896,-0.173514,11.84,4,WALK
1759259131.27372,4.819678,8.72492,1.857452,0.943744,0.103648,0.134448,11.86,4,WALK
1759259131.29371,5.466711,9.00579,0.509516,0.636006,-0.013806,-0.086307,11.88,4,WALK
1759259131.31372,5.412841,9.807997,1.981501,0.589737,-0.683178,-0.080394,11.90,4,WALK
1759259131.33319,4.849755,9.606884,1.196951,0.520789,-0.851281,0.069532,11.92,4,WALK
1759259131.35369,4.326472,9.085696,0.768988,0.385262,-0.992131,0.364784,11.94,4,WALK
1759259131.37369,3.864241,9.230396,0.645387,0.392601,-0.918295,0.55789,11.96,4,WALK
1759259131.39373,4.027197,10.104429,0.508169,0.554641,-0.778525,0.578177,11.98,4,WALK
1759259131.41371,4.199879,10.656891,0.513407,0.675582,-0.512378,0.595753,12.00,4,WALK
1759259131.43276,4.010138,9.795726,1.296011,0.877228,-0.452289,0.485102,12.02,4,WALK
1759259131.45353,2.945018,11.288212,-1.726818,1.960748,-0.977336,0.409998,12.04,4,WALK
1759259131.47369,1.145027,12.444162,-3.972729,2.356851,-0.619129,1.210573,12.06,4,WALK
1759259131.49369,1.669507,12.309339,-0.406266,1.574572,0.189352,1.285279,12.08,4,WALK
1759259131.51369,2.101062,11.335048,1.384896,1.287946,0.197653,0.864481,12.10,4,WALK
1759259131.53279,1.946336,11.438598,0.345513,1.138792,0.215578,0.612964,12.12,4,WALK
1759259131.55335,1.695843,10.680833,-0.274136,2.09867,0.508442,0.197029,12.14,4,WALK
1759259131.57369,1.696142,8.541464,0.419135,2.177782,0.010925,0.108575,12.16,4,WALK
1759259131.59369,2.374749,7.342268,-1.395221,1.573959,-0.677686,0.150304,12.18,4,WALK
1759259131.61370,3.178003,7.331494,-3.244293,1.153457,-0.529435,0.475877,12.20,4,WALK
1759259131.63284,3.405602,7.269844,-2.234239,1.082207,-0.303886,0.649328,12.22,4,WALK
1759259131.65318,4.556615,7.152528,-0.688632,0.668486,-0.486106,1.05155,12.24,4,WALK
1759259131.67273,4.891055,7.039851,-1.065869,0.58888,-0.525911,1.224836,12.26,4,WALK
1759259131.69370,3.882946,6.055983,-1.157746,0.425367,-0.340911,0.890229,12.28,4,WALK
1759259131.71370,1.99452,6.288221,-1.361403,0.092336,-0.246317,0.433125,12.30,4,WALK
1759259131.73368,0.80939,5.939565,-1.424999,-0.243079,-0.209291,-0.020643,12.32,4,WALK
1759259131.75297,-0.00015,5.682638,-1.813159,-0.465184,-0.161758,-0.504438,12.34,4,WALK
1759259131.77370,-0.287454,5.787085,-2.368763,-0.662337,0.080747,-0.801333,12.36,4,WALK
1759259131.79369,0.988057,5.158756,-2.498349,-0.86471,0.428563,-1.046652,12.38,4,WALK
1759259131.81357,2.339434,6.583157,-2.40707,-1.050556,0.803826,-1.387172,12.40,4,WALK
1759259131.83367,4.143765,9.200618,-3.879804,-1.219982,0.98604,-1.336607,12.42,4,WALK
1759259131.85277,6.683414,11.438149,-7.127239,-1.20997,1.247631,-0.82651,12.44,4,WALK
1759259131.87322,7.717859,11.922526,-4.25285,-0.997888,1.527253,-0.010866,12.46,4,WALK
1759259131.89370,8.17171,9.897779,-2.642899,-0.42535,1.524641,0.110962,12.48,4,WALK
1759259131.91328,8.359505,9.413851,-5.995231,-0.103469,2.069157,-0.037477,12.50,4,WALK
1759259131.93341,8.527248,7.363068,-6.312612,-0.106676,3.059602,0.034681,12.52,4,WALK
1759259131.95369,8.101679,4.533271,-3.629909,-0.166489,2.470219,-0.063543,12.54,4,WALK
1759259131.97369,7.091176,5.335329,0.369605,-0.203329,0.272705,-0.508795,12.56,4,WALK
1759259131.99351,5.098752,13.061567,1.306785,-1.433441,-1.254492,-0.721313,12.58,4,WALK
1759259132.01313,4.728399,16.060155,4.137929,-1.638544,-1.941816,-0.442026,12.60,4,WALK
1759259132.03326,2.883966,14.639047,1.71784,-0.946261,-2.437394,-0.446188,12.62,4,WALK
1759259132.05369,1.044171,11.160421,-0.490662,-0.76921,-2.060921,-0.529908,12.64,4,WALK
1759259132.07369,0.250344,7.164948,0.125546,-0.56513,-1.166705,-0.57608,12.66,4,WALK
1759259132.09370,0.163704,4.900033,0.63192,-0.078709,-0.730159,-0.607806,12.68,4,WALK
1759259132.11299,0.607529,5.320964,1.483956,0.247907,-0.769047,-0.482438,12.70,4,WALK
1759259132.13311,1.106869,7.431153,2.240524,0.381233,-1.305459,-0.160822,12.72,4,WALK
1759259132.15369,1.543961,10.07106,2.447173,0.321265,-1.986033,0.136794,12.74,4,WALK
1759259132.17369,1.871817,11.486931,1.348983,0.156114,-2.171049,0.294521,12.76,4,WALK
1759259132.19369,2.215684,10.827478,0.510264,-0.125956,-1.699074,0.260163,12.78,4,WALK
1759259132.21284,2.307561,9.566931,-0.009427,-0.349994,-0.989953,0.115531,12.80,4,WALK
1759259132.23296,2.175282,8.242488,-0.129736,-0.491572,-0.35872,0.022724,12.82,4,WALK
1759259132.25371,2.018162,7.433847,-0.395043,-0.705406,0.100992,0.03746,12.84,4,WALK
1759259132.27366,2.109142,6.894403,-0.522385,-0.965866,0.509186,0.087068,12.86,4,WALK
1759259132.29369,2.620154,7.293636,-0.492906,-1.27192,0.819337,0.056193,12.88,4,WALK
1759259132.31269,3.243694,8.341997,-0.519542,-1.563004,1.109632,-0.068768,12.90,4,WALK
1759259132.33282,3.790919,9.429414,-0.229993,-1.723413,1.414087,-0.205727,12.92,4,WALK
1759259132.35368,4.31914,9.761759,-0.441281,-1.78332,1.658269,-0.345268,12.94,4,WALK
1759259132.37369,4.703858,9.710732,-0.743699,-1.991254,1.995142,-0.589593,12.96,4,WALK
1759259132.39371,4.462942,10.099042,0.50772,-2.141396,2.038935,-0.598591,12.98,4,WALK
1759259132.41368,4.19928,8.764274,-3.164536,-1.85801,1.519272,-0.473419,13.00,4,WALK
1759259132.43265,4.423736,8.689156,-3.55524,0.338294,1.745015,-0.555834,13.02,4,WALK
1759259132.45324,4.806061,10.434529,4.135684,0.622901,0.362537,-0.080444,13.04,4,WALK
1759259132.47300,5.393239,9.305663,0.298527,0.682148,-0.749759,0.129681,13.06,4,WALK
1759259132.49368,5.23178,9.371653,1.526603,0.485946,-0.72937,-0.082512,13.08,4,WALK
1759259132.51367,4.539257,9.410559,0.97863,0.654847,-0.913073,0.05803,13.10,4,WALK
1759259132.53329,3.950582,9.109638,0.398485,0.527138,-0.762678,0.389512,13.12,4,WALK
1759259132.55367,3.808427,9.062203,1.136498,0.601262,-0.681536,0.55833,13.14,4,WALK
1759259132.57367,3.968689,10.447099,0.596755,0.839362,-0.61037,0.717936,13.16,4,WALK
1759259132.59368,3.64996,10.951827,-1.379359,1.333804,-0.406961,0.846346,13.18,4,WALK
1759259132.61367,2.868254,11.87105,-1.561618,3.37097,-0.49907,0.804199,13.20,4,WALK
1759259132.63314,1.838897,12.431742,-1.851466,2.629697,0.114141,1.118208,13.22,4,WALK
1759259132.65368,2.179621,13.164667,-0.256479,1.931395,-0.263108,1.26048,13.24,4,WALK
1759259132.67368,2.319233,12.942456,0.685191,1.796915,-0.297777,1.137121,13.26,4,WALK
1759259132.69371,2.19683,12.577639,-0.881365,1.422957,-0.030578,0.775062,13.28,4,WALK
1759259132.71368,2.299331,12.173169,-1.614739,2.108148,0.502915,0.461022,13.30,4,WALK
1759259132.73365,1.562067,9.376592,-0.735469,2.564115,0.370532,0.192435,13.32,4,WALK
1759259132.75369,1.636736,6.869413,-1.102081,1.795021,-0.133269,-0.035069,13.34,4,WALK
1759259132.77365,2.313248,6.62296,-1.413477,1.226871,-0.733644,0.037046,13.36,4,WALK
1759259132.79366,2.584092,7.003638,-1.224933,1.308663,-0.865445,0.515863,13.38,4,WALK
1759259132.81368,3.699939,7.408109,-1.033248,1.099795,-0.561044,0.981735,13.40,4,WALK
1759259132.83365,4.716128,7.000945,-1.479018,0.790291,-0.423084,1.400447,13.42,4,WALK
1759259132.85368,4.601356,5.560683,-0.990601,0.581116,-0.398068,1.313823,13.44,4,WALK
1759259132.87368,3.355923,4.854693,-0.924311,0.297507,-0.556901,0.72857,13.46,4,WALK
1759259132.89367,1.600673,5.181501,-1.71784,-0.098036,-0.508465,0.288061,13.48,4,WALK
1759259132.91367,0.497994,5.196315,-1.977012,-0.51749,-0.18053,-0.111389,13.50,4,WALK
1759259132.93365,-0.126743,5.278466,-2.020257,-0.82128,0.061427,-0.490239,13.52,4,WALK
1759259132.95367,0.744297,4.40997,-2.732832,-1.074271,0.236433,-0.834064,13.54,4,WALK
1759259132.97368,2.075773,4.807108,-2.953397,-1.42664,0.633223,-1.404637,13.56,4,WALK
1759259132.99368,3.564966,7.351845,-3.34066,-1.676498,1.170205,-1.598276,13.58,4,WALK
1759259133.01368,5.397129,10.315567,-5.73965,-1.682684,1.689494,-1.28186,13.60,4,WALK
1759259133.03364,7.514202,12.888736,-7.430854,-1.207525,2.142512,-0.620857,13.62,4,WALK
1759259133.05366,7.788637,12.925846,-3.709815,-0.582497,2.12018,0.11221,13.64,4,WALK
1759259133.07367,8.385242,10.184335,-4.428974,-0.211297,2.115479,0.183436,13.66,4,WALK
1759259133.09365,8.580519,8.158541,-6.046556,-0.279225,2.522648,0.029622,13.68,4,WALK
1759259133.11367,8.117391,5.806238,-3.924396,-0.147243,2.348102,0.063028,13.70,4,WALK
1759259133.13364,7.579294,9.692626,-2.104054,-0.226783,1.312017,-0.323764,13.72,4,WALK
1759259133.15367,5.165939,15.650896,3.353379,-1.017592,0.036293,-0.501768,13.74,4,WALK
1759259133.17364,3.272724,15.971719,2.821567,-0.909824,-1.645099,-0.696149,13.76,4,WALK
1759259133.19367,1.682076,12.796709,1.473781,-0.59119,-2.170237,-1.017401,13.78,4,WALK
1759259133.21367,0.353294,8.343045,0.956334,-0.382387,-1.966335,-1.071799,13.80,4,WALK
1759259133.23364,-0.212785,5.438429,0.626832,-0.101068,-1.682178,-0.95544,13.82,4,WALK
1759259133.25366,-0.366163,4.149451,0.563535,0.226453,-1.156778,-0.839923,13.84,4,WALK
1759259133.27366,-0.282366,5.118654,1.227328,0.457732,-0.572429,-0.539075,13.86,4,WALK
1759259133.29365,0.209193,8.279149,2.145354,0.465447,-0.353886,-0.032005,13.88,4,WALK
1759259133.31367,0.823007,11.291504,2.455254,0.296106,-0.280595,0.284864,13.90,4,WALK
1759259133.33363,1.555184,12.051962,3.355025,-0.12113,-0.345397,0.361037,13.92,4,WALK
1759259133.35366,1.755099,10.655843,1.384597,-0.448523,-0.18845,0.03779,13.94,4,WALK
1759259133.37366,1.745972,8.974665,0.943615,-0.509281,0.29607,-0.22675,13.96,4,WALK
1759259133.39366,1.865382,7.796269,0.753276,-0.617791,0.315152,-0.155042,13.98,4,WALK
1759259133.41366,2.214936,7.40751,0.465971,-0.755846,0.179595,-0.060585,14.00,4,WALK
1759259133.43351,2.827851,7.699154,-0.361375,-0.965367,0.133124,-0.085085,14.02,4,WALK
1759259133.45366,3.996222,7.501932,-4.654029,-1.930217,1.126866,-0.318461,14.04,4,WALK
1759259133.47366,4.351761,9.542839,1.294365,-2.750292,2.047794,-0.565255,14.06,4,WALK
1759259133.49364,4.807108,10.088867,2.555511,-2.137712,1.103985,-0.492399,14.08,4,WALK
1759259133.51365,5.668422,9.56708,-3.134459,-1.932946,0.963526,-0.614723,14.10,4,WALK
1759259133.53339,5.008071,10.440216,-9.538499,-1.076571,3.056807,-0.850891,14.12,4,WALK
1759259133.55366,4.241478,9.975591,1.429638,-0.137151,3.278919,-0.558612,14.14,4,WALK
1759259133.57366,4.311059,7.646781,4.568735,-0.111736,0.608735,-0.034855,14.16,4,WALK
1759259133.59365,4.273201,6.647651,1.690306,0.323319,-1.479959,0.023828,14.18,4,WALK
1759259133.61366,5.044583,8.614188,-0.080804,0.288941,-1.607517,-0.135884,14.20,4,WALK
1759259133.63325,5.112818,10.673351,0.154127,0.315256,-1.317281,-0.039577,14.22,4,WALK
1759259133.65366,4.487332,10.450092,0.472855,0.403837,-0.920867,0.260264,14.24,4,WALK
1759259133.67366,3.656096,9.068787,0.616208,0.674997,-0.695615,0.37507,14.26,4,WALK
1759259133.69366,3.359663,9.042002,0.04534,0.771947,-0.370506,0.545709,14.28,4,WALK
1759259133.71365,3.919458,8.976909,0.893636,0.907734,-0.130435,0.663302,14.30,4,WALK
1759259133.73310,4.292804,10.274567,0.752677,1.14368,-0.089516,0.697204,14.32,4,WALK
1759259133.75364,4.110096,10.336966,0.19004,1.277971,-0.064112,0.759169,14.34,4,WALK
1759259133.77365,2.87798,11.403283,-2.622848,3.162166,-0.248379,0.695211,14.36,4,WALK
1759259133.79362,1.949179,12.044031,-2.05228,2.527169,0.271447,1.277878,14.38,4,WALK
1759259133.81364,3.040486,13.351415,0.448614,1.479404,-0.357143,1.794047,14.40,4,WALK
1759259133.83296,3.277662,12.542175,2.048838,1.223604,-1.384996,1.62771,14.42,4,WALK
1759259133.85364,3.31163,13.647398,-1.793257,1.140811,-1.321703,0.963438,14.44,4,WALK
1759259133.87271,2.804209,13.33271,-3.519327,2.116323,-0.149336,0.534343,14.46,4,WALK
1759259133.89265,2.304419,9.416694,-2.913594,2.01944,0.619982,0.340555,14.48,4,WALK
1759259133.91362,2.718915,7.384167,0.010026,1.332804,0.178916,0.186828,14.50,4,WALK
1759259133.93283,2.892645,6.749254,0.389058,1.250154,-1.093119,0.370784,14.52,4,WALK
1759259133.95363,2.386421,6.397307,0.112378,1.369541,-1.477134,0.634816,14.54,4,WALK
1759259133.97315,3.388544,6.585102,-0.338331,1.199209,-1.410494,0.906379,14.56,4,WALK
1759259133.99335,3.220052,6.470031,-1.404349,0.938109,-1.175102,0.948789,14.58,4,WALK
1759259134.01348,2.580201,6.446837,-0.943315,0.672641,-0.857198,0.685348,14.60,4,WALK
1759259134.03267,1.606509,6.372168,-0.802806,0.343593,-0.719451,0.44659,14.62,4,WALK
1759259134.05364,0.679654,5.956175,-0.975787,0.033164,-0.438994,0.112378,14.64,4,WALK
1759259134.07363,-0.011372,5.654955,-1.202189,-0.284105,-0.122228,-0.350762,14.66,4,WALK
1759259134.09364,-0.364068,5.687276,-2.585439,-0.941479,0.41995,-0.718351,14.68,4,WALK
1759259134.11332,0.634613,4.803367,-3.185635,-1.203133,0.66677,-0.917219,14.70,4,WALK
1759259134.13299,1.815403,5.64852,-2.722955,-1.679666,1.144068,-1.36715,14.72,4,WALK
1759259134.15292,3.393332,8.139089,-2.802862,-1.986499,1.541051,-1.428164,14.74,4,WALK
1759259134.17363,5.734712,11.079019,-5.971438,-1.715086,1.544571,-1.029166,14.76,4,WALK
1759259134.19364,8.120085,13.245172,-8.189516,-0.941623,1.833484,-0.300756,14.78,4,WALK
1759259134.21320,8.592341,11.859528,-3.712808,-0.26818,2.343475,0.311155,14.80,4,WALK
1759259134.23362,9.525481,9.630227,-4.335301,0.09439,2.487911,0.342893,14.82,4,WALK
1759259134.25327,9.540295,6.521506,-3.996371,-0.221172,2.579517,0.361557,14.84,4,WALK
1759259134.27293,8.320749,2.588431,-2.559551,-0.18518,1.952507,0.152453,14.86,4,WALK
1759259134.29363,7.526622,5.093215,-1.509245,-0.501773,0.781586,-0.840493,14.88,4,WALK
1759259134.31303,5.330091,15.092149,1.574487,-1.88325,-0.179592,-1.011031,14.90,4,WALK
1759259134.33361,4.340538,17.25127,4.235792,-1.339993,-1.983286,-0.739745,14.92,4,WALK
1759259134.35365,2.0644,14.808586,0.358532,-0.439075,-3.177322,-0.697328,14.94,4,WALK
1759259134.37363,0.831835,10.335619,0.09921,-0.35983,-2.3299,-0.623181,14.96,4,WALK
1759259134.39363,0.196175,7.049876,0.807893,0.323983,-1.233177,-0.678838,14.98,4,WALK
1759259134.41286,0.224756,6.23091,1.522563,0.633975,-0.84941,-0.523187,15.00,4,WALK
1759259134.43360,0.54902,6.806566,2.110788,0.618605,-1.068128,-0.113972,15.02,4,WALK
1759259134.45361,1.078887,8.643068,1.60606,0.292522,-1.59675,0.529543,15.04,4,WALK
1759259134.47361,1.517924,9.435998,0.841712,0.215191,-0.960351,0.590286,15.06,4,WALK
1759259134.49361,1.849371,9.740061,0.812233,-0.038691,-0.043198,0.418409,15.08,4,WALK
1759259134.51272,1.80463,9.617807,0.351499,-0.191912,0.450428,0.294788,15.10,4,WALK
1759259134.53359,1.768118,8.554333,0.660201,-0.683799,1.470069,0.087032,15.12,4,WALK
1759259134.55361,1.951723,7.600393,0.88765,-0.99736,1.312455,0.059828,15.14,4,WALK
1759259134.57361,2.407968,7.350798,0.85892,-1.192285,0.9115,-0.061343,15.16,4,WALK
1759259134.59361,3.263447,7.693917,-0.756119,-1.547354,0.519763,-0.293686,15.18,4,WALK
1759259134.61368,3.995025,8.659977,-0.834978,-2.795177,0.832099,-0.734256,15.20,4,WALK
1759259134.63310,4.318541,10.010307,2.461539,-2.976597,0.182411,-0.771472,15.22,4,WALK
1759259134.65362,4.984877,9.587132,0.049081,-2.528465,-0.682847,-0.824646,15.24,4,WALK
1759259134.67362,5.760898,10.062081,-7.826496,-2.568833,-0.088684,-1.122438,15.26,4,WALK
1759259134.69362,5.354033,10.127772,-4.956895,0.062873,1.37811,-0.896315,15.28,4,WALK
1759259134.71362,4.213196,8.957906,3.414281,0.543082,0.786029,-0.189466,15.30,4,WALK
1759259134.73359,4.602553,7.338976,1.005565,0.926574,-0.2677,0.032989,15.32,4,WALK
1759259134.75362,5.24824,8.286182,0.516399,0.616984,-0.179331,-0.189927,15.34,4,WALK
1759259134.77362,5.487361,9.479841,1.480664,0.613554,-0.347644,-0.152613,15.36,4,WALK
1759259134.79361,5.412242,9.402329,1.057938,0.626757,-0.514281,0.030417,15.38,4,WALK
1759259134.81365,5.306748,9.386468,0.611868,0.548861,-0.493164,0.160533,15.40,4,WALK
1759259134.83359,5.065383,10.341156,1.001076,0.47612,-0.382289,0.36524,15.42,4,WALK
1759259134.85361,5.026477,11.025897,1.062128,0.56506,-0.438391,0.766943,15.44,4,WALK
1759259134.87362,4.767454,10.17431,1.553089,0.740804,-0.598779,0.915911,15.46,4,WALK
1759259134.89361,4.114585,10.456975,0.724246,1.052611,-1.057242,0.83614,15.48,4,WALK
1759259134.91347,2.006191,13.158233,-4.386626,3.283682,-1.90665,0.879421,15.50,4,WALK
1759259134.93310,1.371279,13.620314,-4.253898,2.066537,-0.453172,1.596405,15.52,4,WALK
1759259134.95362,2.209549,12.979566,0.354791,1.630929,-0.017685,1.278028,15.54,4,WALK
1759259134.97362,1.732355,11.881675,0.574159,1.445038,0.064722,0.703335,15.56,4,WALK
1759259134.99363,1.356615,11.444733,-1.081132,1.658532,0.386322,0.097031,15.58,4,WALK
1759259135.01361,1.132906,10.156652,-0.450858,2.467591,0.322389,-0.031727,15.60,4,WALK
1759259135.03329,1.441459,7.177966,-0.473304,2.374558,-0.132334,-0.049283,15.62,4,WALK
1759259135.05361,2.396596,6.194847,-2.129044,1.326593,-0.455079,-0.060233,15.64,4,WALK
1759259135.07361,3.46426,7.571812,-1.841141,1.089633,-0.661738,0.585699,15.66,4,WALK
1759259135.09361,4.176834,7.62658,-0.389207,0.999094,-1.052517,1.341216,15.68,4,WALK
1759259135.11361,5.036502,6.870162,-1.162535,0.739895,-1.371719,1.689704,15.70,4,WALK
1759259135.13358,5.166388,5.263353,-2.123208,0.53448,-1.100503,1.363436,15.72,4,WALK
1759259135.15324,3.908085,5.211578,-1.492336,0.217841,-0.605919,0.627733,15.74,4,WALK
1759259135.17359,2.100014,5.669769,-1.121683,-0.178461,-0.411184,0.319684,15.76,4,WALK
1759259135.19361,0.736516,5.364059,-0.903811,-0.469586,-0.338344,-0.127823,15.78,4,WALK
1759259135.21297,-0.156072,5.533,-1.127819,-0.729338,-0.277007,-0.648116,15.80,4,WALK
1759259135.23358,-0.518794,5.864298,-2.038214,-1.000955,-0.122228,-0.9825,15.82,4,WALK
1759259135.25362,-0.20231,6.2764,-2.628983,-1.308146,0.233351,-1.109715,15.84,4,WALK
1759259135.27361,1.315015,6.918195,-2.874538,-1.644222,0.805663,-1.175177,15.86,4,WALK
1759259135.29361,3.156605,8.82802,-4.306121,-1.85026,1.504365,-1.004193,15.88,4,WALK
1759259135.31295,5.670068,11.75134,-6.652888,-1.465289,1.909019,-0.531338,15.90,4,WALK
1759259135.33358,7.248595,12.976573,-3.833715,-0.808869,1.608503,0.257736,15.92,4,WALK
1759259135.35360,8.156147,11.094581,-1.992275,-0.421161,1.424192,0.402151,15.94,4,WALK
1759259135.37360,9.636512,9.899725,-7.189937,-0.101955,2.111921,0.228349,15.96,4,WALK
1759259135.39367,10.196755,7.800758,-7.080552,0.057736,3.709897,0.492283,15.98,4,WALK
1759259135.41270,9.657761,3.717148,-2.123507,0.075869,3.009516,0.309856,16.00,4,WALK
1759259135.43358,7.42427,7.858368,0.055665,-0.469055,0.11582,-0.662315,16.02,4,WALK
1759259135.45360,5.029769,14.980221,3.587711,-1.389287,-1.287233,-0.712855,16.04,4,WALK
1759259135.47360,4.156184,15.169512,3.303549,-1.097543,-2.209291,-0.56593,16.06,4,WALK
1759259135.49360,2.213439,12.569409,0.296133,-0.687331,-2.337678,-0.73659,16.08,4,WALK
1759259135.51266,0.420332,8.461558,0.130035,-0.547183,-1.33835,-0.985545,16.10,4,WALK
1759259135.53359,-0.116268,5.738452,0.692373,-0.100228,-0.702016,-1.047215,16.12,4,WALK
1759259135.55360,-0.12375,5.163694,1.225382,0.229021,-0.546078,-0.82064,16.14,4,WALK
1759259135.57360,0.161459,6.646304,2.099416,0.329381,-0.870737,-0.326604,16.16,4,WALK
1759259135.59359,0.798915,9.22875,2.724452,0.186873,-1.609699,0.165538,16.18,4,WALK
1759259135.61360,1.534085,11.033678,2.021903,-0.015186,-2.086494,0.403116,16.20,4,WALK
1759259135.63357,1.934665,10.552145,0.806247,-0.159385,-1.825512,0.286507,16.22,4,WALK
1759259135.65361,2.076222,9.411906,0.080804,-0.369067,-1.061795,-0.074147,16.24,4,WALK
1759259135.67361,2.158672,8.74153,-0.027084,-0.592823,-0.263094,-0.195504,16.26,4,WALK
1759259135.69361,2.434005,8.160337,0.111779,-0.782448,0.139244,-0.085195,16.28,4,WALK
1759259135.71356,2.664597,7.375039,0.001047,-0.97859,0.272872,0.050454,16.30,4,WALK
1759259135.73358,3.041684,7.054814,-0.646434,-1.23555,0.434625,0.054381,16.32,4,WALK
1759259135.75362,3.67884,7.430255,-2.007837,-1.751752,1.106887,-0.152351,16.34,4,WALK
1759259135.77360,4.24866,9.062951,0.407164,-2.091988,1.657322,-0.369785,16.36,4,WALK
1759259135.79361,4.782119,9.909301,0.587178,-1.915537,1.374897,-0.423597,16.38,4,WALK
1759259135.81342,5.019294,9.761908,-1.236904,-2.083986,1.55212,-0.491431,16.40,4,WALK
1759259135.83357,4.458452,9.677064,0.758812,-2.215661,1.699923,-0.442341,16.42,4,WALK
1759259135.85359,3.1587,8.339004,-8.980052,-0.392045,1.190667,-0.338568,16.44,4,WALK
1759259135.87360,4.139126,9.413702,2.513164,0.406489,1.090904,-0.160982,16.46,4,WALK
1759259135.89360,4.882825,9.395596,2.236783,0.920147,-0.345983,0.316082,16.48,4,WALK
1759259135.91326,5.496488,9.271546,-0.333393,0.71444,-0.301812,0.189175,16.50,4,WALK
1759259135.93357,5.080945,10.010905,1.392378,0.763784,-0.188271,-0.016557,16.52,4,WALK
1759259135.95359,4.643105,8.827122,0.919074,0.896012,-0.231453,0.116592,16.54,4,WALK
1759259135.97359,4.535665,8.539369,0.670376,0.89657,-0.176254,0.177939,16.56,4,WALK
1759259135.99359,4.591929,9.301025,1.304092,0.830868,-0.135854,0.285002,16.58,4,WALK
1759259136.01313,5.223549,10.587758,1.623418,0.818259,-0.401415,0.48737,16.60,4,WALK
1759259136.03356,5.544672,11.480646,1.284639,0.775652,-0.634608,0.659224,16.62,4,WALK
1759259136.05359,4.948516,11.027394,1.674744,0.756601,-0.918906,0.710968,16.64,4,WALK
1759259136.07290,3.588759,11.362731,0.155623,0.67173,-1.29327,0.855127,16.66,4,WALK
1759259136.09359,0.350451,12.406753,-7.806594,3.201887,-1.802213,0.819386,16.68,4,WALK
1759259136.11299,0.510863,11.963227,-2.75019,2.05445,-0.521248,1.210414,16.70,4,WALK
1759259136.13356,1.929128,11.764658,0.60693,1.411091,-0.236982,0.718679,16.72,4,WALK
1759259136.15359,1.955763,11.825261,-0.608576,1.153026,0.622285,0.237067,16.74,4,WALK
1759259136.17350,1.6517,11.591378,-0.68953,1.672627,1.397303,0.052772,16.76,4,WALK
1759259136.19359,1.271321,9.175479,0.65257,2.218574,1.230606,0.148762,16.78,4,WALK
1759259136.21287,1.671302,7.031022,2.354248,1.896929,0.151817,0.165953,16.80,4,WALK
1759259136.23356,2.705149,6.532729,-0.046986,1.483437,-1.436047,0.289769,16.82,4,WALK
1759259136.25360,4.015076,6.711546,-5.875221,1.167247,-1.244956,0.518765,16.84,4,WALK
1759259136.27332,4.491522,7.249044,-3.58427,0.623052,0.363262,0.89067,16.86,4,WALK
1759259136.29349,4.858583,7.051223,-0.051775,0.30894,0.578447,1.183542,16.88,4,WALK
1759259136.31273,4.6039,6.210858,0.547524,0.256851,-0.406575,1.047498,16.90,4,WALK
1759259136.33357,2.742408,5.716156,-1.014393,0.144748,-1.11061,0.566123,16.92,4,WALK
1759259136.35357,1.010203,5.314828,-1.955315,-0.205911,-0.896159,0.134635,16.94,4,WALK
1759259136.37321,0.079906,5.188983,-1.548151,-0.528025,-0.330099,-0.383347,16.96,4,WALK
1759259136.39334,-0.264859,5.509357,-1.287033,-0.633075,0.016872,-0.814541,16.98,4,WALK
1759259136.41260,0.1034,6.0696,-2.050933,-0.729129,0.201205,-0.919275,17.00,4,WALK
1759259136.43356,1.672649,6.593182,-3.248782,-1.064823,0.638145,-1.086383,17.02,4,WALK
1759259136.45359,3.450494,8.950573,-4.732738,-1.357368,1.256238,-1.089642,17.04,4,WALK
1759259136.47305,5.884648,11.428123,-5.997774,-1.248403,1.507177,-0.583678,17.06,4,WALK
1759259136.49318,7.11856,11.644349,-4.34383,-1.189161,1.430881,0.166952,17.08,4,WALK
1759259136.51359,7.79971,10.613945,-2.189198,-0.580865,1.585355,0.333464,17.10,4,WALK
1759259136.53356,9.346215,9.954342,-6.217592,0.030175,2.059527,0.079276,17.12,4,WALK
1759259136.55359,10.011803,8.355315,-8.061876,0.208438,3.514525,0.218095,17.14,4,WALK
1759259136.57290,9.359832,4.368819,-3.206135,0.199827,3.363343,0.261412,17.16,4,WALK
1759259136.59304,7.723994,5.887791,0.944064,-0.004326,0.338343,-0.592698,17.18,4,WALK
1759259136.61359,4.879533,14.512902,3.463662,-1.273181,-1.530684,-0.777587,17.20,4,WALK
1759259136.63355,4.406229,15.460108,3.799149,-1.305289,-2.711803,-0.601081,17.22,4,WALK
1759259136.65359,2.684648,14.136264,1.16867,-0.795543,-2.912129,-0.833365,17.24,4,WALK
1759259136.67275,0.942418,10.336217,0.589722,-0.704454,-2.44173,-1.12744,17.26,4,WALK
1759259136.69289,0.207996,6.861932,0.605434,-0.465364,-1.993765,-1.170452,17.28,4,WALK
1759259136.71358,-0.105943,5.473295,0.495001,-0.062802,-1.464299,-0.975378,17.30,4,WALK
1759259136.73343,-0.101754,5.544073,0.928052,0.28083,-1.030256,-0.587826,17.32,4,WALK
1759259136.75358,-0.017807,7.357531,1.798494,0.436029,-0.842443,-0.045984,17.34,4,WALK
1759259136.77256,0.541987,9.861118,1.82109,0.355098,-0.630071,0.354174,17.36,4,WALK
1759259136.79272,0.99928,11.294646,1.493832,0.230623,0.117896,0.502409,17.38,4,WALK
1759259136.81358,1.449988,10.932823,1.650802,-0.130451,0.833223,0.38111,17.40,4,WALK
1759259136.83355,1.215806,9.355493,1.284788,-0.45971,1.410537,0.048709,17.42,4,WALK
1759259136.85362,1.373524,7.938873,1.31711,-0.629957,1.437132,-0.015672,17.44,4,WALK
1759259136.87254,1.700033,7.164948,1.317709,-0.645176,1.135095,0.042191,17.46,4,WALK
1759259136.89271,2.117522,7.212981,1.137994,-0.582593,0.726112,0.070373,17.48,4,WALK
1759259136.91357,2.806304,8.084022,0.542736,-0.593211,0.364049,-0.006491,17.50,4,WALK
1759259136.93355,4.420444,7.732673,-6.464195,-1.531658,1.115123,-0.33607,17.52,4,WALK
1759259136.95355,4.846014,10.189273,2.070835,-2.985942,2.374327,-0.890262,17.54,4,WALK
1759259136.97319,5.25213,10.162488,3.264195,-2.26108,0.995502,-0.936736,17.56,4,WALK
1759259136.99336,6.179584,9.210045,-4.381988,-2.256145,0.878752,-1.134268,17.58,4,WALK
1759259137.01358,6.734291,10.075698,-9.056517,-0.552419,2.38861,-1.022683,17.60,4,WALK
1759259137.03354,5.246145,9.225458,3.481917,0.392353,1.823664,-0.306498,17.62,4,WALK
1759259137.05357,5.321412,7.887697,3.033902,0.808951,-0.244656,0.119313,17.64,4,WALK
1759259137.07356,5.880459,8.397513,0.304812,0.612221,-0.812921,0.053001,17.66,4,WALK
1759259137.09356,5.56622,9.998485,1.350928,0.480008,-0.976766,-0.008336,17.68,4,WALK
1759259137.11360,4.742315,9.799916,0.954239,0.496088,-1.05141,0.289468,17.70,4,WALK
1759259137.13254,4.132392,9.094974,0.727089,0.62495,-0.999711,0.45296,17.72,4,WALK
1759259137.15293,3.878008,8.769811,0.191237,0.726534,-0.705053,0.655973,17.74,4,WALK
1759259137.17357,4.415806,8.899846,0.347907,0.946385,-0.311968,0.659261,17.76,4,WALK
1759259137.19355,4.679916,10.25272,0.456245,1.1246,0.032305,0.703055,17.78,4,WALK
1759259137.21271,4.284424,9.581296,1.741931,1.211973,-0.080859,0.720284,17.80,4,WALK
1759259137.23257,3.478176,11.345224,-1.141885,1.63578,-0.802565,0.726328,17.82,4,WALK
1759259137.25357,2.050484,14.779407,-5.408651,2.974174,-0.944503,1.268433,17.84,4,WALK
1759259137.27356,2.8904,14.08434,0.480337,1.230393,-0.612061,2.107448,17.86,4,WALK
1759259137.29291,3.403058,13.179033,1.36679,0.855832,-1.472247,1.520175,17.88,4,WALK
1759259137.31357,3.031359,12.884097,-1.035193,1.066524,-1.290672,0.617112,17.90,4,WALK
1759259137.33354,2.004994,12.100594,-1.817199,1.945541,-0.290735,-0.060686,17.92,4,WALK
1759259137.35357,1.117494,9.054721,-0.428562,2.243877,-0.024626,-0.310642,17.94,4,WALK
1759259137.37335,0.914884,6.802077,-0.959027,1.602877,-0.318311,-0.150245,17.96,4,WALK
1759259137.39276,1.92823,5.932532,-1.404499,1.148078,-0.602285,0.344078,17.98,4,WALK
1759259137.41355,3.068768,6.681169,-0.221763,0.954732,-0.725959,1.171143,18.00,4,WALK
1759259137.43353,3.481169,6.685359,-0.366163,0.850364,-0.833589,1.446389,18.02,4,WALK
1759259137.45354,4.679018,5.766584,-0.659303,0.572977,-0.977517,1.542845,18.04,4,WALK
1759259137.47353,3.945046,4.792294,-0.798466,0.304667,-1.194866,0.915549,18.06,4,WALK
1759259137.49261,2.839224,4.894796,-1.235258,0.141892,-1.145543,0.605835,18.08,4,WALK
1759259137.51324,0.953341,5.253926,-1.814206,-0.506172,-0.353587,-0.075388,18.10,4,WALK
1759259137.53353,-0.473902,5.26455,-2.096124,-0.845252,0.159497,-0.568601,18.12,4,WALK
1759259137.55354,-0.521936,5.268441,-2.613421,-1.095166,0.502719,-0.890129,18.14,4,WALK
1759259137.57354,1.10268,5.192275,-2.665046,-1.335266,0.893834,-1.210439,18.16,4,WALK
1759259137.59354,3.10917,7.534553,-3.078195,-1.375983,1.216567,-1.392017,18.18,4,WALK
1759259137.61355,5.585224,10.27741,-5.7603,-1.274703,1.28005,-1.045724,18.20,4,WALK
1759259137.63353,7.348104,11.920281,-5.818808,-1.243865,1.63542,-0.336129,18.22,4,WALK
1759259137.65354,8.058284,11.862371,-2.041655,-1.027005,1.754738,0.076572,18.24,4,WALK
1759259137.67330,8.67539,10.65734,-4.28622,-0.551892,1.649613,0.087663,18.26,4,WALK
1759259137.69326,9.025093,8.507945,-7.097461,-0.279753,2.664507,0.111051,18.28,4,WALK
1759259137.71361,8.503905,5.414786,-5.187786,-0.044661,3.221733,0.004476,18.30,4,WALK
1759259137.73353,8.46051,5.298219,-0.092326,0.121172,1.83414,-0.482734,18.32,4,WALK
1759259137.75355,6.117933,13.886968,1.324442,-1.045343,-0.180758,-0.810411,18.34,4,WALK
1759259137.77355,5.156213,16.922367,4.788852,-1.414805,-1.607277,-0.509409,18.36,4,WALK
1759259137.79357,3.058892,15.275605,0.991349,-0.719675,-2.579107,-0.562891,18.38,4,WALK
1759259137.81357,1.520168,10.854562,-0.026785,-0.79603,-2.042086,-0.571231,18.40,4,WALK
1759259137.83353,0.575357,7.070975,0.786046,-0.257698,-1.249691,-0.679681,18.42,4,WALK
1759259137.85356,0.217274,5.054309,0.836474,0.328391,-0.855024,-0.690173,18.44,4,WALK
1759259137.87355,0.226102,4.828057,1.393126,0.658053,-0.794226,-0.554651,18.46,4,WALK
1759259137.89355,0.361973,6.428282,2.165106,0.697775,-1.119392,-0.174588,18.48,4,WALK
1759259137.91355,0.880318,9.173084,2.273743,0.521561,-1.541432,0.273838,18.50,4,WALK
1759259137.93352,1.326238,10.917709,1.228525,0.325572,-1.288153,0.55267,18.52,4,WALK
1759259137.95355,1.765275,11.229105,1.09415,0.012198,-0.267617,0.440769,18.54,4,WALK
1759259137.97355,1.737891,10.474183,0.766593,-0.442469,0.697266,0.05966,18.56,4,WALK
1759259137.99355,1.669656,8.928876,0.963517,-0.689398,1.262783,-0.065413,18.58,4,WALK
1759259138.01355,1.82079,7.759608,1.206678,-0.848236,1.205159,0.00472,18.60,4,WALK
1759259138.03352,2.179322,7.176171,1.187823,-0.863982,0.882831,0.031627,18.62,4,WALK
1759259138.05355,2.714127,7.360075,1.117943,-0.78366,0.493409,-0.050447,18.64,4,WALK
1759259138.07355,3.574244,8.085369,-0.260968,-0.836213,0.162956,-0.210428,18.66,4,WALK
1759259138.09353,4.869208,7.997831,-4.890456,-2.179943,1.398782,-0.68016,18.68,4,WALK
1759259138.11355,4.802769,10.394576,2.690783,-2.828132,1.77888,-0.912249,18.70,4,WALK
1759259138.13352,5.303007,10.18658,0.754772,-2.173287,0.629341,-0.765022,18.72,4,WALK
1759259138.15355,5.455039,9.575161,-2.211494,-2.780121,1.466242,-0.978524,18.74,4,WALK
1759259138.17352,5.287295,9.337536,-9.930999,-1.323187,1.280752,-0.754033,18.76,4,WALK
1759259138.19337,4.938789,9.391855,2.374749,0.661414,1.395035,-0.268784,18.78,4,WALK
1759259138.21355,5.15711,8.656386,2.91524,1.157042,-0.36487,0.32202,18.80,4,WALK
1759259138.23352,5.54108,8.39871,-0.279523,0.894432,-0.456339,0.175451,18.82,4,WALK
1759259138.25355,5.090372,9.439589,1.954417,0.914494,-0.500444,0.073113,18.84,4,WALK
1759259138.27354,4.473865,9.648333,0.65257,0.954012,-0.636179,0.370736,18.86,4,WALK
1759259138.29323,4.01762,9.512313,0.292392,0.731395,-0.35644,0.693114,18.88,4,WALK
1759259138.31355,3.956568,9.049184,0.773926,0.766681,-0.12874,0.72219,18.90,4,WALK
1759259138.33352,4.119374,9.973945,0.509366,0.929548,0.058901,0.645145,18.92,4,WALK
1759259138.35357,4.175637,9.775825,1.228375,1.065049,0.154814,0.636126,18.94,4,WALK
1759259138.37354,4.246566,10.4878,0.66065,1.326004,-0.299947,0.574677,18.96,4,WALK
1759259138.39307,3.229628,13.594277,-4.043507,3.501693,-1.475661,0.876821,18.98,4,WALK
1759259138.41353,2.402432,13.179631,-2.979434,1.94926,0.170675,1.720364,19.00,4,WALK
1759259138.43352,3.453636,13.102418,1.116745,1.002084,0.077542,1.448264,19.02,4,WALK
1759259138.45356,3.114407,12.513445,1.068562,1.128355,-0.160542,0.713404,19.04,4,WALK
1759259138.47355,2.612673,12.377723,-0.667833,1.824147,-0.227211,0.089256,19.06,4,WALK
1759259138.49293,1.779939,9.969156,-0.404321,2.528833,-0.28239,-0.093953,19.08,4,WALK
1759259138.51359,1.801337,7.01935,-1.714099,2.121858,-0.566895,-0.18995,19.10,4,WALK
1759259138.53351,2.368165,6.251709,-1.95307,1.168246,-0.655095,-0.136092,19.12,4,WALK
1759259138.55355,2.934842,7.177966,-1.218499,1.153435,-0.841563,0.378137,19.14,4,WALK
1759259138.57351,3.25806,7.287351,-0.153827,1.229057,-0.838932,0.938765,19.16,4,WALK
1759259138.59276,3.990087,6.827066,0.139163,1.050117,-0.521171,1.287186,19.18,4,WALK
1759259138.61352,4.143166,5.790826,-0.815525,0.791067,-0.597046,1.086233,19.20,4,WALK
1759259138.63351,3.029563,5.514295,-1.28823,0.539556,-0.576477,0.605305,19.22,4,WALK
1759259138.65361,1.431284,5.779752,-1.764826,0.08686,-0.444264,0.261617,19.24,4,WALK
1759259138.67337,0.431704,5.731868,-1.473182,-0.36152,-0.203769,-0.187006,19.26,4,WALK
1759259138.69263,-0.072574,5.910835,-1.463905,-0.698049,-0.041654,-0.63098,19.28,4,WALK
1759259138.71354,0.137816,5.702839,-2.212542,-0.95279,0.141834,-0.829535,19.30,4,WALK
1759259138.73351,1.521216,5.400122,-2.667141,-1.233693,0.609702,-1.224882,19.32,4,WALK
1759259138.75356,3.127127,7.355287,-4.050989,-1.570061,1.320499,-1.47881,19.34,4,WALK
1759259138.77324,5.375581,9.949853,-7.075913,-1.727112,2.268011,-1.234462,19.36,4,WALK
1759259138.79353,7.82889,12.593501,-6.35451,-1.046197,2.439901,-0.470565,19.38,4,WALK
1759259138.81357,8.093299,11.960683,-1.355567,-0.534386,1.682745,0.280484,19.40,4,WALK
1759259138.83276,9.164106,10.097396,-4.754585,-0.265077,1.397643,0.113169,19.42,4,WALK
1759259138.85353,9.871593,8.455572,-7.660398,-0.385871,2.62814,0.141058,19.44,4,WALK
1759259138.87309,9.109788,4.848558,-4.106954,-0.156725,3.138316,0.35356,19.46,4,WALK
1759259138.89358,8.549395,2.844012,-0.560243,0.351811,2.220731,-0.062386,19.48,4,WALK
1759259138.91355,6.322488,11.498453,1.207127,-1.134645,0.691725,-1.130508,19.50,4,WALK
1759259138.93351,4.840328,16.794427,5.781548,-1.469331,-1.534635,-0.763523,19.52,4,WALK
1759259138.95289,3.000683,14.963311,2.76231,-0.738454,-3.143046,-0.540419,19.54,4,WALK
1759259138.97294,1.597381,12.103737,0.901118,-0.529766,-3.010932,-0.617914,19.56,4,WALK
1759259138.99353,0.290447,8.689306,0.678307,-0.142207,-2.337877,-0.891769,19.58,4,WALK
1759259139.01355,-0.10729,6.344784,0.554707,0.150795,-1.840371,-0.908666,19.60,4,WALK
1759259139.03350,-0.295235,5.577143,0.481085,0.385257,-1.403787,-0.668233,19.62,4,WALK
1759259139.05294,-0.19827,6.26802,1.225083,0.462726,-1.056355,-0.233605,19.64,4,WALK
1759259139.07277,0.461033,8.256704,1.912219,0.306484,-1.002858,0.205441,19.66,4,WALK
1759259139.09353,0.976535,10.193613,1.499818,0.053766,-0.90548,0.426552,19.68,4,WALK
1759259139.11353,1.788918,10.981604,1.456423,-0.17754,-0.280095,0.34423,19.70,4,WALK
1759259139.13350,2.151789,10.147076,1.567454,-0.415899,0.313408,0.030394,19.72,4,WALK
1759259139.15354,1.925986,8.680627,1.084424,-0.582036,0.632894,-0.165514,19.74,4,WALK
1759259139.17262,2.013224,7.508665,0.699406,-0.791742,0.598541,-0.061808,19.76,4,WALK
1759259139.19353,2.186056,7.038803,0.562488,-0.965025,0.451735,0.016867,19.78,4,WALK
1759259139.21353,2.735525,7.746739,0.461183,-1.095101,0.294315,-0.009565,19.80,4,WALK
1759259139.23274,3.661632,8.570643,-1.260398,-1.40373,0.291561,-0.157937,19.82,4,WALK
1759259139.25353,4.621108,9.223063,-2.461239,-2.511364,1.296269,-0.568826,19.84,4,WALK
1759259139.27353,4.712687,10.572944,1.85401,-2.830866,1.411455,-0.772379,19.86,4,WALK
1759259139.29353,5.139004,10.126276,-0.008529,-2.427784,0.780859,-0.752482,19.88,4,WALK
1759259139.31356,5.303606,9.508572,-2.03986,-2.710333,1.353042,-0.891699,19.90,4,WALK
1759259139.33350,6.138135,8.358457,-10.835109,0.55589,1.985475,-0.721696,19.92,4,WALK
1759259139.35353,4.623353,9.439589,4.747403,0.800254,1.384589,-0.079514,19.94,4,WALK
1759259139.37352,5.120898,7.942165,1.609801,1.2689,-0.399668,0.298358,19.96,4,WALK
1759259139.39353,5.511303,8.519318,0.868497,0.675373,-0.415148,0.089939,19.98,4,WALK
1759259139.41253,5.088576,9.922918,2.271499,0.637792,-1.000217,0.065731,20.00,4,WALK
1759259139.43351,4.34787,9.803657,0.897975,0.547648,-1.402084,0.434852,20.02,4,WALK
1759259139.45352,3.954922,9.113379,0.821361,0.459156,-1.293852,0.71988,20.04,4,WALK
1759259139.47350,4.230854,9.586383,0.854131,0.688607,-1.181068,0.761747,20.06,4,WALK
1759259139.49352,4.782717,11.229554,0.698808,0.907872,-0.955963,0.856025,20.08,4,WALK
1759259139.51353,4.79409,10.972177,1.20982,1.056193,-0.793003,0.911115,20.10,4,WALK
1759259139.53350,4.040066,11.369315,1.403601,1.077004,-1.101986,0.779514,20.12,4,WALK
1759259139.55353,2.518999,13.146262,-2.426673,2.642583,-1.841586,0.770176,20.14,4,WALK
1759259139.57353,0.620697,14.157214,-5.838261,2.630477,-1.027826,1.035164,20.16,4,WALK
1759259139.59350,1.650952,13.008745,-0.842909,1.144246,0.52636,0.837304,20.18,4,WALK
1759259139.61352,1.852813,11.94557,-0.512658,1.38184,0.643922,0.522854,20.20,4,WALK
1759259139.63350,1.413926,11.030087,-0.288352,2.143364,0.71734,0.078582,20.22,4,WALK
1759259139.65355,0.88361,8.388086,0.838569,2.498336,0.268241,-0.149957,20.24,4,WALK
1759259139.67353,1.04043,6.524349,1.354969,2.059915,-0.668542,-0.21907,20.26,4,WALK
1759259139.69352,1.873014,5.983559,-1.381305,1.567986,-1.467598,0.012855,20.28,4,WALK
1759259139.71353,2.914791,7.066337,-3.521571,1.368086,-0.760636,0.526727,20.30,4,WALK
1759259139.73349,3.97213,7.55625,-2.0439,0.999689,0.085042,1.173566,20.32,4,WALK
1759259139.75353,4.631284,7.102399,-0.684891,0.644602,0.153684,1.639212,20.34,4,WALK
1759259139.77354,4.765209,5.622483,-0.353893,0.485681,-0.376292,1.422971,20.36,4,WALK
1759259139.79352,3.723582,4.765509,-1.17271,0.237828,-0.710257,0.63994,20.38,4,WALK
1759259139.81354,1.643769,5.485266,-2.145953,-0.211746,-0.541411,0.168626,20.40,4,WALK
1759259139.83350,0.529717,5.203648,-2.117671,-0.635819,-0.143182,-0.219362,20.42,4,WALK
1759259139.85357,0.000748,5.115062,-2.48159,-0.867956,0.104416,-0.583683,20.44,4,WALK
1759259139.87352,1.148169,4.378546,-3.145981,-1.122072,0.506384,-0.930333,20.46,4,WALK
1759259139.89352,2.566135,5.519832,-2.769642,-1.451475,1.046479,-1.370517,20.48,4,WALK
1759259139.91353,4.035277,8.259547,-3.731513,-1.750639,1.369616,-1.425771,20.50,4,WALK
1759259139.93349,6.647202,11.104457,-7.1434,-1.644994,1.528321,-1.022773,20.52,4,WALK
1759259139.95350,8.067562,13.686603,-4.478504,-1.152191,1.528958,-0.256829,20.54,4,WALK
1759259139.97353,8.103624,12.309638,-4.051737,-0.465242,1.544264,0.227637,20.56,4,WALK
1759259139.99352,8.912266,9.489418,-7.097611,-0.28363,3.301861,0.439133,20.58,4,WALK
1759259140.01352,8.948927,6.318597,-5.642086,-0.148146,3.721525,0.516208,20.60,4,WALK
1759259140.03349,9.268553,5.57011,-1.184232,0.291256,3.030071,0.247962,20.62,4,WALK
1759259140.05352,6.724265,13.68376,3.374478,-1.063276,1.134655,-0.659777,20.64,4,WALK
1759259140.07353,4.308516,15.956905,4.346374,-1.068656,-1.34655,-0.592061,20.66,4,WALK
1759259140.09352,2.639757,13.658322,1.785925,-0.567179,-2.681236,-0.807013,20.68,4,WALK
1759259140.11352,1.208773,9.251345,1.421258,-0.499697,-2.689814,-0.922181,20.70,4,WALK
1759259140.13350,0.235679,6.35451,0.961122,-0.144998,-2.588226,-1.014733,20.72,4,WALK
1759259140.15350,0.009427,5.217115,0.729483,0.289408,-2.228065,-0.906495,20.74,4,WALK
1759259140.17352,0.137517,5.85502,1.027861,0.630188,-1.737455,-0.504486,20.76,4,WALK
1759259140.19352,0.742502,7.456741,1.779939,0.684532,-1.362625,0.015097,20.78,4,WALK
1759259140.21352,1.390433,9.41026,1.785177,0.37089,-1.313377,0.266248,20.80,4,WALK
1759259140.23349,2.308609,10.78528,1.798345,-0.033416,-1.070923,0.36034,20.82,4,WALK
1759259140.25350,2.612972,10.393229,0.972196,-0.476867,-0.62349,0.289566,20.84,4,WALK
1759259140.27352,2.573767,8.914211,0.374244,-0.718445,0.092339,0.038338,20.86,4,WALK
1759259140.29352,2.343774,7.827693,0.460585,-0.938197,0.461155,-0.031903,20.88,4,WALK
1759259140.31352,2.399888,7.344214,0.392649,-1.159282,0.506716,0.07492,20.90,4,WALK
1759259140.33349,2.728642,7.326107,0.1239,-1.349668,0.467226,0.169173,20.92,4,WALK
1759259140.35350,3.475932,7.611017,-1.70542,-2.243607,1.138664,-0.063721,20.94,4,WALK
1759259140.37352,4.161721,8.831162,-0.874333,-2.622464,1.496687,-0.221947,20.96,4,WALK
1759259140.39351,4.450073,10.052654,1.169717,-2.661572,1.383044,-0.365225,20.98,4,WALK
1759259140.41350,4.611981,9.792434,-1.032799,-2.674352,1.501782,-0.555246,21.00,4,WALK
1759259140.43349,4.146608,9.90571,-3.336769,-2.6592,1.55307,-0.559939,21.02,4,WALK
1759259140.45289,3.506308,9.185953,-6.986879,0.318468,1.407505,-0.533237,21.04,4,WALK
1759259140.47337,4.258985,9.251794,3.875015,1.086479,-0.252898,0.063468,21.06,4,WALK
1759259140.49350,5.409549,8.668806,-0.083498,0.811153,-0.165778,-0.060725,21.08,4,WALK
1759259140.51350,5.656152,9.684845,1.290175,0.772599,-0.238406,-0.204165,21.10,4,WALK
1759259140.53349,5.197363,9.807249,0.882563,0.590427,-0.151982,-0.13711,21.12,4,WALK
1759259140.55349,4.489727,8.647407,1.182287,0.592841,-0.312616,0.186199,21.14,4,WALK
1759259140.57322,4.300285,8.285284,0.339977,0.579646,-0.224406,0.365331,21.16,4,WALK
1759259140.59355,4.685752,9.362825,0.942717,0.637365,-0.066356,0.486907,21.18,4,WALK
1759259140.61351,5.263203,11.247361,0.777667,0.789252,-0.073021,0.696943,21.20,4,WALK
1759259140.63348,4.646996,10.440665,0.75133,0.912644,-0.028793,0.789127,21.22,4,WALK
1759259140.65351,2.496255,10.937761,-5.163395,3.117695,-1.051841,0.703616,21.24,4,WALK
1759259140.67304,1.613542,11.442039,-4.004602,2.638776,0.39224,1.566258,21.26,4,WALK
1759259140.69351,3.14658,12.286893,2.434604,1.463177,-0.227977,1.611069,21.28,4,WALK
1759259140.71351,3.268385,14.410401,2.147749,0.981489,-0.190169,1.143903,21.30,4,WALK
1759259140.73347,3.48072,14.58009,1.353622,0.654942,-0.295053,0.648619,21.32,4,WALK
1759259140.75351,3.25806,14.133721,-1.518373,2.431331,-0.653977,0.396518,21.34,4,WALK
1759259140.77289,1.8995,9.519795,-3.192219,3.05279,-0.398895,0.11563,21.36,4,WALK
1759259140.79351,1.928978,5.468207,-4.246266,1.534435,0.768854,-0.111025,21.38,4,WALK
1759259140.81351,2.683152,5.711069,-0.168043,1.035191,0.624526,0.108536,21.40,4,WALK
1759259140.83332,2.835333,5.75611,1.596783,1.027948,-0.536287,0.595315,21.42,4,WALK
1759259140.85349,3.380912,5.976975,0.923414,0.893677,-1.152004,0.835833,21.44,4,WALK
1759259140.87272,4.832247,6.227169,-0.325013,0.812971,-1.316036,1.06131,21.46,4,WALK
1759259140.89351,5.14484,5.708076,-1.149366,0.734686,-1.178253,1.08204,21.48,4,WALK
1759259140.91351,3.432836,5.287445,-1.252167,0.32316,-0.893414,0.617846,21.50,4,WALK
1759259140.93319,1.217152,5.309142,-1.467945,-0.167923,-0.565881,0.229866,21.52,4,WALK
1759259140.95334,-0.117316,5.12838,-1.330727,-0.560383,-0.182643,-0.316328,21.54,4,WALK
1759259140.97254,-0.620996,5.202899,-1.224933,-0.809912,-0.038972,-0.883543,21.56,4,WALK
1759259140.99349,0.011672,5.49604,-1.931223,-1.093501,0.008319,-1.210814,21.58,4,WALK
1759259141.01353,1.901744,6.646005,-2.380734,-1.480273,0.407553,-1.50865,21.60,4,WALK
1759259141.03304,4.183568,9.430611,-4.506636,-1.787246,1.192157,-1.423601,21.62,4,WALK
1759259141.05320,6.976105,11.566687,-9.621548,-1.391354,1.971687,-0.979028,21.64,4,WALK
1759259141.07348,9.458443,13.731944,-5.752818,-1.019877,2.265316,-0.144984,21.66,4,WALK
1759259141.09353,9.597756,10.866982,-2.355595,-0.549116,2.00864,0.535841,21.68,4,WALK
1759259141.11351,10.28549,8.887127,-5.266346,0.033969,2.105073,0.416601,21.70,4,WALK
1759259141.13287,10.199898,6.596175,-5.521777,-0.050345,2.820784,0.406829,21.72,4,WALK
1759259141.15305,8.202984,3.199252,-1.22643,-0.005369,2.040458,0.114568,21.74,4,WALK
1759259141.17351,5.525817,8.284087,0.412252,-0.915682,0.386522,-0.688643,21.76,4,WALK
1759259141.19353,4.584896,14.805294,3.682282,-1.942291,-1.027819,-0.827088,21.78,4,WALK
1759259141.21351,3.219902,15.337555,2.604592,-1.311872,-2.415508,-0.656778,21.80,4,WALK
1759259141.23273,1.477671,12.852224,0.015413,-0.687741,-2.865699,-0.715373,21.82,4,WALK
1759259141.25290,0.826448,9.501539,1.119738,-0.599303,-2.301422,-0.728383,21.84,4,WALK
1759259141.27351,0.344166,7.003638,1.016339,0.104605,-1.833882,-0.826456,21.86,4,WALK
1759259141.29351,0.28506,6.243779,1.183334,0.597008,-1.520479,-0.724205,21.88,4,WALK
1759259141.31255,0.589273,6.799832,1.807622,0.853167,-1.428326,-0.313812,21.90,4,WALK
1759259141.33348,1.06946,8.374768,2.326117,0.738061,-1.640679,0.148597,21.92,4,WALK
1759259141.35261,1.558925,10.290279,1.430984,0.36953,-1.618061,0.378007,21.94,4,WALK
1759259141.37299,2.207454,10.939107,0.480636,-0.016765,-0.954528,0.471087,21.96,4,WALK
1759259141.39354,2.512565,9.920075,0.092476,-0.409565,0.001732,0.237493,21.98,4,WALK
1759259141.41325,2.285265,8.551191,0.293888,-0.737668,0.818341,-0.054625,22.00,4,WALK
1759259141.43347,2.169895,7.458387,0.599897,-0.919425,1.107258,-0.090278,22.02,4,WALK
1759259141.45282,2.158074,6.655731,0.612766,-1.097707,0.983829,-0.038609,22.04,4,WALK
1759259141.47349,2.564789,6.889315,0.232537,-1.206143,0.772405,-0.042416,22.06,4,WALK
1759259141.49348,3.500024,7.547122,-2.05198,-1.669781,1.12882,-0.2423,22.08,4,WALK
1759259141.51351,4.203769,9.189844,0.030227,-2.305784,1.772246,-0.500942,22.10,4,WALK
1759259141.53347,4.840477,9.976638,1.149965,-2.209584,1.369085,-0.596389,22.12,4,WALK
1759259141.55351,5.471349,9.808146,-1.183783,-2.376008,1.323461,-0.807552,22.14,4,WALK
1759259141.57349,5.442918,10.200496,0.791733,-2.581745,1.40474,-0.949216,22.16,4,WALK
1759259141.59352,6.525097,9.048885,-12.601132,0.155365,0.848465,-0.789671,22.18,4,WALK
1759259141.61352,4.723012,9.715521,4.671985,0.618511,0.617421,-0.233844,22.20,4,WALK
1759259141.63347,4.969315,7.989601,1.381754,1.129243,-0.827429,0.137143,22.22,4,WALK
1759259141.65337,5.222652,8.899996,0.396091,0.713752,-0.487637,-0.097123,22.24,4,WALK
1759259141.67285,4.490774,9.970952,1.824531,0.751345,-0.715774,0.122782,22.26,4,WALK
1759259141.69340,3.785831,9.010279,0.691924,0.780185,-0.880292,0.426903,22.28,4,WALK
1759259141.71299,3.585616,8.936807,0.377236,0.63434,-0.685118,0.631594,22.30,4,WALK
1759259141.73347,3.954772,8.991724,0.876278,0.68571,-0.518123,0.658582,22.32,4,WALK
1759259141.75349,4.623802,10.481815,0.691475,0.852547,-0.355803,0.606705,22.34,4,WALK
1759259141.77349,4.74441,10.793959,0.829741,0.938982,-0.201522,0.622269,22.36,4,WALK
1759259141.79349,4.147057,10.279355,0.287155,1.026611,-0.354435,0.444649,22.38,4,WALK
1759259141.81349,2.854637,12.512397,-4.969315,3.182249,-1.076968,0.692565,22.40,4,WALK
1759259141.83347,2.32058,11.629835,-2.24606,2.09939,0.540193,1.708534,22.42,4,WALK
1759259141.85349,3.320309,12.289736,1.974169,0.961821,0.27236,1.457373,22.44,4,WALK
1759259141.87311,3.213318,12.522722,2.270302,0.607315,-0.243902,0.86769,22.46,4,WALK
1759259141.89349,3.174562,13.312958,-0.127491,1.413597,-0.887805,0.427201,22.48,4,WALK
1759259141.91349,2.122759,10.537181,-0.806547,2.35194,-1.102567,0.164257,22.50,4,WALK
1759259141.93298,2.15119,6.914454,-3.611354,1.774935,-0.945613,-0.020674,22.52,4,WALK
1759259141.95316,2.945916,6.251261,-2.970157,1.077265,-0.293999,0.192944,22.54,4,WALK
1759259141.97349,2.967463,6.601413,-0.238073,1.091565,-0.227165,0.704731,22.56,4,WALK
1759259141.99347,3.194164,6.830358,0.764349,0.992404,-0.419752,0.896665,22.58,4,WALK
1759259142.01347,4.340837,7.17647,-0.295385,0.772106,-0.870905,1.051232,22.60,4,WALK
1759259142.03287,4.309264,6.772149,-1.432032,0.69437,-0.894255,1.013516,22.62,4,WALK
1759259142.05349,2.939032,6.04506,-1.103727,0.356857,-0.708573,0.726597,22.64,4,WALK
1759259142.07348,1.249624,5.715708,-1.169867,-0.040575,-0.585456,0.418115,22.66,4,WALK
1759259142.09347,0.263063,5.548712,-1.382352,-0.417056,-0.345504,-0.022498,22.68,4,WALK
1759259142.11349,-0.215777,5.710021,-1.750461,-0.690036,0.001493,-0.508159,22.70,4,WALK
1759259142.13347,0.067337,5.498583,-2.362329,-0.862765,0.351065,-0.784695,22.72,4,WALK
1759259142.15298,1.501314,5.385308,-1.877653,-1.060975,0.757656,-1.230021,22.74,4,WALK
1759259142.17349,3.091214,7.973739,-1.766622,-1.172548,0.919394,-1.437985,22.76,4,WALK
1759259142.19349,5.358672,9.939229,-6.257545,-1.290414,1.155277,-1.194895,22.78,4,WALK
1759259142.21348,7.495796,10.629208,-8.491335,-1.517897,2.045049,-0.823524,22.80,4,WALK
1759259142.23290,8.473379,12.314876,-1.40794,-1.095487,1.997603,-0.056162,22.82,4,WALK
1759259142.25307,9.143157,10.737097,-2.307412,-0.22154,1.301681,0.249791,22.84,4,WALK
1759259142.27348,10.0543,8.370129,-6.260239,-0.122174,2.073064,0.284742,22.86,4,WALK
1759259142.29349,9.590873,5.639991,-3.971532,-0.270898,2.83303,0.34857,22.88,4,WALK
1759259142.31286,8.909423,3.879355,-1.593491,-0.193859,2.236164,-0.072236,22.90,4,WALK
1759259142.33347,6.042516,11.852495,0.477643,-1.238132,1.202652,-0.822837,22.92,4,WALK
1759259142.35348,4.206762,16.75597,3.932327,-1.203307,-1.141665,-0.640533,22.94,4,WALK
1759259142.37349,2.322974,14.92246,0.732177,-0.46509,-2.818587,-0.537462,22.96,4,WALK
1759259142.39349,1.56476,10.906486,1.070059,-0.486089,-2.350773,-0.494472,22.98,4,WALK
1759259142.41349,0.614262,7.339126,1.350479,0.164343,-1.884578,-0.742532,23.00,4,WALK
1759259142.43346,0.282366,5.990741,1.508946,0.601257,-1.658636,-0.757586,23.02,4,WALK
1759259142.45335,0.426018,6.631789,1.96564,0.789837,-1.705219,-0.404155,23.04,4,WALK
1759259142.47348,0.566678,7.902661,2.042853,0.74674,-1.83216,0.092397,23.06,4,WALK
1759259142.49347,1.009006,9.047987,1.593042,0.419021,-1.744844,0.336802,23.08,4,WALK
1759259142.51320,1.799991,10.030508,1.403601,-0.052781,-1.291649,0.431482,23.10,4,WALK
1759259142.53346,2.180519,9.460837,0.707038,-0.476549,-0.498295,0.214109,23.12,4,WALK
1759259142.55318,2.214487,8.768315,0.688034,-0.710951,0.435994,-0.044353,23.14,4,WALK
1759259142.57348,2.439392,8.126968,1.206977,-0.898308,0.680675,-0.113719,23.16,4,WALK
1759259142.59348,2.568529,7.502081,1.074099,-1.116649,0.400653,-0.050577,23.18,4,WALK
1759259142.61348,2.859275,7.438635,0.666785,-1.319974,0.13134,-0.030454,23.20,4,WALK
1759259142.63346,3.544167,7.271789,-3.110667,-1.77978,0.400268,-0.131364,23.22,4,WALK
1759259142.65299,4.282778,8.530989,-1.666215,-3.035807,2.069068,-0.525334,23.24,4,WALK
1759259142.67348,4.625747,9.950901,2.393005,-2.890715,1.787872,-0.568884,23.26,4,WALK
1759259142.69348,5.396381,9.527726,-2.154033,-2.544047,1.420873,-0.627737,23.28,4,WALK
1759259142.71349,5.150826,10.266187,-16.017059,-0.456894,2.733176,-0.917299,23.30,4,WALK
1759259142.73346,4.350115,9.820117,4.883872,0.47333,2.139418,-0.420172,23.32,4,WALK
1759259142.75282,4.347421,7.319523,3.840449,0.953443,-0.411962,0.13212,23.34,4,WALK
1759259142.77346,5.38426,7.786991,-0.143951,0.665977,-1.032502,0.021506,23.36,4,WALK
1759259142.79351,5.827936,10.070611,2.109591,0.492926,-1.259042,-0.043626,23.38,4,WALK
1759259142.81348,6.036381,10.533739,0.121356,0.480825,-1.264446,0.032807,23.40,4,WALK
1759259142.83341,5.26051,10.191069,1.052401,0.413018,-0.851707,0.131628,23.42,4,WALK
1759259142.85266,4.401291,9.310601,0.471508,0.553552,-0.672244,0.404529,23.44,4,WALK
1759259142.87346,4.540753,9.459491,0.391003,0.64061,-0.314206,0.551066,23.46,4,WALK
1759259142.89354,5.150227,11.019612,0.370952,0.686218,0.068046,0.63169,23.48,4,WALK
1759259142.91315,4.968417,10.649858,1.04073,0.910247,0.243227,0.637619,23.50,4,WALK
1759259142.93326,4.42643,10.061333,1.624615,0.993242,0.063647,0.583454,23.52,4,WALK
1759259142.95254,3.062184,10.410887,-0.11552,1.057499,-0.510641,0.675452,23.54,4,WALK
1759259142.97347,-0.356886,11.78037,-8.306234,3.530931,-1.602749,0.879671,23.56,4,WALK
1759259142.99348,0.71018,11.764508,-1.513135,1.587101,-0.486477,1.377565,23.58,4,WALK
1759259143.01301,2.371157,11.843218,1.914164,1.171458,-0.493306,1.041359,23.60,4,WALK
1759259143.03312,2.526631,12.007819,0.372298,0.881641,-0.574839,0.525396,23.62,4,WALK
1759259143.05347,2.350059,13.037326,-1.550096,2.180292,-0.035518,0.190488,23.64,4,WALK
1759259143.07275,1.644817,9.875483,0.589722,2.55081,0.28,0.034617,23.66,4,WALK
1759259143.09348,2.068141,7.617302,0.382474,2.101492,-0.420711,0.003337,23.68,4,WALK
1759259143.11347,2.790891,6.333262,-3.095553,1.704827,-0.629959,0.281944,23.70,4,WALK
1759259143.13295,3.469946,5.850381,-2.684798,1.193992,0.141239,0.652277,23.72,4,WALK
1759259143.15349,4.309413,5.795464,-0.49979,0.72156,0.02709,1.046628,23.74,4,WALK
1759259143.17347,4.563049,5.475988,-0.729483,0.532453,-0.530383,1.166087,23.76,4,WALK
1759259143.19347,4.077924,4.88477,-1.653645,0.386412,-0.60522,0.685596,23.78,4,WALK
1759259143.21347,2.004246,5.699996,-1.964592,0.0124,-0.216004,0.258062,23.80,4,WALK
1759259143.23280,0.760907,5.335628,-1.563414,-0.379782,0.095216,-0.020758,23.82,4,WALK
1759259143.25347,0.124349,5.231929,-1.770213,-0.665477,0.238006,-0.498731,23.84,4,WALK
1759259143.27347,0.465672,5.075408,-2.534562,-0.977576,0.372345,-0.874782,23.86,4,WALK
1759259143.29349,1.839495,5.38426,-2.59726,-1.35026,0.721673,-1.425421,23.88,4,WALK
1759259143.31347,3.568707,7.885004,-3.246089,-1.773494,1.192852,-1.588204,23.90,4,WALK
1759259143.33264,6.489633,10.864588,-6.534973,-1.709879,1.417661,-1.149579,23.92,4,WALK
1759259143.35348,7.930643,12.375179,-4.043358,-1.241528,1.471143,-0.258023,23.94,4,WALK
1759259143.37346,8.15899,11.694029,-2.376844,-0.794652,1.293106,0.093862,23.96,4,WALK
1759259143.39347,9.384373,10.635942,-7.279869,-0.162436,3.305709,0.344349,23.98,4,WALK
1759259143.41312,9.499294,8.12188,-6.622063,-0.105629,4.025348,0.48009,24.00,4,WALK
1759259143.43249,9.615114,5.374534,-2.883816,0.443284,3.767628,0.427201,24.02,4,WALK
1759259143.45345,6.139781,15.653739,3.109469,-0.808247,-0.213866,-0.780881,24.04,4,WALK
1759259143.47345,3.875464,15.910368,3.262399,-0.66552,-2.329986,-0.674485,24.06,4,WALK
1759259143.49345,2.336442,11.770195,1.294665,-0.453485,-2.867298,-0.69887,24.08,4,WALK
1759259143.51346,1.053898,7.58109,1.280898,-0.287743,-2.527808,-0.81347,24.10,4,WALK
1759259143.53313,0.28506,5.47509,1.013795,0.192505,-2.231347,-0.948294,24.12,4,WALK
1759259143.55346,0.123451,5.185242,1.101333,0.55652,-1.899359,-0.813332,24.14,4,WALK
1759259143.57346,0.40073,6.495918,1.777695,0.666505,-1.689615,-0.380062,24.16,4,WALK
1759259143.59353,1.128866,8.580968,2.381333,0.455806,-1.821889,0.11655,24.18,4,WALK
1759259143.61281,2.002151,10.331878,2.756175,0.017179,-2.110077,0.495641,24.20,4,WALK
1759259143.63297,2.289006,10.71525,1.059584,-0.411873,-1.817992,0.503935,24.22,4,WALK
1759259143.65349,2.242918,10.088268,-0.25618,-0.664105,-0.667414,0.238022,24.24,4,WALK
1759259143.67290,1.983596,8.746916,-0.14051,-0.782167,0.659147,0.071001,24.26,4,WALK
1759259143.69347,1.930624,7.595754,0.373047,-0.961075,1.182005,0.066776,24.28,4,WALK
1759259143.71347,2.055871,7.132177,0.626533,-1.075228,1.23769,0.08589,24.30,4,WALK
1759259143.73296,2.407968,7.363367,0.551415,-1.13261,1.11977,0.127295,24.32,4,WALK
1759259143.75351,3.0969,7.597101,-1.255459,-1.296767,1.096952,0.078008,24.34,4,WALK
1759259143.77320,4.049792,8.256105,-2.715474,-2.334376,2.212327,-0.258561,24.36,4,WALK
1759259143.79353,4.597316,10.33502,2.230498,-2.748773,2.182252,-0.486663,24.38,4,WALK
1759259143.81347,5.201104,10.312874,0.466271,-2.412983,1.162572,-0.541458,24.40,4,WALK
1759259143.83344,5.405509,10.054151,-5.105635,-2.776911,1.317616,-0.810272,24.42,4,WALK
1759259143.85351,4.666299,9.544186,-5.67336,0.377354,1.492339,-0.72026,24.44,4,WALK
1759259143.87346,4.245368,8.79106,3.981408,0.817008,0.450191,-0.026458,24.46,4,WALK
1759259143.89347,4.854992,7.503578,0.236876,1.199137,-0.526082,0.168108,24.48,4,WALK
1759259143.91350,5.506813,8.77834,1.154005,0.861197,-0.158777,-0.100918,24.50,4,WALK
1759259143.93265,5.586421,9.75293,1.50281,1.006494,-0.432689,-0.099675,24.52,4,WALK
1759259143.95345,5.484817,9.971401,1.064522,0.960165,-0.506574,0.040025,24.54,4,WALK
1759259143.97347,4.980688,10.340707,0.706738,0.749161,-0.480051,0.312801,24.56,4,WALK
1759259143.99347,4.531027,9.634866,0.955885,0.597332,-0.451642,0.637742,24.58,4,WALK
1759259144.01347,4.701763,9.924265,0.292542,0.626365,-0.338539,0.6876,24.60,4,WALK
1759259144.03268,4.734235,10.238354,0.330699,0.581605,0.020434,0.608225,24.62,4,WALK
1759259144.05345,4.359991,9.310152,0.91653,0.66572,0.092993,0.375085,24.64,4,WALK
1759259144.07344,3.487604,10.793211,-3.218256,1.611889,-0.442966,0.332308,24.66,4,WALK
1759259144.09346,1.083077,12.229732,-9.592519,3.390858,-0.173744,1.187637,24.68,4,WALK
1759259144.11347,3.094356,10.483461,0.921618,1.690743,0.919827,1.903097,24.70,4,WALK
1759259144.13295,3.76174,10.513987,4.504391,1.074049,0.018744,1.126534,24.72,4,WALK
1759259144.15346,3.629161,12.377873,1.177049,0.612657,-1.28715,0.489754,24.74,4,WALK
1759259144.17346,3.455581,12.712014,-1.306636,1.859038,-1.668293,0.307488,24.76,4,WALK
1759259144.19347,2.618658,9.15438,-4.189853,1.926658,-1.138889,0.241636,24.78,4,WALK
1759259144.21347,3.088221,6.980295,-3.0143,0.990698,-0.210762,0.35452,24.80,4,WALK
1759259144.23267,3.126079,6.751948,-0.50772,0.976999,-0.152594,0.680851,24.82,4,WALK
1759259144.25346,3.632303,6.533776,0.673369,0.945448,-0.513228,0.822481,24.84,4,WALK
1759259144.27289,4.243722,6.542605,-0.435296,0.71362,-1.095216,0.911059,24.86,4,WALK
1759259144.29251,4.41805,6.410924,-1.752855,0.567122,-0.979077,0.969045,24.88,4,WALK
1759259144.31346,3.207931,6.085612,-1.3008,0.292761,-0.736422,0.819554,24.90,4,WALK
1759259144.33344,1.589151,5.857414,-0.883161,-0.095554,-0.83992,0.502926,24.92,4,WALK
1759259144.35346,0.539593,5.560234,-1.168969,-0.406818,-0.870691,0.069607,24.94,4,WALK
1759259144.37346,-0.064943,5.77242,-1.5483,-0.650805,-0.561472,-0.466108,24.96,4,WALK
1759259144.39347,-0.283414,6.141576,-2.094328,-0.837854,-0.163556,-0.815239,24.98,4,WALK
1759259144.41346,0.757914,5.350741,-2.67148,-1.081075,0.372132,-1.118297,25.00,4,WALK
1759259144.43344,2.182913,7.019799,-2.672079,-1.350951,0.993734,-1.465361,25.02,4,WALK
1759259144.45347,4.325425,9.672425,-5.541829,-1.553516,1.687937,-1.30243,25.04,4,WALK
1759259144.47350,7.004387,10.859201,-10.245537,-1.316189,2.609123,-0.985049,25.06,4,WALK
1759259144.49346,8.220042,13.304878,-1.809268,-0.988915,2.205819,-0.118804,25.08,4,WALK
1759259144.51346,8.025963,10.673052,0.303166,-0.529441,1.006237,0.286807,25.10,4,WALK
1759259144.53337,9.473257,8.834903,-7.797316,-0.189069,1.438793,0.19649,25.12,4,WALK
1759259144.55346,9.525481,6.55697,-6.214599,-0.20845,3.539959,0.381498,25.14,4,WALK
1759259144.57344,9.415497,6.335507,-0.677858,0.276167,3.233995,0.245317,25.16,4,WALK
1759259144.59346,7.580192,13.985729,2.127697,-0.532299,1.112615,-0.695498,25.18,4,WALK
1759259144.61348,3.524115,17.213262,2.14296,-0.672764,-1.611444,-0.70196,25.20,4,WALK
1759259144.63318,2.14281,12.915222,0.438737,-0.429738,-2.777753,-0.659164,25.22,4,WALK
1759259144.65346,1.235258,7.64708,1.76318,-0.321388,-2.382023,-0.565594,25.24,4,WALK
1759259144.67345,0.463577,4.803966,1.250222,0.225568,-2.251053,-0.718707,25.26,4,WALK
1759259144.69346,0.164003,4.511574,1.59364,0.634585,-1.882562,-0.769005,25.28,4,WALK
1759259144.71346,0.506523,6.430676,2.101959,0.687337,-1.705754,-0.449443,25.30,4,WALK
1759259144.73301,1.099387,9.192088,2.019659,0.541418,-1.505851,0.085248,25.32,4,WALK
1759259144.75346,1.788469,10.809072,2.359935,-0.005575,-1.280412,0.456621,25.34,4,WALK
1759259144.77345,2.190844,10.829423,1.51119,-0.633865,-0.875738,0.489907,25.36,4,WALK
1759259144.79346,1.945139,9.460538,0.516399,-0.911813,-0.090369,0.146829,25.38,4,WALK
1759259144.81352,1.820341,8.557026,0.781557,-0.863171,0.732002,-0.093056,25.40,4,WALK
1759259144.83283,2.042254,7.719954,0.941071,-0.910943,0.788158,-0.039632,25.42,4,WALK
1759259144.85346,2.359785,7.444321,0.901716,-0.985449,0.553648,0.044561,25.44,4,WALK
1759259144.87250,2.828899,7.758111,0.480037,-1.102359,0.294723,0.014728,25.46,4,WALK
1759259144.89351,3.752163,7.716512,-3.783437,-1.720418,0.690511,-0.178504,25.48,4,WALK
1759259144.91321,4.502446,9.355343,0.018854,-3.104972,1.980917,-0.621656,25.50,4,WALK
1759259144.93267,4.813094,10.222792,2.864213,-2.789413,1.072575,-0.613033,25.52,4,WALK
1759259144.95346,5.372888,9.268553,-3.367445,-2.582939,0.733825,-0.742149,25.54,4,WALK
1759259144.97346,5.573253,10.026767,-13.243377,-0.281718,2.395644,-0.984129,25.56,4,WALK
1759259144.99330,4.702212,9.744999,4.286369,0.336952,1.852061,-0.354828,25.58,4,WALK
1759259145.01344,4.640561,7.299472,3.090914,0.679979,-0.303299,0.106897,25.60,4,WALK
1759259145.03251,5.482871,7.513753,0.56159,0.426854,-0.831599,-0.021111,25.62,4,WALK
1759259145.05347,6.193949,9.495703,2.054824,0.324751,-1.241759,-0.108185,25.64,4,WALK
1759259145.07344,6.414216,9.824607,0.716614,0.307285,-1.476765,-0.08603,25.66,4,WALK
1759259145.09316,5.533898,10.33936,1.303344,0.213462,-1.351541,0.03102,25.68,4,WALK
1759259145.11331,4.364779,9.67856,0.596904,0.27153,-1.360574,0.505989,25.70,4,WALK
1759259145.13343,4.05054,9.27828,0.317232,0.404852,-1.053831,0.686001,25.72,4,WALK
1759259145.15345,4.154688,10.68622,-0.130334,0.687419,-0.529788,0.806669,25.74,4,WALK
1759259145.17345,3.979462,10.231322,0.095319,1.003481,0.134841,0.934438,25.76,4,WALK
1759259145.19300,3.636044,9.863063,0.666037,1.358831,0.420432,0.743017,25.78,4,WALK
1759259145.21314,1.849521,12.111069,-4.110545,3.697918,-0.773344,0.476455,25.80,4,WALK
1759259145.23343,0.265457,12.005575,-4.829853,2.670763,0.59649,1.199434,25.82,4,WALK
1759259145.25345,2.111536,11.923872,1.043124,1.652073,0.539888,1.103234,25.84,4,WALK
1759259145.27345,2.411859,12.158355,2.39495,1.083048,0.146125,0.708651,25.86,4,WALK
1759259145.29271,2.976442,12.706477,1.662623,0.660254,-0.413968,0.261465,25.88,4,WALK
1759259145.31285,3.04737,12.25502,-1.153556,2.201579,-0.676775,0.187121,25.90,4,WALK
1759259145.33343,2.480094,8.753949,0.106841,2.635842,-0.551713,0.028056,25.92,4,WALK
1759259145.35345,2.786402,6.289418,-2.544587,1.910472,-0.678173,-0.033431,25.94,4,WALK
1759259145.37345,3.45199,5.853075,-4.530877,1.31371,0.445758,0.378439,25.96,4,WALK
1759259145.39256,4.153491,6.170157,-0.072125,1.003193,0.849059,0.957765,25.98,4,WALK
1759259145.41269,4.94687,6.154445,1.111059,0.703724,-0.194445,1.280191,26.00,4,WALK
1759259145.43343,5.137059,5.71077,-0.506523,0.708844,-0.958056,1.30403,26.02,4,WALK
1759259145.45348,3.847781,5.218163,-1.364545,0.467224,-0.972328,0.741462,26.04,4,WALK
1759259145.47343,1.93676,5.473295,-1.333121,-0.05148,-0.856712,0.371849,26.06,4,WALK
1759259145.49345,0.678307,5.079897,-1.264737,-0.444905,-0.657545,-0.003063,26.08,4,WALK
1759259145.51254,-0.065691,5.152172,-1.534384,-0.676511,-0.35737,-0.539042,26.10,4,WALK
1759259145.53342,-0.142156,5.576245,-2.034024,-0.867558,-0.168686,-0.968455,26.12,4,WALK
1759259145.55345,1.173458,5.660641,-2.561796,-1.151485,0.166388,-1.291721,26.14,4,WALK
1759259145.57345,3.271527,7.747038,-3.834015,-1.521767,0.796105,-1.421163,26.16,4,WALK
1759259145.59344,5.723189,10.49633,-6.086809,-1.622311,1.592534,-1.0012,26.18,4,WALK
1759259145.61345,8.295909,11.946917,-7.482928,-1.091714,1.928773,-0.383559,26.20,4,WALK
1759259145.63342,9.493458,11.312603,-4.091691,-0.956525,1.899238,0.257196,26.22,4,WALK
1759259145.65345,9.692477,9.019407,-3.031059,-0.440828,1.734613,0.08484,26.24,4,WALK
1759259145.67343,9.65402,8.462755,-6.35451,-0.210011,2.06152,-0.116924,26.26,4,WALK
1759259145.69345,9.012374,6.485443,-5.373786,-0.34168,2.425474,0.043602,26.28,4,WALK
1759259145.71345,7.684041,7.817218,-1.731307,-0.319041,1.242543,-0.275349,26.30,4,WALK
1759259145.73342,5.101744,12.861352,1.692102,-1.297117,-0.223604,-0.417452,26.32,4,WALK
1759259145.75344,3.853916,14.428207,4.026598,-1.42156,-1.8364,-0.485902,26.34,4,WALK
1759259145.77344,2.013973,12.933178,1.634192,-0.891473,-2.4413,-0.801397,26.36,4,WALK
1759259145.79345,0.635511,9.907206,0.671873,-0.757506,-2.167913,-1.053132,26.38,4,WALK
1759259145.81337,0.031574,7.108085,0.773477,-0.506156,-1.780718,-1.081457,26.40,4,WALK
1759259145.83342,-0.103699,5.933281,0.839168,-0.060925,-1.350914,-0.909224,26.42,4,WALK
1759259145.85344,0.058658,6.369923,1.70946,0.350136,-1.005732,-0.514619,26.44,4,WALK
1759259145.87345,0.592565,7.797915,2.585738,0.416089,-1.137885,-0.182008,26.46,4,WALK
1759259145.89345,1.316512,10.275764,2.477999,0.208163,-1.364695,0.04691,26.48,4,WALK
1759259145.91345,1.892916,11.108348,2.23394,0.043938,-1.413936,0.212555,26.50,4,WALK
1759259145.93309,2.207903,10.588058,1.225682,-0.172218,-1.153638,0.170138,26.52,4,WALK
1759259145.95347,2.225111,9.43914,0.471957,-0.317756,-0.507371,0.007596,26.54,4,WALK
1759259145.97345,2.228702,8.373122,0.029329,-0.612585,0.02373,-0.039202,26.56,4,WALK
1759259145.99345,2.296638,7.466617,-0.133177,-0.904149,0.459,0.001597,26.58,4,WALK
1759259146.01324,2.482637,6.723367,-1.125873,-1.194162,0.842297,0.033546,26.60,4,WALK
1759259146.03301,2.96058,7.245752,-1.326238,-1.719465,1.686807,-0.102177,26.62,4,WALK
1759259146.05343,3.547908,8.874258,0.734272,-1.848794,2.009903,-0.146485,26.64,4,WALK
1759259146.07344,4.238335,9.663896,0.325163,-1.589798,1.806384,-0.1745,26.66,4,WALK
1759259146.09343,5.010316,9.455899,-2.429965,-1.852133,2.390544,-0.406586,26.68,4,WALK
1759259146.11343,4.725556,10.35163,1.088913,-2.147292,2.879503,-0.640727,26.70,4,WALK
1759259146.13318,4.317344,8.775348,-10.136302,-0.787862,2.303346,-0.534063,26.72,4,WALK
1759259146.15344,4.274099,9.491364,4.064457,0.426694,1.45472,-0.296811,26.74,4,WALK
1759259146.17345,4.792892,8.678532,2.656965,0.857146,-0.722736,0.248414,26.76,4,WALK
1759259146.19326,5.562778,8.834903,0.428861,0.589351,-0.907953,0.155063,26.78,4,WALK
1759259146.21273,5.790377,9.636362,1.357363,0.648386,-0.956153,-0.004247,26.80,4,WALK
1759259146.23342,5.149628,10.155904,0.665139,0.60617,-0.754916,0.018774,26.82,4,WALK
1759259146.25344,4.374805,9.996989,1.173159,0.593281,-0.700416,0.368406,26.84,4,WALK
1759259146.27344,4.104559,9.661502,0.909048,0.595096,-0.701139,0.650427,26.86,4,WALK
1759259146.29344,4.255394,10.241946,0.413149,0.631443,-0.547589,0.78599,26.88,4,WALK
1759259146.31256,4.28607,10.052205,0.54513,0.756367,-0.24261,0.81503,26.90,4,WALK
1759259146.33251,4.192397,9.712528,1.001973,0.997975,-0.09383,0.621259,26.92,4,WALK
1759259146.35345,2.875586,11.128549,-3.253271,2.369502,-0.530447,0.370126,26.94,4,WALK
1759259146.37344,0.146495,11.775432,-7.453599,3.575271,0.040224,0.842203,26.96,4,WALK
1759259146.39259,1.674445,10.960206,0.518045,1.752896,0.682267,1.359681,26.98,4,WALK
1759259146.41307,3.075502,11.405827,2.579603,1.298515,0.067164,1.11894,27.00,4,WALK
1759259146.43342,3.365499,11.805808,1.647959,0.984015,-0.873259,0.457837,27.02,4,WALK
1759259146.45342,3.321057,11.373954,-0.878373,2.03209,-0.614314,0.175878,27.04,4,WALK
1759259146.47342,3.524265,9.497199,-0.987758,2.071396,-0.597817,0.109357,27.06,4,WALK
1759259146.49342,4.262577,7.471705,-4.086004,1.387189,-0.319852,0.413947,27.08,4,WALK
1759259146.51287,4.404284,6.890662,-3.729119,1.190533,0.047046,0.642716,27.10,4,WALK
1759259146.53341,3.536385,5.703288,0.089932,0.879447,-0.083253,0.95337,27.12,4,WALK
1759259146.55343,3.645471,5.899163,-0.319327,0.780254,-0.235245,0.979046,27.14,4,WALK
1759259146.57269,4.010886,5.959018,-0.480187,0.701322,-0.383568,0.987145,27.16,4,WALK
1759259146.59342,2.568978,6.215048,-1.526902,0.274699,-0.70957,0.813932,27.18,4,WALK
1759259146.61342,1.379659,5.878064,-1.425597,-0.068314,-0.742501,0.468406,27.20,4,WALK
1759259146.63341,0.651672,5.622932,-1.400608,-0.303704,-0.521552,0.008712,27.22,4,WALK
1759259146.65344,0.242563,5.95408,-1.511639,-0.511005,-0.170085,-0.510524,27.24,4,WALK
1759259146.67344,0.430507,6.147711,-1.918653,-0.682164,0.034271,-0.847357,27.26,4,WALK
1759259146.69344,1.477222,6.00391,-2.148347,-0.859195,0.329873,-1.214943,27.28,4,WALK
1759259146.71333,2.715773,7.490709,-2.622998,-1.114252,0.664609,-1.497325,27.30,4,WALK
1759259146.73341,4.62036,9.844059,-5.974581,-1.392404,1.238013,-1.388838,27.32,4,WALK
1759259146.75343,7.483676,11.542596,-8.398111,-1.265518,1.834481,-0.801315,27.34,4,WALK
1759259146.77320,7.794772,11.613823,-1.960402,-1.221604,1.621373,0.030058,27.36,4,WALK
1759259146.79344,7.638551,9.56319,-0.572065,-0.633729,0.912434,0.002344,27.38,4,WALK
1759259146.81318,8.702923,9.330054,-6.477962,-0.144372,1.442614,-0.130761,27.40,4,WALK
1759259146.83341,8.989629,7.887847,-7.42427,-0.012993,3.295636,0.227311,27.42,4,WALK
1759259146.85343,8.746318,6.233304,-2.637662,0.310541,3.219504,0.197154,27.44,4,WALK
1759259146.87301,6.03279,11.845612,0.279523,-0.620975,0.408042,-0.573771,27.46,4,WALK
1759259146.89344,3.827431,15.058481,3.072808,-1.103078,-1.847837,-0.652296,27.48,4,WALK
1759259146.91305,2.522441,12.702437,0.876577,-0.825052,-2.594247,-0.59531,27.50,4,WALK
1759259146.93341,1.363947,9.359383,0.257377,-0.591421,-2.065484,-0.636531,27.52,4,WALK
1759259146.95344,0.683096,6.321889,0.819565,-0.296005,-1.625891,-0.662573,27.54,4,WALK
1759259146.97342,0.391302,5.049671,1.022174,0.107208,-1.389473,-0.72005,27.56,4,WALK
1759259146.99344,0.494103,5.651663,1.565359,0.336472,-1.332918,-0.659239,27.58,4,WALK
1759259147.01291,1.006762,7.839514,2.244564,0.407742,-1.273325,-0.467657,27.60,4,WALK
1759259147.03341,1.783082,10.571298,2.450465,0.203529,-1.290709,-0.255733,27.62,4,WALK
1759259147.05344,2.171242,11.684003,2.359935,-0.187419,-1.278551,0.095905,27.64,4,WALK
1759259147.07343,2.277335,10.669161,1.323245,-0.551196,-1.052619,0.208013,27.66,4,WALK
1759259147.09343,2.160917,9.264363,0.325911,-0.682972,-0.346988,0.064166,27.68,4,WALK
1759259147.11278,2.17184,8.556877,0.259771,-0.724261,0.257751,-0.018822,27.70,4,WALK
1759259147.13341,2.396446,7.802404,0.195576,-0.796706,0.559653,0.03898,27.72,4,WALK
1759259147.15346,2.82426,6.928221,-1.657386,-1.170925,0.82757,0.022173,27.74,4,WALK
1759259147.17343,3.381062,7.414543,-1.291821,-1.928501,1.71217,-0.223989,27.76,4,WALK
1759259147.19328,3.935319,8.848371,1.290026,-2.061785,1.749783,-0.310538,27.78,4,WALK
1759259147.21260,4.471172,9.553014,0.720655,-1.754557,1.21145,-0.311693,27.80,4,WALK
1759259147.23341,4.989217,9.291897,-1.744475,-1.919099,1.51011,-0.455645,27.82,4,WALK
1759259147.25343,4.757578,9.825504,0.400281,-2.077741,1.921101,-0.616414,27.84,4,WALK
1759259147.27299,3.49748,9.933243,-8.656835,-0.465782,2.042262,-0.555596,27.86,4,WALK
1759259147.29312,3.860201,9.813982,2.347215,-0.064762,1.791593,-0.332017,27.88,4,WALK
1759259147.31247,4.468179,8.34065,3.051709,0.289842,-0.35027,0.041474,27.90,4,WALK
1759259147.33298,4.902577,8.35322,0.123301,0.272073,-1.003314,0.019561,27.92,4,WALK
1759259147.35344,5.326949,9.217377,1.178097,0.308923,-0.982843,-0.068051,27.94,4,WALK
1759259147.37263,5.739799,9.476101,0.119411,0.479075,-0.869714,-0.076727,27.96,4,WALK
1759259147.39298,5.222652,9.861866,0.981473,0.464843,-0.523856,-0.031835,27.98,4,WALK
1759259147.41344,4.290858,9.209596,1.034295,0.553068,-0.637837,0.351048,28.00,4,WALK
1759259147.43292,4.099771,9.09647,0.980426,0.610443,-0.718929,0.638085,28.02,4,WALK
1759259147.45343,4.236689,10.274866,0.490961,0.74335,-0.620664,0.814505,28.04,4,WALK
1759259147.47343,4.165761,10.472837,0.645537,0.942164,-0.399228,0.917437,28.06,4,WALK
1759259147.49295,2.9317,10.960356,-1.417966,1.971595,-0.659236,0.699513,28.08,4,WALK
1759259147.51342,0.888249,12.135759,-5.116259,3.307238,-0.793389,0.753493,28.10,4,WALK
1759259147.53341,1.210119,11.142315,0.018106,2.022511,0.134193,1.266168,28.12,4,WALK
1759259147.55343,2.170793,12.20145,1.096245,1.419972,-0.261178,1.048888,28.14,4,WALK
1759259147.57343,2.350807,12.120646,1.413477,0.963047,-0.104897,0.798829,28.16,4,WALK
1759259147.59279,3.083732,13.159281,-0.716465,1.278485,0.09484,0.511419,28.18,4,WALK
1759259147.61342,2.850746,11.501296,-0.2273,2.589822,-0.114127,0.349814,28.20,4,WALK
1759259147.63242,2.591723,8.56795,-1.030853,2.379465,-0.551264,0.009965,28.22,4,WALK
1759259147.65351,3.148076,6.692991,-4.055927,1.392772,-0.279794,-0.041457,28.24,4,WALK
1759259147.67343,3.145382,6.58166,-2.018312,1.229807,0.388387,0.551853,28.26,4,WALK
1759259147.69330,3.656844,6.336554,0.666935,1.040416,-0.091914,0.913518,28.28,4,WALK
1759259147.71343,4.020014,6.121674,0.035015,0.808466,-0.925774,0.940117,28.30,4,WALK
1759259147.73292,4.328567,5.808932,-1.334319,0.704733,-1.046718,0.963225,28.32,4,WALK
1759259147.75343,3.373879,5.658396,-1.207875,0.451684,-0.697246,0.715314,28.34,4,WALK
1759259147.77343,1.812111,5.940314,-1.148469,0.020854,-0.534284,0.411579,28.36,4,WALK
1759259147.79249,0.56997,5.740398,-1.161487,-0.330012,-0.304519,-0.009556,28.38,4,WALK
1759259147.81344,-0.164601,5.982362,-1.318008,-0.608231,-0.108315,-0.559232,28.40,4,WALK
1759259147.83340,-0.203058,6.318149,-1.944241,-0.832743,0.10174,-0.882451,28.42,4,WALK
1759259147.85248,1.224784,6.082918,-2.718466,-1.101648,0.448723,-1.141589,28.44,4,WALK
1759259147.87335,2.773683,7.485172,-4.521899,-1.434137,1.178542,-1.37251,28.46,4,WALK
1759259147.89313,5.090971,9.570671,-6.427384,-1.737582,2.247043,-1.187276,28.48,4,WALK
1759259147.91343,7.874978,12.609213,-5.441272,-1.090218,2.094768,-0.368348,28.50,4,WALK
1759259147.93341,8.316559,11.996746,-1.520318,-0.836942,1.161869,0.303377,28.52,4,WALK
1759259147.95343,8.960749,9.736919,-4.111592,-0.509118,1.271397,0.081549,28.54,4,WALK
1759259147.97325,9.408913,8.198944,-6.610092,-0.245306,2.632678,0.093341,28.56,4,WALK
1759259147.99298,8.612093,5.205892,-5.508011,0.02122,3.541511,0.289306,28.58,4,WALK
1759259148.01343,8.089708,3.484461,0.488118,0.284119,2.498965,-0.195067,28.60,4,WALK
1759259148.03340,4.975151,11.525986,1.684321,-0.921271,-0.152148,-1.041059,28.62,4,WALK
1759259148.05343,4.077774,16.646585,3.373131,-1.376768,-2.296123,-0.829613,28.64,4,WALK
1759259148.07343,2.207604,15.811457,-0.430058,-0.679081,-3.240512,-0.785361,28.66,4,WALK
1759259148.09342,1.576432,12.056601,0.079458,-0.764062,-2.628918,-0.714688,28.68,4,WALK
1759259148.11343,0.884508,7.971794,1.010503,-0.323269,-1.932749,-0.765254,28.70,4,WALK
1759259148.13340,0.554407,5.952135,1.526154,0.42998,-1.332134,-0.805333,28.72,4,WALK
1759259148.15296,0.807295,5.805789,2.606537,0.705713,-1.317793,-0.511037,28.74,4,WALK
1759259148.17343,1.330877,7.072921,2.766799,0.57644,-1.756296,-0.035665,28.76,4,WALK
1759259148.19323,1.719486,8.732851,1.884386,0.344868,-1.984058,0.265434,28.78,4,WALK
1759259148.21343,2.004845,10.164882,1.359009,0.080148,-1.465543,0.41044,28.80,4,WALK
1759259148.23340,2.282572,10.818948,0.498144,-0.260425,-0.510888,0.382661,28.82,4,WALK
1759259148.25313,2.144606,9.893141,-0.140959,-0.4347,0.830499,0.208333,28.84,4,WALK
1759259148.27342,1.912219,8.31177,0.28895,-0.597468,1.561163,0.175374,28.86,4,WALK
1759259148.29251,1.9613,7.123498,0.583437,-0.789157,1.714919,0.134194,28.88,4,WALK
1759259148.31344,2.220323,7.049128,0.820762,-0.877153,1.566316,0.052361,28.90,4,WALK
1759259148.33340,2.749441,7.709778,0.904559,-0.896354,1.235935,-0.031625,28.92,4,WALK
1759259148.35341,3.626018,8.088062,-1.883189,-1.169363,1.118372,-0.180797,28.94,4,WALK
1759259148.37342,4.370914,9.107094,-1.232864,-2.331453,2.03451,-0.580803,28.96,4,WALK
1759259148.39342,4.709844,10.387543,2.614019,-2.489209,1.474132,-0.691251,28.98,4,WALK
1759259148.41343,5.286397,9.708338,-0.149937,-2.332081,0.41475,-0.779076,29.00,4,WALK
1759259148.43340,5.49185,9.869498,-3.455432,-2.767838,0.31221,-1.040919,29.02,4,WALK
1759259148.45343,5.306149,8.854356,-7.273435,0.322599,0.517797,-0.812842,29.04,4,WALK
1759259148.47340,4.234744,8.811859,3.736451,0.708242,0.122245,-0.149356,29.06,4,WALK
1759259148.49342,4.908862,7.907599,0.58209,1.076319,-0.849594,0.076545,29.08,4,WALK
1759259148.51342,5.697302,9.082404,0.752976,0.667908,-0.57717,-0.060624,29.10,4,WALK
1759259148.53300,5.642834,9.875034,1.543213,0.589397,-0.742216,0.01815,29.12,4,WALK
1759259148.55343,4.853795,9.037662,1.092504,0.574917,-0.893013,0.26872,29.14,4,WALK
1759259148.57339,4.5421,9.01387,1.20144,0.654418,-0.953718,0.47561,29.16,4,WALK
1759259148.59342,5.066729,11.194988,0.418836,0.77601,-0.862095,0.730325,29.18,4,WALK
1759259148.61343,4.989965,11.172991,0.333243,0.880408,-0.505558,0.965069,29.20,4,WALK
1759259148.63340,4.073884,10.437073,0.118812,1.101439,-0.37426,0.791451,29.22,4,WALK
1759259148.65341,1.73026,12.136657,-5.344157,3.365883,-0.879123,0.712665,29.24,4,WALK
1759259148.67341,0.837821,12.243049,-3.292476,1.754365,0.770423,1.511892,29.26,4,WALK
1759259148.69315,2.186804,11.377097,2.697068,1.275194,0.367123,1.308188,29.28,4,WALK
1759259148.71330,2.486678,11.834539,1.764227,0.632469,-0.246708,0.810663,29.30,4,WALK
1759259148.73341,2.899977,12.62672,0.186897,1.202768,-0.768453,0.385043,29.32,4,WALK
1759259148.75342,2.288408,10.883293,-0.433351,2.3661,-1.307427,0.225453,29.34,4,WALK
1759259148.77342,2.306215,7.840861,-1.967734,2.21564,-1.402586,-0.015588,29.36,4,WALK
1759259148.79342,3.22065,6.727108,-5.388749,1.249192,-0.392542,0.120416,29.38,4,WALK
1759259148.81342,3.349488,7.163002,-1.518223,1.081972,0.588197,0.8386,29.40,4,WALK
1759259148.83340,4.11668,6.973262,1.232715,0.849188,-0.066025,1.203035,29.42,4,WALK
1759259148.85342,4.438551,6.530484,0.017508,0.717889,-1.055573,1.267413,29.44,4,WALK
1759259148.87346,4.060865,5.605125,-1.157148,0.665686,-1.21849,0.973267,29.46,4,WALK
1759259148.89342,2.419042,5.92939,-1.332972,0.31579,-0.980346,0.608974,29.48,4,WALK
1759259148.91343,1.092355,5.640589,-1.265934,-0.138361,-0.650647,0.339605,29.50,4,WALK
1759259148.93340,0.124648,5.448156,-1.229273,-0.490875,-0.330433,-0.120864,29.52,4,WALK
1759259148.95344,-0.422726,5.682638,-1.457321,-0.725441,-0.014829,-0.597356,29.54,4,WALK
1759259148.97342,-0.28506,5.845892,-2.064101,-0.881168,0.30859,-0.878327,29.56,4,WALK
1759259148.99343,1.079785,5.785139,-2.206257,-1.08436,0.656617,-1.207593,29.58,4,WALK
1759259149.01342,2.849848,7.810484,-3.664475,-1.450299,1.111193,-1.447262,29.60,4,WALK
1759259149.03252,5.329942,10.437971,-7.26715,-1.813513,1.883502,-1.261433,29.62,4,WALK
1759259149.05342,7.813477,12.884845,-6.380697,-1.456428,2.048879,-0.554817,29.64,4,WALK
1759259149.07276,7.918672,12.164041,-0.14455,-0.964459,1.298294,0.207515,29.66,4,WALK
1759259149.09340,8.651148,10.434829,-3.158999,-0.21233,0.743381,0.039408,29.68,4,WALK
1759259149.11342,9.563639,9.276634,-10.850821,0.040257,2.716237,0.157622,29.70,4,WALK
1759259149.13339,8.450634,5.834969,-5.537489,0.075071,4.44767,0.4103,29.72,4,WALK
1759259149.15342,8.045715,4.468179,0.571616,0.562007,3.042109,-0.033771,29.74,4,WALK
1759259149.17342,4.897938,13.736133,3.024625,-0.857176,-0.028596,-0.937642,29.76,4,WALK
1759259149.19302,3.911527,16.760908,3.641431,-1.24081,-2.272458,-0.654297,29.78,4,WALK
1759259149.21340,2.150292,13.048998,0.571167,-0.726464,-2.775134,-0.610689,29.80,4,WALK
1759259149.23264,1.150713,8.778939,0.572214,-0.668423,-2.238816,-0.638818,29.82,4,WALK
1759259149.25342,0.38008,5.882853,0.740257,-0.089173,-1.635213,-0.794231,29.84,4,WALK
1759259149.27341,0.256329,5.203648,1.177947,0.376248,-1.203643,-0.781405,29.86,4,WALK
1759259149.29342,0.68534,6.212055,2.12635,0.509017,-1.097781,-0.425011,29.88,4,WALK
1759259149.31343,1.520468,8.10961,2.646491,0.371993,-1.649288,-0.000383,29.90,4,WALK
1759259149.33316,2.05228,10.172813,1.970877,0.134813,-1.959445,0.205297,29.92,4,WALK
1759259149.35341,2.410662,11.308563,0.915034,-0.120563,-1.56532,0.253409,29.94,4,WALK
1759259149.37341,2.656666,10.541221,0.155174,-0.514621,-0.32406,0.13905,29.96,4,WALK
1759259149.39339,2.567632,9.18715,-0.254384,-0.700452,0.460122,-0.025941,29.98,4,WALK
1759259149.41243,2.316091,8.054693,-0.081552,-0.798258,0.716804,-0.035324,30.00,4,WALK
1759259149.43339,2.540398,6.999598,-0.281319,-1.132242,1.048956,0.060356,30.02,4,WALK
1759259149.45326,3.123835,7.251887,-0.774524,-1.444974,1.422592,-0.06223,30.04,4,WALK
1759259149.47338,3.849876,8.470835,-0.024391,-1.679265,1.741871,-0.241494,30.06,4,WALK
1759259149.49340,4.354903,9.351602,0.426617,-1.692341,1.670437,-0.373745,30.08,4,WALK
1759259149.51341,4.879533,9.380332,-0.480187,-1.805115,1.638047,-0.544478,30.10,4,WALK
1759259149.53247,4.907365,9.335591,-0.29329,-1.946272,1.709155,-0.669199,30.12,4,WALK
1759259149.55309,4.592228,9.494207,0.740108,-1.991905,1.19406,-0.635915,30.14,4,WALK
1759259149.57325,4.912902,9.031826,-8.856601,-0.129011,0.512106,-0.545182,30.16,4,WALK
1759259149.59344,4.555268,9.704298,3.3447,0.548284,0.25614,-0.250885,30.18,4,WALK
1759259149.61345,5.087978,8.639327,1.021426,1.006888,-0.796971,0.058608,30.20,4,WALK
1759259149.63339,5.568315,9.087791,0.513407,0.702416,-0.567203,-0.112045,30.22,4,WALK
1759259149.65294,5.152771,10.15351,1.489193,0.591241,-0.676269,-0.004026,30.24,4,WALK
1759259149.67309,4.722263,8.827721,0.694318,0.543013,-0.784737,0.281958,30.26,4,WALK
1759259149.69293,4.137629,8.504055,0.510264,0.465436,-0.55722,0.368998,30.28,4,WALK
1759259149.71340,4.384232,9.409961,0.864606,0.65137,-0.459501,0.395711,30.30,4,WALK
1759259149.73339,4.83913,11.346271,0.535703,0.81684,-0.363034,0.624749,30.32,4,WALK
1759259149.75286,3.978565,11.146804,-2.565537,1.862236,-0.490856,0.736797,30.34,4,WALK
1759259149.77295,2.161066,11.068095,-5.242703,3.327874,-0.254249,0.868207,30.36,4,WALK
1759259149.79341,2.472911,10.616638,1.278354,1.912702,0.262217,1.275536,30.38,4,WALK
1759259149.81342,3.011158,12.527959,2.450914,1.482797,-0.948362,1.333677,30.40,4,WALK
1759259149.83263,3.004274,12.660987,1.765125,0.814735,-1.711867,1.316564,30.42,4,WALK
1759259149.85270,3.29517,13.385084,-2.223615,1.183328,-1.45496,0.992306,30.44,4,WALK
1759259149.87279,2.779668,12.835465,-2.959981,2.430216,-0.505475,0.550771,30.46,4,WALK
1759259149.89347,1.760486,9.334094,-2.872593,1.942971,0.38508,0.309007,30.48,4,WALK
1759259149.91344,2.176329,6.821829,-0.384868,1.290044,0.047118,0.249642,30.50,4,WALK
1759259149.93240,2.270152,6.30947,-0.173879,1.311694,-0.523632,0.381196,30.52,4,WALK
1759259149.95251,2.810643,6.517615,0.184802,1.263787,-0.815341,0.594551,30.54,4,WALK
1759259149.97250,3.859004,6.727707,-0.540641,1.008533,-0.927512,0.894576,30.56,4,WALK
1759259149.99346,4.339341,6.365284,-1.216554,0.833386,-0.646023,1.157753,30.58,4,WALK
1759259150.01334,3.6335,5.32261,-0.824204,0.54866,-0.470911,0.818795,30.60,4,WALK
1759259150.03339,1.872715,5.666327,-1.046266,0.175043,-0.641185,0.431987,30.62,4,WALK
1759259150.05339,0.511312,5.428703,-1.740585,-0.212918,-0.681892,0.121969,30.64,4,WALK
1759259150.07340,0.091578,5.436933,-2.523788,-0.610258,-0.352002,-0.308295,30.66,4,WALK
1759259150.09342,0.955735,5.473444,-2.701557,-0.974854,0.055086,-0.789802,30.68,4,WALK
1759259150.11341,2.013973,6.239888,-2.701408,-1.34675,0.377791,-1.271618,30.70,4,WALK
1759259150.13339,3.401113,8.084022,-3.310283,-1.702244,0.851043,-1.383067,30.72,4,WALK
1759259150.15341,5.236418,9.826552,-6.265626,-1.925654,1.367658,-1.151214,30.74,4,WALK
1759259150.17340,7.076662,10.997466,-7.674314,-1.191328,1.793206,-0.592676,30.76,4,WALK
1759259150.19283,7.631219,10.981305,-4.501847,-0.608437,2.333079,0.053676,30.78,4,WALK
1759259150.21338,8.077887,10.474782,-3.306243,-0.239483,2.467184,0.094032,30.80,4,WALK
1759259150.23339,8.667908,8.038831,-4.329914,-0.274918,2.299659,0.063457,30.82,4,WALK
1759259150.25341,7.897723,4.973206,-3.41892,-0.449403,1.53985,-0.067072,30.84,4,WALK
1759259150.27283,6.924929,3.752462,-1.492635,-0.289841,0.525001,-0.425585,30.86,4,WALK
1759259150.29346,5.73546,9.097966,-0.722001,-1.006486,-0.198167,-0.885632,30.88,4,WALK
1759259150.31342,5.340416,15.575778,4.166509,-1.657519,-0.705967,-0.708632,30.90,4,WALK
1759259150.33338,3.565714,16.927305,1.962348,-1.115841,-2.010838,-0.424422,30.92,4,WALK
1759259150.35275,1.851765,13.955203,-0.567725,-0.729564,-2.081947,-0.364513,30.94,4,WALK
1759259150.37292,1.087566,9.083003,1.154454,-0.603101,-1.463883,-0.348506,30.96,4,WALK
1759259150.39346,0.516399,5.989095,1.081132,-0.025107,-1.155598,-0.537857,30.98,4,WALK
1759259150.41342,0.585382,5.072565,1.358859,0.439142,-1.008445,-0.574257,31.00,4,WALK
1759259150.43338,0.797718,6.046257,1.903989,0.659711,-1.195447,-0.311477,31.02,4,WALK
1759259150.45342,1.144428,8.012944,2.495057,0.605443,-1.706651,0.023991,31.04,4,WALK
1759259150.47342,1.428441,10.151415,1.600225,0.330043,-1.920144,0.221954,31.06,4,WALK
1759259150.49341,2.143858,11.33849,0.855777,0.083873,-1.445548,0.291332,31.08,4,WALK
1759259150.51341,2.417395,10.559926,0.165948,-0.187219,-0.700959,0.144363,31.10,4,WALK
1759259150.53339,2.245761,9.034969,-0.172233,-0.436951,0.261397,-0.053695,31.12,4,WALK
1759259150.55341,2.29574,7.738958,0.21473,-0.610119,0.818384,-0.136478,31.14,4,WALK
1759259150.57341,2.439691,7.430255,0.390554,-0.788948,0.965518,-0.117784,31.16,4,WALK
1759259150.59342,2.890101,7.645584,0.560842,-0.933937,0.909366,-0.093774,31.18,4,WALK
1759259150.61342,3.539827,7.80809,-0.927304,-1.117307,0.886718,-0.166894,31.20,4,WALK
1759259150.63339,4.260332,8.323292,-1.979257,-1.860815,1.767987,-0.443022,31.22,4,WALK
1759259150.65329,4.737975,9.563938,0.903961,-2.260707,2.077902,-0.637315,31.24,4,WALK
1759259150.67341,5.190928,9.592369,0.127192,-2.188183,1.644383,-0.691095,31.26,4,WALK
1759259150.69279,5.109226,9.686641,-0.148141,-2.480978,1.780179,-0.803031,31.28,4,WALK
1759259150.71342,4.905869,9.319729,-5.55365,-2.188658,1.316003,-0.653608,31.30,4,WALK
1759259150.73338,5.00044,9.600898,-1.642422,0.604442,1.524899,-0.385256,31.32,4,WALK
1759259150.75340,4.925771,9.69083,3.739294,1.009479,-0.322449,0.153552,31.34,4,WALK
1759259150.77310,5.35553,8.817545,-0.427066,0.799602,-0.847907,0.222064,31.36,4,WALK
1759259150.79346,5.175965,9.2494,2.10166,0.616521,-0.910695,0.053239,31.38,4,WALK
1759259150.81346,4.765808,8.759935,0.629376,0.655085,-1.148549,0.222898,31.40,4,WALK
1759259150.83256,4.676624,8.710854,0.58643,0.551516,-0.868014,0.335,31.42,4,WALK
1759259150.85341,4.448127,9.211541,0.968903,0.709717,-0.739254,0.435216,31.44,4,WALK
1759259150.87341,4.84751,10.758794,0.530465,0.796963,-0.620159,0.546763,31.46,4,WALK
1759259150.89341,4.524592,9.852289,0.704344,0.79131,-0.45201,0.689304,31.48,4,WALK
1759259150.91339,3.01849,9.167099,-2.833089,1.721448,-0.69032,0.51448,31.50,4,WALK
1759259150.93338,0.645088,10.995371,-6.770054,3.433383,-0.22465,0.793656,31.52,4,WALK
1759259150.95342,1.949778,10.655095,1.279102,1.719869,0.253319,1.494596,31.54,4,WALK
1759259150.97340,3.575291,12.160898,3.368941,1.120286,-1.134628,1.520682,31.56,4,WALK
1759259150.99341,3.782839,13.187263,1.031452,0.591282,-1.790231,1.115016,31.58,4,WALK
1759259151.01342,4.140173,14.503774,-3.395277,1.716099,-1.100733,0.780667,31.60,4,WALK
1759259151.03338,2.648735,11.993753,-4.357597,2.296515,0.192755,0.407238,31.62,4,WALK
1759259151.05340,2.655319,8.165874,-1.130362,1.32898,0.697093,0.387415,31.64,4,WALK
1759259151.07340,2.58903,6.692392,0.522684,1.002911,-0.357934,0.422178,31.66,4,WALK
1759259151.09341,2.761412,6.413617,-0.013018,1.077162,-1.030347,0.518916,31.68,4,WALK
1759259151.11339,3.591602,6.19365,-1.107618,0.903942,-1.300255,0.714002,31.70,4,WALK
1759259151.13338,4.237737,6.513725,-2.278681,0.621235,-0.828885,0.88921,31.72,4,WALK
1759259151.15341,4.272752,6.061071,-1.211017,0.363564,-0.305081,0.99548,31.74,4,WALK
1759259151.17341,2.876334,5.459079,-0.214281,0.154273,-0.573516,0.777875,31.76,4,WALK
1759259151.19341,1.290624,5.49574,-1.00766,-0.100429,-0.940998,0.439575,31.78,4,WALK
1759259151.21339,0.268151,5.459977,-1.931373,-0.431986,-0.696588,0.014892,31.80,4,WALK
1759259151.23338,-0.231489,5.600337,-2.125752,-0.704744,-0.206054,-0.463847,31.82,4,WALK
1759259151.25342,0.248847,5.601833,-1.96564,-0.887311,0.166292,-0.834146,31.84,4,WALK
1759259151.27328,1.665915,6.472874,-2.010082,-1.106371,0.51457,-1.303752,31.86,4,WALK
1759259151.29341,3.546411,8.780735,-3.680337,-1.305066,1.0043,-1.325373,31.88,4,WALK
1759259151.31340,5.920561,10.316465,-7.136816,-1.324556,1.782845,-0.951448,31.90,4,WALK
1759259151.33306,7.843105,11.624597,-7.011868,-0.864718,1.841395,-0.388288,31.92,4,WALK
1759259151.35341,8.37372,10.553491,-3.723881,-0.699585,1.959725,0.142181,31.94,4,WALK
1759259151.37313,8.674043,8.583363,-2.037166,-0.479451,1.633112,0.08257,31.96,4,WALK
1759259151.39341,9.17488,7.546524,-4.436007,-0.385348,1.568723,-0.091965,31.98,4,WALK
1759259151.41341,9.142558,6.465242,-4.896591,-0.34128,1.737118,-0.100472,32.00,4,WALK
1759259151.43338,8.194006,8.154202,-2.445976,-0.487286,0.959116,-0.353743,32.02,4,WALK
1759259151.45342,5.820454,13.838486,0.698508,-1.352408,-0.026391,-0.385269,32.04,4,WALK
1759259151.47298,4.162768,15.681871,3.349787,-1.261574,-1.384673,-0.370266,32.06,4,WALK
1759259151.49341,2.174983,13.763068,1.011101,-0.611311,-2.074391,-0.543352,32.08,4,WALK
1759259151.51340,0.707487,9.496152,0.364218,-0.584785,-1.715169,-0.636376,32.10,4,WALK
1759259151.53338,-0.034117,6.055385,0.85488,-0.292536,-1.240826,-0.704263,32.12,4,WALK
1759259151.55341,-0.110433,4.509928,1.286135,0.080358,-1.064062,-0.696707,32.14,4,WALK
1759259151.57283,0.090531,5.142296,1.868375,0.267679,-1.211559,-0.529051,32.16,4,WALK
1759259151.59343,0.738611,7.502381,2.421286,0.232728,-1.670704,-0.162531,32.18,4,WALK
1759259151.61341,1.365443,10.197204,2.085649,0.094503,-1.947466,0.070144,32.20,4,WALK
1759259151.63338,1.782932,11.974749,1.220744,-0.026666,-1.567319,0.221818,32.22,4,WALK
1759259151.65341,2.166154,11.376648,0.649726,-0.226835,-0.612353,0.128778,32.24,4,WALK
1759259151.67269,2.396147,9.723601,0.750283,-0.386807,0.301069,-0.139419,32.26,4,WALK
1759259151.69341,2.520047,8.822184,0.972345,-0.502104,0.556855,-0.133706,32.28,4,WALK
1759259151.71339,2.576311,7.965359,0.63192,-0.670204,0.479938,0.001801,32.30,4,WALK
1759259151.73338,2.919879,7.297976,-0.237475,-0.892624,0.419328,0.064894,32.32,4,WALK
1759259151.75327,3.524115,6.714688,-2.941875,-1.61862,1.215238,-0.154575,32.34,4,WALK
1759259151.77259,4.128651,8.496722,0.385018,-2.230372,2.027625,-0.364641,32.36,4,WALK
1759259151.79341,4.701314,9.561244,1.87466,-1.910721,1.520784,-0.365375,32.38,4,WALK
1759259151.81340,5.28535,9.382427,-1.676091,-1.695449,1.286866,-0.416899,32.40,4,WALK
1759259151.83338,5.221455,9.624541,-0.863409,-2.220746,2.371995,-0.672223,32.42,4,WALK
1759259151.85310,4.28592,9.75727,-8.313716,-0.907647,2.189531,-0.540705,32.44,4,WALK
1759259151.87243,4.366276,9.432406,1.720982,0.402771,2.495278,-0.290236,32.46,4,WALK
1759259151.89341,4.881927,8.713398,4.074033,0.821956,0.089546,0.238553,32.48,4,WALK
1759259151.91340,5.477784,8.221689,-0.048782,0.766501,-0.771161,0.243628,32.50,4,WALK
1759259151.93291,5.370194,8.850615,1.637035,0.657358,-0.913261,-0.0022,32.52,4,WALK
1759259151.95295,4.932504,9.275885,1.058686,0.72822,-1.090881,0.070857,32.54,4,WALK
1759259151.97340,4.472668,9.623045,0.959027,0.70426,-1.132166,0.312177,32.56,4,WALK
1759259151.99340,4.268263,9.897031,0.651672,0.581599,-0.989182,0.627851,32.58,4,WALK
1759259152.01341,4.166061,9.920225,0.683245,0.642978,-0.724397,0.683445,32.60,4,WALK
1759259152.03275,4.241628,10.745027,0.033668,0.67075,-0.507791,0.638795,32.62,4,WALK
1759259152.05280,4.048146,9.872491,0.346561,0.839679,0.014352,0.294185,32.64,4,WALK
1759259152.07338,3.65849,9.639654,0.228796,0.907467,-0.01271,0.14964,32.66,4,WALK
1759259152.09339,2.185756,10.922797,-5.909638,3.349297,-0.629721,0.362403,32.68,4,WALK
1759259152.11343,1.058087,9.768043,-3.205986,2.509049,0.89551,1.388746,32.70,4,WALK
1759259152.13338,2.662801,10.660183,1.609053,1.560546,0.411203,1.437755,32.72,4,WALK
1759259152.15279,3.077746,10.959458,3.695001,0.88611,-0.637105,0.85926,32.74,4,WALK
1759259152.17341,3.431938,13.139379,-0.281019,0.716482,-1.181583,0.496466,32.76,4,WALK
1759259152.19340,3.197456,11.962778,-1.324442,2.165596,-0.991023,0.446558,32.78,4,WALK
1759259152.21341,2.873042,8.518719,-3.545962,2.021808,-0.479947,0.234613,32.80,4,WALK
1759259152.23338,3.425354,7.369802,-3.29906,1.024101,0.403447,0.312023,32.82,4,WALK
1759259152.25264,3.90629,7.331644,-0.610372,1.030427,0.370604,0.836965,32.84,4,WALK
1759259152.27344,4.163666,6.438308,0.662895,0.907097,-0.431682,0.890225,32.86,4,WALK
1759259152.29341,4.426879,6.192453,-0.926556,0.681137,-0.91695,0.835332,32.88,4,WALK
1759259152.31340,4.345626,6.369175,-1.834407,0.46999,-0.666847,0.91252,32.90,4,WALK
1759259152.33338,2.93993,6.462698,-1.394174,0.112607,-0.44632,0.845491,32.92,4,WALK
1759259152.35250,1.686865,6.305878,-1.164181,-0.275837,-0.51031,0.537971,32.94,4,WALK
1759259152.37341,0.763601,5.934627,-1.492186,-0.524127,-0.545741,0.099487,32.96,4,WALK
1759259152.39340,0.177919,5.778406,-1.99422,-0.804476,0.115786,-0.565426,32.98,4,WALK
1759259152.41337,0.988805,5.23971,-1.920599,-0.891453,0.509091,-0.841983,33.00,4,WALK
1759259152.43339,2.03148,6.097732,-1.389236,-1.023942,0.678102,-1.317276,33.02,4,WALK
1759259152.45337,3.396175,8.793304,-2.753781,-1.216793,0.710454,-1.456409,33.04,4,WALK
1759259152.47338,6.018424,11.408072,-7.280019,-1.291645,0.919946,-1.126697,33.06,4,WALK
1759259152.49338,7.780108,12.590059,-5.92101,-1.094306,1.066027,-0.332748,33.08,4,WALK
1759259152.51307,7.870489,10.780791,-1.411681,-0.75007,1.007852,0.172238,33.10,4,WALK
1759259152.53288,8.215404,9.71582,-2.208801,-0.213502,1.268871,0.01026,33.12,4,WALK
1759259152.55339,9.065944,7.753024,-7.016657,0.057174,2.967405,0.258332,33.14,4,WALK
1759259152.57339,8.754099,5.447856,-3.520973,0.263242,3.377782,0.371859,33.16,4,WALK
1759259152.59339,8.752303,8.160187,-0.370952,-0.065267,1.326368,-0.36439,33.18,4,WALK
1759259152.61283,5.676054,15.349376,2.777872,-1.219101,-0.824272,-0.611595,33.20,4,WALK
1759259152.63337,4.009689,15.291616,2.857031,-1.224799,-2.305665,-0.574109,33.22,4,WALK
1759259152.65343,2.152088,12.18903,0.574758,-0.87498,-2.410965,-0.78147,33.24,4,WALK
1759259152.67339,0.717512,7.938425,0.363919,-0.77511,-1.898959,-0.826109,33.26,4,WALK
1759259152.69339,0.105943,5.224747,0.399532,-0.344962,-1.397877,-0.808978,33.28,4,WALK
1759259152.71339,-0.100108,4.155885,0.634314,0.098405,-1.007521,-0.752675,33.30,4,WALK
1759259152.73337,0.059406,5.249437,1.308431,0.392371,-0.850282,-0.51175,33.32,4,WALK
1759259152.75338,0.79293,8.335563,2.278233,0.487098,-0.958935,-0.180566,33.34,4,WALK
1759259152.77340,1.404499,11.587188,2.272846,0.378195,-1.211661,0.026142,33.36,4,WALK
1759259152.79339,2.007239,12.538434,1.679682,0.117942,-1.025968,0.16112,33.38,4,WALK
1759259152.81339,2.471115,10.629956,1.299154,-0.256514,-0.685695,0.007297,33.40,4,WALK
1759259152.83337,2.324919,8.797793,0.38816,-0.496023,-0.324694,-0.182325,33.42,4,WALK
1759259152.85305,2.31654,8.139986,0.291793,-0.671581,0.03174,-0.197129,33.44,4,WALK
1759259152.87339,2.457049,7.516596,0.106093,-0.921908,0.171987,-0.070507,33.46,4,WALK
1759259152.89293,2.876334,6.752696,-1.786074,-1.347662,0.581042,-0.049764,33.48,4,WALK
1759259152.91339,3.476231,7.481581,-0.994043,-1.994324,1.496448,-0.229178,33.50,4,WALK
1759259152.93288,4.131345,8.949376,1.068712,-2.041725,1.607306,-0.313779,33.52,4,WALK
1759259152.95286,4.789451,9.882516,0.037709,-1.793662,1.271576,-0.349767,33.54,4,WALK
1759259152.97340,5.372439,9.989358,-1.948132,-2.13734,1.953687,-0.512458,33.56,4,WALK
1759259152.99340,5.105635,10.156203,-1.095647,-2.154991,2.291666,-0.540646,33.58,4,WALK
1759259153.01320,4.101118,8.607903,-7.613861,0.284837,3.513669,-0.501145,33.60,4,WALK
1759259153.03337,4.392761,8.970325,5.479579,0.377176,1.590883,0.041753,33.62,4,WALK
1759259153.05293,4.620809,7.481282,2.39076,0.698158,-0.928386,0.353738,33.64,4,WALK
1759259153.07339,5.279664,8.491335,0.724845,0.310206,-1.30512,0.143531,33.66,4,WALK
1759259153.09339,5.146037,10.477176,1.367987,0.323466,-1.592869,0.031501,33.68,4,WALK
1759259153.11341,4.416105,10.813113,0.666486,0.338365,-1.530657,0.31571,33.70,4,WALK
1759259153.13338,3.963451,9.881618,0.560842,0.48738,-1.244132,0.4142,33.72,4,WALK
1759259153.15264,3.634697,9.54658,-0.037559,0.655587,-0.739415,0.337795,33.74,4,WALK
1759259153.17302,3.696498,9.823559,0.54932,0.799684,-0.208081,0.300578,33.76,4,WALK
1759259153.19340,4.255993,10.880749,0.585382,0.908582,0.059823,0.401966,33.78,4,WALK
1759259153.21245,4.545392,10.487202,0.891541,0.928883,0.260046,0.41206,33.80,4,WALK
1759259153.23238,4.289063,9.805752,1.428291,0.923786,0.132893,0.282626,33.82,4,WALK
1759259153.25307,3.298013,9.987113,-0.471059,0.938337,-0.208577,0.284151,33.84,4,WALK
1759259153.27280,0.661548,10.653898,-6.586598,3.591175,-0.672497,0.61821,33.86,4,WALK
1759259153.29341,1.079935,10.173262,-2.742259,1.9494,0.589843,1.620769,33.88,4,WALK
1759259153.31341,3.137003,10.399215,3.03495,1.251286,0.20109,1.337607,33.90,4,WALK
1759259153.33328,3.111564,11.129297,2.147898,0.600651,-0.698529,0.61089,33.92,4,WALK
1759259153.35337,3.180996,12.89532,-1.07754,1.26891,-0.752119,0.284202,33.94,4,WALK
