SamplingTime,AccelerationX,AccelerationY,AccelerationZ,GyroX,GyroY,GyroZ,Subject,Activity
1759223387.13394,-0.019902,8.226028,0.608426,-0.385744,2.78698,-0.121007,2,WALK
1759223387.15394,-0.125995,9.521441,1.2182,-0.351082,2.647429,-0.290669,2,WALK
1759223387.17302,-0.992397,10.476278,1.590498,-0.461542,2.045448,-0.445862,2,WALK
1759223387.19396,-0.801758,9.511265,1.449091,-0.965876,-0.113337,-0.914671,2,WALK
1759223387.21401,3.106926,8.181885,-0.078111,-0.872598,-1.003772,-0.903904,2,WALK
1759223387.23318,6.120777,8.442703,0.03726,-0.344217,-1.762824,-0.70425,2,WALK
1759223387.25394,8.238897,10.105476,0.537947,-0.072372,-1.459515,-0.36144,2,WALK
1759223387.27321,8.810512,10.513688,1.312172,-0.02396,-0.327659,0.165169,2,WALK
1759223387.29395,6.526893,10.033201,0.920421,0.313855,0.55269,0.669034,2,WALK
1759223387.31407,4.058172,11.365126,0.598251,0.478913,1.07329,0.933409,2,WALK
1759223387.33396,4.319439,15.360001,-1.135749,0.887978,0.620025,1.185554,2,WALK
1759223387.35403,6.112098,17.135601,-2.498349,1.60428,-0.801153,1.214919,2,WALK
1759223387.37343,7.884256,15.098584,-1.806425,1.747197,-1.935585,1.410711,2,WALK
1759223387.39414,7.18066,11.286117,-3.040636,2.116187,-2.335677,1.894599,2,WALK
1759223387.41396,6.648997,10.246136,-5.073912,2.918355,-2.773482,2.58457,2,WALK
1759223387.43396,4.047847,13.517962,0.326509,2.645403,-2.856978,2.394415,2,WALK
1759223387.45401,-1.268927,17.39193,4.60794,1.917044,-2.252477,1.072088,2,WALK
1759223387.47361,-0.958429,16.447417,6.7925,1.543598,-0.663863,0.30624,2,WALK
1759223387.49401,-2.6839,16.4133,7.128287,1.252684,1.096692,-0.463196,2,WALK
1759223387.51398,-5.108628,13.425935,3.235464,1.121788,1.136366,-0.47626,2,WALK
1759223387.53393,-3.962553,10.766126,-7.441927,1.375632,-0.375516,1.004525,2,WALK
1759223387.55398,-3.0143,8.726416,-3.506159,1.157346,0.406323,0.976274,2,WALK
1759223387.57382,-2.449867,6.966528,2.943821,0.501354,0.546279,0.371951,2,WALK
1759223387.59414,2.614019,6.930017,8.922292,-0.127938,-0.755373,1.313891,2,WALK
1759223387.61401,8.454824,8.301595,-0.49964,0.910023,-0.330334,1.522664,2,WALK
1759223387.63413,-0.846201,5.217265,-0.64,0.813956,-1.238672,0.744819,2,WALK
1759223387.65395,-1.27192,2.990208,0.502333,0.455368,-1.924319,0.507326,2,WALK
1759223387.67404,-1.262792,2.848501,0.478092,0.301621,-1.925271,0.313119,2,WALK
1759223387.69394,-2.343475,2.875885,1.079935,-0.111219,-1.900817,0.003839,2,WALK
1759223387.71401,-3.532495,3.188328,1.283292,-0.652967,-1.791991,-0.470253,2,WALK
1759223387.73400,-4.237587,3.596989,0.070928,-1.263754,-1.851037,-1.027122,2,WALK
1759223387.75403,-2.926912,4.685902,-2.169147,-1.636297,-1.664403,-1.450885,2,WALK
1759223387.77394,1.195754,7.542035,-6.35885,-1.244391,-1.00807,-1.359604,2,WALK
1759223387.79414,7.13098,13.15539,-12.760047,-0.579282,0.497928,-0.452528,2,WALK
1759223387.81400,6.069002,21.815068,-11.349713,-0.795585,1.935606,0.599442,2,WALK
1759223387.83410,7.199215,19.505112,-7.563732,-0.470159,1.592408,1.201012,2,WALK
1759223387.85400,6.2761,10.995221,-7.157466,0.223426,0.980806,0.967909,2,WALK
1759223387.87414,3.839551,5.960215,-7.369053,0.627854,1.381002,0.469239,2,WALK
1759223387.89394,-0.533009,9.126547,0.128239,0.360756,0.816939,-0.112855,2,WALK
1759223387.91398,-2.029984,14.60478,5.559785,-0.186851,0.124003,-0.449381,2,WALK
1759223387.93394,-1.253065,13.42773,-0.909048,0.093762,1.658365,-0.214815,2,WALK
1759223387.95409,-4.777779,9.594464,-0.248548,0.095713,2.450995,-0.087646,2,WALK
1759223387.97398,-6.520608,6.761225,3.385252,-0.200708,2.210267,-0.761943,2,WALK
1759223387.99402,-5.842151,7.082647,4.163666,-0.406042,2.02288,-1.519089,2,WALK
1759223388.01394,-2.725499,9.290999,3.122338,-0.394234,1.395145,-1.369167,2,WALK
1759223388.03402,-1.785626,9.452607,3.036147,-0.383021,0.637697,-1.010223,2,WALK
1759223388.05400,-0.40477,10.635044,3.325247,-0.419451,-0.626392,-0.990569,2,WALK
1759223388.07401,1.805078,12.240206,3.436278,-0.819538,-1.592714,-0.705529,2,WALK
1759223388.09400,3.745878,11.729194,3.30759,-1.161221,-2.425872,-0.290206,2,WALK
1759223388.11414,5.076007,10.62831,2.782212,-1.989249,-2.166149,-0.688767,2,WALK
1759223388.13393,7.740604,9.529222,0.678756,-3.3456,0.801103,-1.349263,2,WALK
1759223388.15400,8.341399,8.071003,-1.02382,-3.278993,1.684692,-1.285194,2,WALK
1759223388.17396,4.966173,7.963115,-3.884443,-2.372673,2.288948,-0.39915,2,WALK
1759223388.19414,2.300529,8.203732,-4.713435,-1.123593,3.400317,-0.049605,2,WALK
1759223388.21400,1.212214,8.253561,-2.925864,-0.389387,3.505664,0.244324,2,WALK
1759223388.23317,0.09068,9.520543,-1.062577,-0.199644,2.619006,0.182872,2,WALK
1759223388.25395,0.856226,10.306589,-1.248277,-0.057224,1.937502,-0.154852,2,WALK
1759223388.27312,1.689558,9.249549,-0.112079,-0.015921,1.420472,-0.390622,2,WALK
1759223388.29397,2.631228,8.340201,0.972196,-0.147936,0.616934,-0.63858,2,WALK
1759223388.31406,4.305822,7.633912,0.579846,0.011151,-0.09627,-0.902237,2,WALK
1759223388.33394,6.896947,8.23351,0.775871,0.171032,-0.636413,-0.727475,2,WALK
1759223388.35413,7.084592,9.02195,2.002899,0.132655,-1.071367,-0.458865,2,WALK
1759223388.37393,6.962937,9.474754,2.442086,-0.027714,-1.309823,-0.180514,2,WALK
1759223388.39397,6.850559,10.229526,2.177526,-0.075999,-1.160706,0.153428,2,WALK
1759223388.41399,6.230461,10.622773,0.9086,0.03625,-0.483459,0.569889,2,WALK
1759223388.43411,5.662137,11.55756,-0.543035,0.363865,0.418776,0.921658,2,WALK
1759223388.45400,7.145794,15.844228,-1.71769,0.970213,0.59295,1.626659,2,WALK
1759223388.47400,7.638551,15.956905,-2.327613,1.592331,0.331257,1.922859,2,WALK
1759223388.49394,8.277803,11.527931,-1.770213,2.007081,-0.668458,1.915866,2,WALK
1759223388.51396,9.531915,10.775703,-2.063951,2.129271,-1.851078,2.91727,2,WALK
1759223388.53392,5.673959,14.973636,-1.507748,2.054636,-2.131477,3.697979,2,WALK
1759223388.55393,-0.626084,17.688512,2.48967,1.735727,-2.796821,2.823466,2,WALK
1759223388.57394,-3.701136,17.82947,6.978499,1.088359,-3.704554,0.984869,2,WALK
1759223388.59393,-4.106654,16.026936,6.539762,0.662758,-2.542692,-0.361771,2,WALK
1759223388.61400,-4.283077,13.517064,4.465635,0.84561,-0.720041,-0.774642,2,WALK
1759223388.63392,-3.035249,9.980978,2.910302,0.845704,0.535642,-0.594765,2,WALK
1759223388.65392,1.553388,8.336909,-1.545906,-0.632219,-0.255827,0.544558,2,WALK
1759223388.67394,1.560421,9.694422,-3.971083,-0.60672,0.312397,1.716591,2,WALK
1759223388.69393,-0.32621,9.054272,-0.682647,0.338646,-0.588946,1.815915,2,WALK
1759223388.71394,-1.439065,5.452645,0.602441,0.877125,-1.528594,1.214992,2,WALK
1759223388.73400,-0.798167,4.02181,-0.287753,0.566679,-2.095846,0.756026,2,WALK
1759223388.75393,-0.298228,3.986944,-0.009427,0.361426,-1.880876,0.49686,2,WALK
1759223388.77394,-0.448314,4.809353,1.454328,0.30589,-2.168652,0.275121,2,WALK
1759223388.79305,-1.70946,4.993706,1.580023,0.061908,-2.325623,-0.162664,2,WALK
1759223388.81394,-2.802563,4.70326,0.834679,-0.431782,-1.860094,-0.965024,2,WALK
1759223388.83394,-3.238158,4.28188,-0.006584,-0.67831,-0.966506,-1.330917,2,WALK
1759223388.85395,-2.732981,3.789273,-2.430115,-0.644696,-0.262315,-1.455626,2,WALK
1759223388.87364,-0.318279,4.473117,-4.503194,-0.504615,0.128023,-1.306474,2,WALK
1759223388.89320,1.744176,7.411401,-7.30456,-0.378076,0.120678,-1.276954,2,WALK
1759223388.91393,5.489007,13.226169,-10.062231,-0.388233,1.21155,-0.325881,2,WALK
1759223388.93395,9.147197,18.999935,-9.491364,-0.464144,2.402807,0.903624,2,WALK
1759223388.95394,7.660996,17.814806,-8.830265,-0.368536,1.071265,0.89792,2,WALK
1759223388.97393,7.153276,11.567735,-6.139332,-0.294594,-1.102949,0.596144,2,WALK
1759223388.99339,3.957166,9.657162,-3.755455,-0.1868,-0.488471,0.668862,2,WALK
1759223389.01400,-1.747618,10.462063,-1.219098,-0.512227,0.282577,0.041217,2,WALK
1759223389.03394,-5.836315,13.638869,-2.430414,-0.385508,0.208449,-0.842357,2,WALK
1759223389.05392,-3.94325,16.881217,-0.560393,-0.563606,0.167712,-0.60131,2,WALK
1759223389.07393,-1.196652,14.278869,6.41646,0.056691,1.668735,-1.081369,2,WALK
1759223389.09359,-3.52636,8.201338,4.125209,0.353529,3.794527,-0.987997,2,WALK
1759223389.11392,-4.491522,5.050868,2.564789,-0.079895,4.882606,-0.780504,2,WALK
1759223389.13393,-4.329914,5.753117,2.650681,-0.446869,4.98007,-0.955911,2,WALK
1759223389.15394,-3.891027,7.538892,3.046622,-0.72762,3.894503,-1.180411,2,WALK
1759223389.17394,-3.250129,9.041553,3.00188,-0.635943,2.199041,-1.160173,2,WALK
1759223389.19380,-2.021903,11.390265,1.91581,-0.053379,0.863319,-0.876754,2,WALK
1759223389.21392,-0.136021,12.714258,2.000056,0.243057,-0.550622,-0.600251,2,WALK
1759223389.23316,2.106897,14.663438,3.156456,-0.329409,-2.135619,-0.34252,2,WALK
1759223389.25393,4.862773,13.190704,3.900304,-1.889063,-2.069483,-0.147022,2,WALK
1759223389.27396,6.802675,9.487772,3.437176,-3.001849,-1.360633,-0.751759,2,WALK
1759223389.29396,10.463858,8.552837,1.390133,-3.050822,1.298417,-1.063069,2,WALK
1759223389.31392,13.518111,5.703288,1.000627,-2.545642,4.444062,-0.069766,2,WALK
1759223389.37393,0.899023,10.658986,-3.251176,-1.138554,4.827568,0.469527,2,WALK
1759223389.39392,-3.165883,10.459818,-8.895207,-0.042781,-2.037171,-0.267571,2,WALK
1759223389.41294,0.123451,9.477896,1.234061,-0.222887,-0.412613,-0.370236,2,WALK
1759223389.43389,0.69357,8.670003,5.065083,-0.119789,1.299374,-0.383512,2,WALK
1759223389.45365,0.884059,7.581838,3.022081,-0.306909,0.970187,-0.477321,2,WALK
1759223389.47393,-0.055665,8.375666,1.586009,-0.349186,0.497145,-0.745919,2,WALK
1759223389.49394,-0.575955,9.426421,-0.45415,-0.21982,0.717324,-0.983111,2,WALK
1759223389.51315,-1.033248,9.769989,-0.13632,0.01843,1.096683,-1.127091,2,WALK
1759223389.53399,-0.66065,8.984092,-0.232088,0.302311,1.373183,-1.062042,2,WALK
1759223389.55392,2.67148,9.164106,1.16029,0.559056,1.413401,-0.96337,2,WALK
1759223389.57394,5.33069,10.261997,2.201169,0.669707,1.351527,-0.936422,2,WALK
1759223389.59414,6.686556,9.364621,2.8286,0.678708,1.079472,-0.634806,2,WALK
1759223389.61335,8.668057,9.132084,2.555062,0.755466,0.470525,-0.171684,2,WALK
1759223389.63393,10.562619,9.802759,2.011878,0.663548,-0.340974,0.276828,2,WALK
1759223389.65323,10.209474,10.050559,1.058237,0.65867,-0.669296,0.75986,2,WALK
1759223389.67397,9.688736,14.860959,0.262913,0.967916,-1.070907,1.37787,2,WALK
1759223389.69391,7.993491,14.532954,-0.50772,0.941582,-1.962687,1.686572,2,WALK
1759223389.71360,6.089053,11.180024,-4.260631,1.232266,-2.471354,2.156193,2,WALK
1759223389.73399,6.264878,13.182025,-3.192369,2.343259,-3.036363,3.056655,2,WALK
1759223389.75412,3.405752,16.220866,0.347159,2.576864,-2.982956,3.479874,2,WALK
1759223389.77393,1.874061,17.746122,1.959504,2.448285,-2.24548,2.988789,2,WALK
1759223389.79413,-1.616385,19.754109,4.917241,1.95239,-1.659538,1.848742,2,WALK
1759223389.81379,-3.437774,18.011729,6.568193,1.156561,-0.422551,0.715988,2,WALK
1759223389.83391,-4.600159,14.970344,4.144962,0.727909,0.760769,0.050416,2,WALK
1759223389.85392,-4.736329,10.710611,-0.636858,0.264918,0.244039,0.47622,2,WALK
1759223389.87375,-2.286163,9.460987,-2.341978,0.140877,-0.178297,1.090529,2,WALK
1759223389.89392,-2.588431,8.59279,0.123601,0.19965,1.16598,0.661366,2,WALK
1759223389.91393,2.672677,8.231116,5.824644,-0.447351,-0.871114,1.071609,2,WALK
1759223389.93391,2.773982,6.807613,-1.372775,0.165068,-0.760291,1.44926,2,WALK
1759223389.95314,-0.202609,5.382914,-0.071527,0.523156,-1.174809,0.933538,2,WALK
1759223389.97392,-0.443376,4.718971,0.120758,0.248546,-1.747915,0.77003,2,WALK
1759223389.99393,-1.191864,4.204817,0.914735,-0.102892,-2.000711,0.543484,2,WALK
1759223390.01398,-2.08505,4.224569,1.287632,-0.30495,-2.05403,0.205751,2,WALK
1759223390.03313,-3.290531,3.980809,1.455675,-0.412885,-2.018331,-0.218086,2,WALK
1759223390.05398,-4.372411,3.292925,0.641945,-0.4224,-1.994139,-0.786818,2,WALK
1759223390.07392,-4.530877,2.91524,-0.430208,-0.562912,-1.684624,-1.39581,2,WALK
1759223390.09391,-2.632724,4.109498,-2.514361,-0.743912,-1.438953,-1.805532,2,WALK
1759223390.11413,2.240673,8.090905,-7.710078,-0.488808,-0.647972,-1.810602,2,WALK
1759223390.13397,8.566454,17.239449,-9.848698,-0.251506,1.082656,-0.910654,2,WALK
1759223390.15411,11.195736,21.096209,-8.137592,-0.398352,1.721469,0.771964,2,WALK
1759223390.17397,10.022876,13.356802,-5.606472,-0.663114,1.679492,0.995676,2,WALK
1759223390.19412,7.122451,6.978499,-6.202778,-0.271673,1.554067,0.518929,2,WALK
1759223390.21397,3.645621,9.142259,0.24346,0.034271,1.701645,0.472502,2,WALK
1759223390.23326,-2.761562,13.611186,1.664569,-0.13323,0.857976,-0.405076,2,WALK
1759223390.25394,-3.096601,17.78009,-1.835006,0.046515,-0.237554,-0.70816,2,WALK
1759223390.27400,-3.479673,11.930756,0.329502,0.647776,-0.026108,-0.782794,2,WALK
1759223390.29392,-3.78224,8.168567,2.305915,0.6196,0.884047,-1.146855,2,WALK
1759223390.31398,-4.670938,7.176619,3.833266,0.069409,0.915699,-1.321196,2,WALK
1759223390.33397,-3.482965,8.591742,4.321085,-0.458249,0.457119,-1.303467,2,WALK
1759223390.35411,-1.282394,11.28477,4.453065,-0.80206,-0.673909,-1.028351,2,WALK
1759223390.37391,-0.242563,11.466281,4.141969,-1.06536,-1.679833,-1.098717,2,WALK
1759223390.39411,2.169596,11.552622,3.377919,-1.143527,-2.234765,-1.088945,2,WALK
1759223390.41301,5.094711,11.638813,2.168099,-1.327558,-1.561773,-0.815652,2,WALK
1759223390.43396,7.211934,9.752631,0.512958,-1.656266,0.592431,-0.855934,2,WALK
1759223390.45395,7.723695,8.121581,0.477943,-1.781495,1.915341,-1.072722,2,WALK
1759223390.47390,6.265476,7.542483,0.166696,-1.954721,2.210911,-0.496123,2,WALK
1759223390.49391,3.221249,7.351995,-0.934936,-2.018653,2.237926,0.164875,2,WALK
1759223390.51317,1.288978,6.832453,-2.279579,-1.641629,2.515614,0.28399,2,WALK
1759223390.53396,-0.158466,7.199664,-2.066495,-1.16666,2.865254,-0.081484,2,WALK
1759223390.55391,-1.183185,8.25012,-2.767398,-0.400987,2.156775,-0.476204,2,WALK
1759223390.57399,-2.660257,9.252093,-2.332701,-0.126037,0.655505,-0.961825,2,WALK
1759223390.59410,-0.870442,10.517429,-0.948702,-0.223127,0.142027,-0.992528,2,WALK
1759223390.61335,3.167379,9.394099,-2.046444,0.280995,0.565098,-0.893377,2,WALK
1759223390.63396,6.471078,8.736292,-0.935235,0.84141,0.465528,-0.668068,2,WALK
1759223390.65394,8.097789,8.12607,1.866879,0.854563,-0.444249,-0.229303,2,WALK
1759223390.67404,9.28232,8.537125,3.358017,0.55456,-1.124885,0.425299,2,WALK
1759223390.69394,10.10413,9.271097,2.822464,0.242455,-1.082921,0.900723,2,WALK
1759223390.71376,9.965715,10.105476,2.274641,0.140793,-0.59799,1.145949,2,WALK
1759223390.73389,10.819248,15.274408,-0.105495,0.884124,-0.295528,1.712143,2,WALK
1759223390.75364,8.693945,15.897649,-1.463905,1.411142,0.623228,1.60874,2,WALK
1759223390.77393,7.964461,14.473248,-6.383989,2.239415,3.687897,2.372482,2,WALK
1759223390.79410,8.535778,13.892505,-15.840038,3.083258,-1.049365,3.816018,2,WALK
1759223390.85395,-2.657564,17.529447,6.304681,1.806777,-3.751023,-0.11507,2,WALK
1759223390.87395,-1.837849,17.593192,9.181314,1.037365,0.55357,-0.645699,2,WALK
1759223390.89393,-1.501314,13.485042,6.440851,0.655651,2.635432,-0.167743,2,WALK
1759223390.91397,-1.472135,10.358513,3.839551,-1.176914,2.842993,0.624936,2,WALK
1759223390.93394,1.785177,9.631125,-0.828843,-1.987001,1.224704,1.37314,2,WALK
1759223390.95391,1.921796,10.767323,-5.052214,-0.742646,-0.483881,1.343056,2,WALK
1759223390.97398,-3.24534,9.515904,1.489792,-0.732648,-1.130799,0.829231,2,WALK
1759223390.99411,-1.144129,7.20101,2.401085,-0.28457,-1.20211,0.684121,2,WALK
1759223391.01390,-2.104503,4.764162,-1.266233,0.025203,-1.725098,0.347003,2,WALK
1759223391.03396,-1.506402,2.736722,-0.893187,-0.184283,-1.911082,0.177087,2,WALK
1759223391.05397,-0.641047,2.444929,-0.164901,-0.358358,-1.762167,0.043721,2,WALK
1759223391.07391,-0.820313,2.260725,0.471658,-0.569468,-1.600559,-0.349262,2,WALK
1759223391.09394,-1.515979,2.937985,-0.696713,-0.616262,-1.825063,-0.840702,2,WALK
1759223391.11398,-1.806425,3.907936,-2.729839,-0.504633,-2.823637,-1.383345,2,WALK
1759223391.13391,-0.773327,5.787384,-6.812551,0.143186,-4.617952,-1.762375,2,WALK
1759223391.15392,7.402423,8.783727,-9.054721,0.093931,-2.845391,-1.166985,2,WALK
1759223391.17391,10.915614,15.609746,-6.522554,-0.540474,1.228233,0.066694,2,WALK
1759223391.19308,3.933973,21.280861,-5.509657,-0.684738,1.95046,0.860823,2,WALK
1759223391.21390,2.245312,12.915222,-5.193173,-0.252183,1.362729,0.942911,2,WALK
1759223391.23315,0.169539,6.953809,-5.584176,0.356953,1.263156,0.525509,2,WALK
1759223391.25390,-0.123301,9.390059,-6.442647,0.235271,2.229182,0.200576,2,WALK
1759223391.27392,1.948431,15.814301,1.399112,-0.302797,0.785608,-0.160213,2,WALK
1759223391.29390,1.733103,16.353894,6.526444,0.122928,0.441641,-0.464853,2,WALK
1759223391.31391,0.744597,11.423484,0.268151,0.763381,2.409084,-0.899982,2,WALK
1759223391.33391,-4.88043,8.206725,0.054468,0.465531,2.796082,-1.499462,2,WALK
1759223391.35392,-5.733664,6.897396,3.273622,0.298893,1.533618,-1.672123,2,WALK
1759223391.37391,-3.566313,9.140463,4.328717,-0.077509,-0.022054,-1.510787,2,WALK
1759223391.39394,-1.272219,9.866355,4.656573,-0.634788,-2.006579,-1.12251,2,WALK
1759223391.41342,-0.538695,10.474483,4.348918,-0.999892,-3.484684,-0.971491,2,WALK
1759223391.43374,3.317316,13.458855,1.780239,-1.554969,-2.66609,-0.76209,2,WALK
1759223391.45316,5.431097,13.372215,0.790685,-2.116166,0.062252,-0.509429,2,WALK
1759223391.47391,6.001665,8.590545,0.141856,-1.765213,1.11176,-0.716861,2,WALK
1759223391.49390,6.836344,8.388086,-0.138564,-1.581598,1.605402,-0.841912,2,WALK
1759223391.51390,4.898836,7.742998,-0.342072,-1.683496,1.907287,-0.324163,2,WALK
1759223391.53389,1.958607,7.439533,-1.328034,-1.603584,1.984769,0.026066,2,WALK
1759223391.55391,0.546177,6.490232,-2.096423,-1.2979,2.287812,-0.164852,2,WALK
1759223391.57391,0.748936,7.247398,-2.251747,-0.6403,1.955965,-0.232525,2,WALK
1759223391.59391,0.542137,8.531738,-1.045518,-0.079396,1.221434,-0.312825,2,WALK
1759223391.61396,0.956783,9.236082,0.789638,-0.111103,0.653031,-0.554543,2,WALK
1759223391.63393,1.19321,9.888053,1.243937,-0.452574,0.604397,-0.803116,2,WALK
1759223391.65393,1.384148,9.317634,0.612167,-0.530503,0.423671,-0.964995,2,WALK
1759223391.67393,2.107197,8.479215,0.498892,-0.409219,0.248427,-1.033514,2,WALK
1759223391.69396,5.078251,8.820987,1.146823,-0.17069,-0.441361,-1.06997,2,WALK
1759223391.71395,7.563283,9.168146,1.532139,0.037924,-0.92482,-0.837923,2,WALK
1759223391.73389,9.19538,10.084228,1.877802,-0.188448,-0.656803,-0.380217,2,WALK
1759223391.75396,9.756072,9.844059,1.559523,-0.420769,-0.039661,0.120928,2,WALK
1759223391.77397,8.62556,10.296115,-0.024989,-0.100053,0.462126,0.667569,2,WALK
1759223391.79409,7.434894,13.478906,-1.037438,0.509986,0.769032,1.329241,2,WALK
1759223391.81390,6.917746,15.523255,-1.543811,1.207608,0.306775,1.725837,2,WALK
1759223391.83393,6.977153,15.607352,-2.678663,1.419478,-0.376008,1.894326,2,WALK
1759223391.85390,5.65256,12.297368,-5.188534,1.522993,-1.882862,2.270069,2,WALK
1759223391.87402,5.520131,12.79596,-5.651363,2.5021,-3.147924,3.123114,2,WALK
1759223391.89397,0.521786,16.614263,1.713799,2.560152,-3.358269,2.888159,2,WALK
1759223391.91398,-1.665167,17.103877,5.522525,2.074612,-2.320335,1.379986,2,WALK
1759223391.93395,-2.121861,17.931673,7.362918,1.39131,-0.312412,0.062724,2,WALK
1759223391.95411,-2.713977,14.551958,6.252308,0.792525,1.212258,-0.334864,2,WALK
1759223391.97389,-3.357569,10.674398,2.821567,0.60796,1.452844,-0.100605,2,WALK
1759223391.99393,-0.537349,9.993697,-4.566491,-0.389472,0.051616,1.050331,2,WALK
1759223392.01391,-0.39639,10.213664,-3.952677,0.024146,-0.478126,1.376462,2,WALK
1759223392.03298,-2.348113,9.07148,2.744204,0.047497,0.022133,0.871716,2,WALK
1759223392.05354,1.042974,7.337779,5.801899,-0.725643,-1.419334,0.800258,2,WALK
1759223392.07390,4.214842,6.073491,-1.761235,0.128456,-0.824759,1.310797,2,WALK
1759223392.09389,-0.506374,3.793463,-0.815226,0.539632,-0.736938,0.877416,2,WALK
1759223392.11398,-0.715567,3.243694,0.794127,0.1271,-1.276977,0.596116,2,WALK
1759223392.13316,-0.769736,3.293374,0.811036,0.00614,-1.506276,0.489008,2,WALK
1759223392.15408,-1.723526,3.853468,0.59885,-0.057553,-1.977414,0.185083,2,WALK
1759223392.17390,-3.106926,4.248361,-0.095918,-0.252656,-2.452561,-0.330478,2,WALK
1759223392.19391,-3.446603,5.171027,-1.841141,-0.495073,-2.871667,-0.938269,2,WALK
1759223392.21390,0.388908,6.561459,-4.90527,-0.593506,-2.140654,-1.377125,2,WALK
1759223392.23338,7.258322,9.989806,-6.840234,-0.545481,-0.274409,-1.047084,2,WALK
1759223392.25388,8.58426,16.098163,-7.442226,-0.846763,1.667348,0.347785,2,WALK
1759223392.27349,9.444976,16.048783,-6.298546,-0.824714,2.074864,0.694221,2,WALK
1759223392.29314,9.091233,10.555736,-6.562507,-0.378153,1.767465,0.904882,2,WALK
1759223392.31397,5.127332,10.360459,-5.484966,0.05514,0.798075,0.548541,2,WALK
1759223392.33356,2.993201,15.160833,0.609624,0.329889,-0.070204,0.266049,2,WALK
1759223392.35395,-0.894683,16.525229,3.369091,0.460616,0.399994,-0.530709,2,WALK
1759223392.37390,-2.010232,9.383924,0.606332,0.433621,2.041952,-0.84421,2,WALK
1759223392.39389,-6.709451,7.483676,-1.491737,0.257111,1.148254,-0.875766,2,WALK
1759223392.41390,-5.471649,6.145467,1.892766,0.418102,0.602996,-1.300197,2,WALK
1759223392.43372,-6.324134,9.247604,3.139696,0.158567,-0.397272,-1.773864,2,WALK
1759223392.45396,-2.706196,12.762142,4.711639,-0.300464,-2.203112,-1.394353,2,WALK
1759223392.47389,-2.497901,12.217013,5.104887,-0.870683,-3.336141,-1.217979,2,WALK
1759223392.49388,0.088286,11.272201,4.029441,-1.397902,-3.590866,-0.868862,2,WALK
1759223392.51389,1.838298,10.311827,3.011008,-2.052744,-2.213332,-0.537524,2,WALK
1759223392.53388,4.542399,9.28217,0.615609,-2.577066,1.004866,-0.604192,2,WALK
1759223392.55388,5.808333,8.846575,-0.194529,-2.223873,2.109334,-0.81583,2,WALK
1759223392.57390,6.030695,8.572738,-0.913538,-1.730453,2.683052,-0.526406,2,WALK
1759223392.59389,4.154838,7.427113,-1.314267,-1.495612,3.455508,0.030466,2,WALK
1759223392.61388,2.34123,7.522282,-1.560271,-1.240519,3.963464,0.043093,2,WALK
1759223392.63393,1.17256,8.211663,-1.572841,-0.911231,3.941671,-0.356083,2,WALK
1759223392.65395,1.241543,9.262418,-1.314267,-0.38003,2.770796,-0.690567,2,WALK
1759223392.67394,2.220023,9.299079,-0.769287,-0.17596,1.22037,-0.858355,2,WALK
1759223392.69391,2.863316,9.471911,-0.126743,-0.803997,0.543989,-0.99654,2,WALK
1759223392.71400,3.414281,9.610774,-0.543334,-1.223438,0.282623,-1.053365,2,WALK
1759223392.73394,5.579388,8.93935,-1.130811,-0.505584,-0.90757,-1.005103,2,WALK
1759223392.75388,7.408558,7.819612,-0.270844,0.384249,-2.529417,-0.634241,2,WALK
1759223392.77390,7.597101,7.60189,1.520318,0.564878,-3.147624,0.164453,2,WALK
1759223392.79408,7.509713,8.914511,2.083105,0.33909,-2.248968,0.566508,2,WALK
1759223392.81392,6.429329,10.910527,2.661155,0.007946,-0.517613,0.822687,2,WALK
1759223392.83408,4.41416,11.835736,3.206883,-0.136489,1.303496,0.810219,2,WALK
1759223392.85327,4.063708,11.634922,2.590077,0.055601,2.181772,1.001302,2,WALK
1759223392.87396,4.947468,12.868984,0.413598,0.382548,2.340707,1.650264,2,WALK
1759223392.89391,5.139902,16.787992,-5.010166,1.454199,2.748076,2.043631,2,WALK
1759223392.91393,8.288577,15.128362,-8.486098,2.672833,0.746467,2.467099,2,WALK
1759223392.93405,7.590816,10.777948,-2.870349,2.416784,-2.038732,2.783654,2,WALK
1759223392.95392,6.370372,11.897237,-0.244508,2.026828,-2.042816,3.045762,2,WALK
1759223392.97389,3.219603,17.086669,0.366014,1.934029,-1.1745,2.282231,2,WALK
1759223392.99410,-1.232715,18.82037,3.400365,1.579175,-0.495586,1.072463,2,WALK
1759223393.01388,-2.416348,15.443947,4.008791,1.288441,0.222853,0.355167,2,WALK
1759223393.03389,-3.102137,12.335526,3.141043,0.897337,-0.058953,0.122498,2,WALK
1759223393.05364,-4.190451,10.376769,0.563535,0.294007,-1.199358,0.41328,2,WALK
1759223393.07390,-0.939724,10.368988,-0.56967,0.073178,-1.391844,0.330453,2,WALK
1759223393.09391,-1.033098,10.378715,2.97689,-0.450218,-1.126832,0.03512,2,WALK
1759223393.11391,1.500267,8.114099,4.65747,-0.941156,-0.56483,0.251137,2,WALK
1759223393.13389,7.208792,5.405958,-2.253692,0.219179,0.382965,1.337237,2,WALK
1759223393.15392,0.193332,2.06889,-0.694318,0.632454,-0.338454,0.616499,2,WALK
1759223393.17395,0.060304,0.981024,-0.256778,0.135411,-1.55799,0.39698,2,WALK
1759223393.19408,-0.777068,1.405396,-0.073622,0.031373,-1.724167,0.422574,2,WALK
1759223393.21389,-2.128146,2.39495,0.364368,0.006769,-1.760685,0.176703,2,WALK
1759223393.23318,-3.223493,4.175338,0.180613,-0.246665,-1.754019,-0.181447,2,WALK
1759223393.25390,-3.836259,6.082619,-1.00347,-0.567491,-1.63778,-0.733321,2,WALK
1759223393.27389,-2.267758,7.813327,-3.607763,-0.727675,-1.510633,-1.346412,2,WALK
1759223393.29390,4.282479,12.468703,-9.894038,-0.185554,-0.592865,-1.457847,2,WALK
1759223393.31388,9.032575,19.87337,-9.757419,0.119911,1.985599,-0.477948,2,WALK
1759223393.33387,10.62412,17.857153,-7.162254,-0.26174,3.127682,0.753676,2,WALK
1759223393.35388,7.285107,9.794829,-6.445789,-0.140788,1.776315,0.747145,2,WALK
1759223393.37390,3.815759,5.071967,-4.733636,0.351972,1.072192,0.136683,2,WALK
1759223393.39389,1.701978,3.424008,1.621623,0.187429,1.135799,-0.171065,2,WALK
1759223393.41325,-0.932093,5.819406,4.744111,-0.574117,0.482641,-0.463995,2,WALK
1759223393.43387,-0.600645,13.31236,6.773196,-1.120241,-1.418944,-0.844108,2,WALK
1759223393.45390,4.274249,18.965968,2.014421,-0.494526,-0.113082,-0.399017,2,WALK
1759223393.47389,1.229722,16.237625,-0.347459,0.555274,2.692157,-0.409475,2,WALK
1759223393.49388,0.978181,11.726949,0.826897,-0.084999,4.826389,-0.541129,2,WALK
1759223393.51388,-0.613813,8.271817,2.27494,-1.072791,3.966792,-0.704251,2,WALK
1759223393.53387,-1.184082,7.797915,1.274912,-0.815244,0.927125,-0.771329,2,WALK
1759223393.55360,-0.966659,9.557354,0.572214,-0.231855,-1.071525,-0.678388,2,WALK
1759223393.57388,-1.036091,10.297312,1.167921,-0.319029,-2.213571,-0.988127,2,WALK
1759223393.59407,-0.539144,10.810269,1.423353,-1.013717,-2.706782,-1.443684,2,WALK
1759223393.61395,1.675193,10.90095,1.252167,-1.692233,-2.63032,-1.524202,2,WALK
1759223393.63407,2.2299,8.652944,0.053271,-1.735244,-1.767461,-1.420686,2,WALK
1759223393.65394,2.8904,6.231658,-0.576404,-1.581531,-0.319674,-1.395834,2,WALK
1759223393.67392,2.836231,6.751798,-0.888997,-1.524315,0.902052,-1.167518,2,WALK
1759223393.69394,1.884985,6.158336,-1.145775,-1.205124,1.675782,-0.818239,2,WALK
1759223393.71389,1.848922,7.056311,-0.225654,-0.688267,1.987205,-0.663831,2,WALK
1759223393.73387,2.925116,8.738686,0.947505,-0.458351,1.782925,-0.648719,2,WALK
1759223393.75302,3.790769,9.229198,2.141763,-0.577777,0.98299,-0.710059,2,WALK
1759223393.77390,3.970933,9.363423,3.098097,-1.179275,0.061489,-0.824419,2,WALK
1759223393.79407,4.118925,11.018415,1.124377,-1.747858,0.600597,-0.908948,2,WALK
1759223393.81394,4.130746,9.030929,-0.889745,-1.156147,0.913839,-0.933291,2,WALK
1759223393.83405,5.884349,7.237971,-0.349404,-0.161758,0.238157,-0.658469,2,WALK
1759223393.85321,6.544101,7.263559,0.843657,0.210527,0.071791,-0.131139,2,WALK
1759223393.87391,6.798934,11.477653,1.027561,0.177766,0.568329,0.453897,2,WALK
1759223393.89394,4.10037,12.83337,0.887052,0.457357,0.588902,0.789686,2,WALK
1759223393.91389,3.571401,12.258013,0.305261,0.73661,0.676023,0.832503,2,WALK
1759223393.93390,4.073584,12.092813,-1.434725,1.041277,1.21914,0.811477,2,WALK
1759223393.95336,7.460482,12.362909,-5.357026,1.467505,1.380714,0.961727,2,WALK
1759223393.97389,10.040833,11.670985,-3.548057,2.874918,-0.695297,2.29511,2,WALK
1759223393.99388,9.117718,10.213814,-0.238822,2.786999,-1.305396,3.305855,2,WALK
1759223394.01387,10.16997,14.807688,0.202909,2.093168,-0.938717,3.85132,2,WALK
1759223394.03386,5.163545,19.677644,2.482039,1.720992,-2.111219,3.178778,2,WALK
1759223394.05360,0.556053,20.185813,5.019743,1.560722,-2.541778,2.126597,2,WALK
1759223394.07368,-1.354071,20.0881,5.423316,1.342604,-1.276193,0.896215,2,WALK
1759223394.09388,-2.901174,16.926706,5.419874,0.445106,1.080259,0.049377,2,WALK
1759223394.11388,-3.700239,12.475137,2.428618,-0.559116,1.850644,0.229166,2,WALK
1759223394.13386,-1.731756,9.974094,-2.914043,-0.574078,1.019538,0.918827,2,WALK
1759223394.15375,-1.825579,9.86875,-2.15134,-0.282146,0.686667,0.672122,2,WALK
1759223394.17388,-3.948039,6.950218,4.240879,-0.499692,-2.062861,0.545141,2,WALK
1759223394.19387,2.889652,3.84419,1.425298,0.632822,-2.991503,0.8726,2,WALK
1759223394.21387,2.796727,2.238878,-1.625214,0.329165,-1.428607,0.504079,2,WALK
1759223394.23311,1.047763,2.609979,1.089362,-0.239239,-1.754761,0.51423,2,WALK
1759223394.25387,-1.827075,3.126079,0.207547,0.018207,-2.56249,0.096764,2,WALK
1759223394.27388,-3.567211,3.438223,0.992546,0.083838,-2.541522,-0.367372,2,WALK
1759223394.29387,-4.938939,3.428946,0.562188,-0.035323,-2.206348,-0.963671,2,WALK
1759223394.31353,-4.748749,3.246687,-0.243909,-0.474277,-1.38225,-1.306767,2,WALK
1759223394.33386,-3.360711,3.698443,-2.052429,-0.777253,-0.781528,-1.427859,2,WALK
1759223394.35387,0.601394,5.522525,-6.519561,-0.460123,-0.122418,-1.413467,2,WALK
1759223394.37388,7.404368,11.048642,-10.614095,-0.076771,2.090602,-0.406724,2,WALK
1759223394.39388,14.991743,23.261764,-7.97733,-0.506837,3.394049,1.316215,2,WALK
1759223394.41394,17.640478,21.043985,-6.244377,-0.521256,1.556848,1.292205,2,WALK
1759223394.43388,12.091018,9.431359,-4.278887,-0.022988,-0.520848,0.494813,2,WALK
1759223394.45388,5.317522,6.184373,-0.944662,0.161819,-0.23081,0.219193,2,WALK
1759223394.47399,0.984915,4.428675,3.827131,0.291936,-0.461392,-0.078058,2,WALK
1759223394.49393,-2.71293,6.03668,4.248361,0.066131,-0.035736,-0.833974,2,WALK
1759223394.51392,-5.993734,17.057041,-1.484704,-1.047669,1.325181,-0.628182,2,WALK
1759223394.53389,-4.162918,23.959225,-9.039907,0.197208,1.80982,-0.310432,2,WALK
1759223394.55387,-6.01603,11.643452,1.151461,0.543487,1.393621,-1.070868,2,WALK
1759223394.57388,-4.819827,8.586655,3.123386,0.420533,0.996355,-1.294159,2,WALK
1759223394.59390,-3.700987,6.586,3.986645,0.188118,0.051284,-1.365431,2,WALK
1759223394.61395,-2.746,7.798214,3.697246,0.069972,-1.251677,-1.404387,2,WALK
1759223394.63389,-0.992397,9.600599,4.619462,-0.299039,-2.398271,-1.266087,2,WALK
1759223394.65386,1.804929,11.326968,5.801749,-0.985344,-2.423307,-0.995152,2,WALK
1759223394.67357,3.809923,12.518532,4.958392,-1.302968,-2.3821,-0.805218,2,WALK
1759223394.69388,5.640739,12.859107,3.907038,-1.554694,-2.305643,-0.766912,2,WALK
1759223394.71293,6.505944,10.148123,1.763928,-3.349947,1.956845,-1.167629,2,WALK
1759223394.73390,6.634632,8.280346,-0.273687,-3.933625,4.155505,-0.791014,2,WALK
1759223394.75397,4.821174,7.494749,-1.593491,-3.220611,4.427258,-0.418219,2,WALK
1759223394.81386,1.170615,12.111817,-5.284153,0.420856,2.652836,0.074964,2,WALK
1759223394.83387,1.763629,11.527183,-1.622371,0.650647,-0.329269,-0.522252,2,WALK
1759223394.85386,3.087173,9.944766,0.168791,0.600574,-0.577285,-0.782509,2,WALK
1759223394.87392,3.586514,6.661567,1.790414,0.750396,-0.112619,-0.864269,2,WALK
1759223394.89387,4.584148,6.820183,3.223344,1.057299,0.027307,-0.594988,2,WALK
1759223394.91406,5.440075,8.783727,4.860978,0.931837,-0.15448,-0.43549,2,WALK
1759223394.93387,7.447164,9.870545,4.918289,0.163994,-0.321188,-0.251052,2,WALK
1759223394.95391,8.334366,9.916484,3.277662,-0.463524,-0.175649,0.044575,2,WALK
1759223394.97390,8.272416,11.178677,1.776647,-0.733194,0.162398,0.479998,2,WALK
1759223394.99406,7.669975,13.16362,-0.190638,-0.60385,0.79415,0.895957,2,WALK
1759223395.01392,7.84131,15.975909,-3.621978,0.51562,1.751852,1.23096,2,WALK
1759223395.03386,8.032397,14.373889,-4.736778,1.826745,1.772007,1.613517,2,WALK
1759223395.05388,9.490915,10.605116,-5.774814,1.607018,-0.949076,2.437025,2,WALK
1759223395.07391,7.273285,12.327445,-4.304475,2.208223,-3.174987,3.479334,2,WALK
1759223395.09367,3.29936,16.512061,-0.230292,2.287556,-3.113068,3.698776,2,WALK
1759223395.11386,-0.488268,18.470069,3.098845,2.149435,-1.927075,2.752983,2,WALK
1759223395.13387,-1.298405,19.409194,4.392462,2.083467,-1.411811,1.663911,2,WALK
1759223395.15389,-2.992004,19.207034,4.871003,1.350895,-0.090789,0.660767,2,WALK
1759223395.17388,-5.277269,15.470882,2.51032,0.214788,1.594559,0.227871,2,WALK
1759223395.19389,-4.879383,10.495582,-5.007024,0.045421,0.852585,0.943437,2,WALK
1759223395.21392,-1.311424,9.052177,-1.681777,0.590449,-0.058972,0.962196,2,WALK
1759223395.23312,0.050278,7.240365,4.111742,0.214968,-0.807225,0.30928,2,WALK
1759223395.25390,4.78152,6.662465,4.948366,-0.150899,-2.072626,0.314903,2,WALK
1759223395.27392,5.64448,6.313959,-0.503979,0.543916,-0.572592,1.136115,2,WALK
1759223395.29391,-0.356437,4.208857,-0.305859,0.889189,-1.036953,0.826447,2,WALK
1759223395.31405,-2.094328,2.951003,0.666037,0.461679,-2.041727,0.603185,2,WALK
1759223395.33393,-2.012626,1.707365,0.861613,0.065972,-2.026159,0.403439,2,WALK
1759223395.35395,-2.537704,2.311602,1.101333,-0.069616,-2.15513,0.114931,2,WALK
1759223395.37292,-2.949956,2.797026,0.857872,-0.404314,-2.411288,-0.226275,2,WALK
1759223395.39408,-4.472369,3.178602,0.046238,-0.984426,-2.918375,-0.693002,2,WALK
1759223395.41393,-5.399673,4.700267,-2.268356,-1.511801,-2.655627,-1.418291,2,WALK
1759223395.43388,1.575684,7.297976,-9.464878,-0.999131,-2.323267,-2.057161,2,WALK
1759223395.45393,8.431032,15.668404,-13.351116,-0.364978,0.514267,-0.642653,2,WALK
1759223395.47313,10.540024,23.318626,-8.508843,-1.141917,3.408055,1.024274,2,WALK
1759223395.49391,9.532813,14.846295,-8.151658,-0.80223,2.454706,1.483254,2,WALK
1759223395.51406,7.467665,6.178537,-7.463624,0.143017,1.897918,0.713818,2,WALK
1759223395.53387,3.985598,4.668843,2.450615,0.139519,2.272866,-0.105283,2,WALK
1759223395.55395,1.136647,8.505551,6.468834,-0.234417,0.640409,-0.534223,2,WALK
1759223395.57331,-1.64332,14.467113,4.673631,-0.947574,-0.131041,-0.402933,2,WALK
1759223395.59356,2.245462,16.740557,-8.714595,-0.774044,2.000803,-0.071306,2,WALK
1759223395.61386,-2.978387,15.498266,-6.637026,0.385072,2.071604,-0.384016,2,WALK
1759223395.63386,-7.176919,9.919177,2.356643,0.484373,0.139352,-1.224218,2,WALK
1759223395.65386,-5.016301,8.438813,2.959682,0.032115,-0.905112,-1.604934,2,WALK
1759223395.67353,-3.083582,8.311471,3.661931,-0.203126,-1.284766,-1.532887,2,WALK
1759223395.69392,-2.051532,7.579594,3.252373,-0.682941,-2.008856,-1.203346,2,WALK
1759223395.71393,-0.704494,8.939949,3.346645,-0.79931,-2.388534,-1.117666,2,WALK
1759223395.73386,0.964863,12.054356,3.31552,-1.057142,-2.363025,-0.977408,2,WALK
1759223395.75393,3.669114,14.635605,3.772813,-1.772449,-1.392239,-0.721759,2,WALK
1759223395.77372,6.144419,11.889157,2.025046,-2.504994,0.682971,-1.010885,2,WALK
1759223395.79386,6.237344,8.835652,0.319626,-2.813504,2.55669,-1.191645,2,WALK
1759223395.81392,5.791125,7.787739,-0.944064,-2.486173,3.285465,-0.698317,2,WALK
1759223395.83403,3.508254,4.973505,-1.5899,-2.04421,3.603008,-0.344303,2,WALK
1759223395.85392,2.371457,4.863072,-2.050334,-1.545327,4.034972,-0.118244,2,WALK
1759223395.87391,0.423325,6.769904,-2.793584,-0.792503,4.389624,-0.130898,2,WALK
1759223395.89392,-0.029179,9.725098,-3.455132,0.140257,3.697142,-0.328137,2,WALK
1759223395.91388,-0.036063,10.466552,-2.769942,0.342564,2.022865,-0.761517,2,WALK
1759223395.93391,2.680159,8.524405,0.421529,0.139792,-0.220527,-0.972149,2,WALK
1759223395.95387,6.724864,9.466524,1.371279,0.233161,-1.57456,-0.704868,2,WALK
1759223395.97395,6.801478,8.445097,2.761562,0.371147,-2.017071,-0.084878,2,WALK
1759223395.99390,7.089231,8.884882,2.509572,0.396704,-1.206724,0.569333,2,WALK
1759223396.01385,7.439383,9.799018,2.005742,0.212273,0.618369,0.795003,2,WALK
1759223396.03387,6.743568,10.940454,1.707814,0.151454,1.558041,0.99949,2,WALK
1759223396.05388,5.91293,11.626543,0.683993,0.212173,2.029355,0.880345,2,WALK
1759223396.07406,4.491373,11.847108,-1.351228,0.579919,2.201051,0.74119,2,WALK
1759223396.09340,7.508665,14.486416,-7.960272,2.083765,0.883726,1.490865,2,WALK
1759223396.11391,12.05301,14.217817,-5.788431,2.303498,-2.161205,2.339341,2,WALK
1759223396.13389,10.412832,14.956727,-0.410456,2.276227,-3.048135,3.28529,2,WALK
1759223396.15397,6.376507,15.440506,1.376965,2.135398,-2.951179,3.444438,2,WALK
1759223396.17386,2.495357,16.221614,3.596091,1.952624,-3.3813,2.772185,2,WALK
1759223396.19328,0.858621,17.498621,4.480898,1.694763,-3.279514,1.838619,2,WALK
1759223396.21391,-0.394145,16.538098,4.125509,1.323997,-1.471392,1.003463,2,WALK
1759223396.23310,-1.931672,14.599393,3.296367,0.673397,1.281327,0.505686,2,WALK
1759223396.25385,-4.0257,12.821848,1.210568,0.013353,2.715952,0.535184,2,WALK
1759223396.27386,-3.715951,10.330232,-4.565294,0.162134,1.135909,0.866306,2,WALK
1759223396.29391,-4.005948,9.182661,-0.121955,-0.222655,-0.714341,0.315535,2,WALK
1759223396.31393,-2.063802,7.950096,5.193622,-0.527015,-3.048079,0.24583,2,WALK
1759223396.33388,3.858406,5.888539,0.766743,0.084753,-1.311893,1.007857,2,WALK
1759223396.35389,6.212055,4.045453,-0.761655,0.022508,-0.999783,1.189768,2,WALK
1759223396.37387,2.738817,3.00188,1.23047,-0.55144,-1.934655,0.914152,2,WALK
1759223396.39369,0.518494,3.688567,0.78874,-0.787694,-2.443664,0.632995,2,WALK
1759223396.41391,-1.586907,4.175488,1.268029,-0.82457,-2.797998,0.22513,2,WALK
1759223396.43392,-3.270779,3.835361,0.995389,-0.78518,-2.512856,-0.235501,2,WALK
1759223396.45391,-3.929035,3.604171,0.149189,-0.671039,-2.493481,-0.692627,2,WALK
1759223396.47390,-4.97126,4.354754,0.38831,-0.969322,-2.581579,-1.286108,2,WALK
1759223396.49385,-4.301483,5.600636,-1.967286,-1.059503,-1.989413,-1.430326,2,WALK
1759223396.51385,3.708319,14.089129,-15.36449,-0.016207,-0.316962,-1.267083,2,WALK
1759223396.53390,12.739996,23.846847,-12.62672,0.121545,0.976366,-0.246738,2,WALK
1759223396.55404,14.519486,18.132486,-8.751555,-0.555245,2.26034,1.414846,2,WALK
1759223396.57390,7.414543,7.984064,-7.549367,-0.355228,1.859515,1.181259,2,WALK
1759223396.59329,2.771588,5.726781,-4.684256,0.201469,1.923232,0.424166,2,WALK
1759223396.61391,0.187197,14.445715,0.371251,0.391791,1.297507,-0.052901,2,WALK
1759223396.63403,0.476596,18.569129,7.160309,0.311773,0.019807,0.199783,2,WALK
1759223396.65391,-3.83611,9.48059,1.02412,0.640484,1.149677,-0.027487,2,WALK
1759223396.67390,-7.672668,5.676203,-5.913977,1.151905,0.146779,-0.237474,2,WALK
1759223396.69391,-7.372196,4.057723,3.960608,0.240138,1.7657,-0.561314,2,WALK
1759223396.71388,-6.538565,6.626552,5.066131,-0.105899,3.717258,-1.780427,2,WALK
1759223396.73386,-4.781071,11.215638,4.465635,-0.412389,4.093892,-2.632514,2,WALK
1759223396.75400,-2.313846,14.77402,3.768623,-0.485998,3.289046,-2.479572,2,WALK
1759223396.77384,-0.479439,14.382718,4.131045,-0.614853,1.502431,-1.672655,2,WALK
1759223396.79395,0.639102,14.755764,4.090494,-0.725139,-0.968231,-1.326911,2,WALK
1759223396.81386,3.416376,14.494497,3.113659,-0.949898,-2.360466,-0.792234,2,WALK
1759223396.83389,5.827188,11.684602,1.843386,-1.356,-2.235293,-0.628964,2,WALK
1759223396.85389,8.767267,8.566753,0.286855,-2.709785,1.576488,-1.800353,2,WALK
1759223396.87388,11.391911,8.92304,0.379032,-2.727108,2.60508,-1.782792,2,WALK
1759223396.89385,8.150162,6.549488,-0.310199,-2.368506,1.798586,-1.028527,2,WALK
1759223396.91387,4.576217,5.899313,-2.151789,-2.078332,2.29697,-0.628808,2,WALK
1759223396.93385,2.850147,6.190208,-2.774281,-1.394464,2.907208,-0.264015,2,WALK
1759223396.95387,1.622521,5.871181,-2.793584,-0.283355,3.115314,0.082699,2,WALK
1759223396.97386,-0.091129,6.323835,-2.027889,0.556502,2.660897,0.231112,2,WALK
1759223396.99397,-1.260248,8.023269,-0.379182,0.581086,1.416328,-0.1369,2,WALK
1759223397.01385,-0.088885,9.933692,0.37559,0.186977,1.01905,-0.799684,2,WALK
1759223397.03392,2.496404,9.846454,1.022324,0.034344,0.906987,-1.057601,2,WALK
1759223397.05391,5.164892,7.389255,1.84967,0.5042,-0.044199,-1.032033,2,WALK
1759223397.07390,7.161656,9.277681,3.450045,0.66737,-2.001097,-0.775897,2,WALK
1759223397.09310,8.947581,10.198102,3.769671,-0.162426,-2.313813,-0.643591,2,WALK
1759223397.11385,10.610653,10.414179,2.969109,-1.106582,-1.210623,-0.396604,2,WALK
1759223397.13385,9.658509,11.311555,0.858321,-1.020743,-0.259709,0.386364,2,WALK
1759223397.15346,7.322516,12.864195,-1.041627,-0.145324,0.20237,1.011135,2,WALK
1759223397.17385,6.618172,15.906328,-1.460164,0.877317,0.05294,1.430996,2,WALK
1759223397.19323,5.707328,16.02095,-0.249596,1.387853,-1.257449,1.535716,2,WALK
1759223397.21384,6.05314,13.889063,-1.013495,1.022507,-2.123744,2.041981,2,WALK
1759223397.23308,5.593005,13.81604,-6.427384,1.636,-1.423256,2.787384,2,WALK
1759223397.25384,1.405396,16.089933,-3.76982,2.723048,-0.904837,3.061807,2,WALK
1759223397.27386,-0.341623,15.391574,3.068469,2.893555,-1.893208,2.504051,2,WALK
1759223397.29343,-1.056741,15.015236,5.020491,2.473875,-2.707801,1.517908,2,WALK
1759223397.31385,-2.077269,14.867543,5.428852,1.833398,-2.184934,0.585217,2,WALK
1759223397.33319,-2.100463,14.534001,5.152172,1.070386,-0.506379,0.051514,2,WALK
1759223397.35300,-3.018939,13.020267,0.907851,0.098568,1.727336,0.505737,2,WALK
1759223397.37385,-1.771111,10.5912,-1.966986,0.104019,2.364682,1.280538,2,WALK
1759223397.39365,-1.861791,9.028086,2.190395,-0.423028,0.03789,0.763225,2,WALK
1759223397.41384,0.733524,7.753921,5.874772,-1.210757,-2.222373,1.070197,2,WALK
1759223397.43383,8.034791,6.064064,-1.653047,-0.005737,-0.78031,1.67145,2,WALK
1759223397.45386,3.646668,4.749647,-1.298405,0.344209,-1.223493,1.09753,2,WALK
1759223397.47386,-0.549918,4.375852,1.228974,-0.071874,-2.046193,0.783178,2,WALK
1759223397.49384,-2.954445,3.869928,2.055272,-0.187489,-2.57163,0.462666,2,WALK
1759223397.51386,-4.011635,3.188029,1.690306,-0.314591,-2.489115,-0.017351,2,WALK
1759223397.53383,-5.093664,3.248183,0.975637,-0.504727,-2.202743,-0.555141,2,WALK
1759223397.55385,-5.709722,3.145083,-0.46238,-0.5679,-2.105683,-1.09719,2,WALK
1759223397.57385,-3.557484,3.795408,-5.208286,-0.193302,-2.029899,-1.415416,2,WALK
1759223397.59383,5.075259,6.79235,-11.100866,0.207672,-1.061154,-1.095191,2,WALK
1759223397.61385,16.0211,13.757532,-8.47697,-0.772104,1.763638,0.241094,2,WALK
1759223397.63383,10.503961,19.533693,-5.295226,-1.100671,2.73219,0.555078,2,WALK
1759223397.65386,6.746112,13.170204,-5.469105,-0.342326,1.395146,0.583035,2,WALK
1759223397.67385,3.485658,8.020276,-5.661988,0.64748,1.185652,0.423516,2,WALK
1759223397.69384,0.378882,5.349544,1.033697,0.394434,1.68388,0.063661,2,WALK
1759223397.71303,-4.623952,9.537003,4.324377,-0.735059,1.229472,-0.794083,2,WALK
1759223397.73383,-5.990442,18.809447,-5.829432,-0.498119,0.190294,-0.99308,2,WALK
1759223397.75386,3.711611,21.470901,-3.890877,1.257037,1.450917,-1.168098,2,WALK
1759223397.77384,-0.662745,11.806108,1.70542,0.863292,2.393377,-0.985871,2,WALK
1759223397.79397,-2.5392,7.672219,2.056021,0.00932,2.106626,-1.064208,2,WALK
1759223397.81329,-4.512322,5.261109,3.755305,-0.166236,1.023437,-1.427607,2,WALK
1759223397.83383,-2.874389,8.438214,3.330185,-0.016359,-0.516312,-1.574265,2,WALK
1759223397.85384,-1.426944,10.721085,3.877559,0.034588,-2.283524,-1.493202,2,WALK
1759223397.87384,1.026065,12.449998,5.557092,-0.426193,-3.914809,-1.358161,2,WALK
1759223397.89384,4.378845,12.959365,5.642385,-1.038981,-4.218533,-1.002626,2,WALK
1759223397.91348,7.480833,12.215217,3.760992,-2.126378,-1.113076,-0.879406,2,WALK
1759223397.93389,8.695591,9.960926,0.869394,-2.787955,2.030711,-1.109481,2,WALK
1759223397.95405,7.259369,7.311443,0.369156,-2.631192,2.648678,-0.908356,2,WALK
1759223397.97385,5.183746,6.271312,-0.398784,-2.472109,3.011684,-0.206433,2,WALK
1759223397.99394,2.384176,6.670096,-2.082058,-2.056594,3.699564,0.225501,2,WALK
1759223398.01365,0.876876,7.260267,-3.159598,-1.402649,4.585836,0.354478,2,WALK
1759223398.03391,-0.403722,8.500164,-4.314651,-0.435155,4.51348,0.188216,2,WALK
1759223398.05390,-1.868974,9.689184,-4.407426,0.474882,2.184867,-0.378372,2,WALK
1759223398.07394,-2.670433,8.75784,-2.315043,0.562272,-0.380167,-1.121244,2,WALK
1759223398.09385,0.48707,8.474726,0.334889,0.125467,-1.102165,-1.242716,2,WALK
1759223398.11390,2.84895,8.617929,1.001674,0.172653,-1.018821,-1.157486,2,WALK
1759223398.13382,4.560056,8.385542,1.894861,0.620519,-1.176309,-1.031069,2,WALK
1759223398.15385,6.217442,7.978228,3.889381,0.603951,-1.526424,-0.793447,2,WALK
1759223398.17389,8.47308,9.528025,4.568436,-0.044475,-0.985878,-0.289453,2,WALK
1759223398.19389,11.023802,11.498453,3.359364,-0.64046,0.49362,0.138676,2,WALK
1759223398.21384,10.106075,11.242872,1.303493,-0.819523,1.671751,0.51227,2,WALK
1759223398.23315,8.67524,11.995699,-0.72275,-0.247894,2.023856,1.303121,2,WALK
1759223398.25383,6.885574,15.418359,-6.740276,1.526202,1.486737,1.754367,2,WALK
1759223398.27388,7.075016,12.689269,-3.87711,2.07142,-0.592256,2.160417,2,WALK
1759223398.29383,5.926697,12.384307,-1.265784,1.737943,-2.518307,2.779734,2,WALK
1759223398.31386,4.102764,14.499285,0.434997,1.750616,-2.872488,3.038998,2,WALK
1759223398.33384,3.182044,15.663466,2.199972,1.751289,-2.759399,2.702775,2,WALK
1759223398.35403,1.776049,16.455348,2.947262,1.997439,-2.418784,2.098404,2,WALK
1759223398.37390,-0.269797,17.363798,4.951359,1.632002,-1.898735,1.337183,2,WALK
1759223398.39403,-2.116325,16.395194,4.633379,0.636175,-0.939183,0.517917,2,WALK
1759223398.41390,-3.386898,14.206594,2.538303,-0.068649,0.721166,0.101436,2,WALK
1759223398.43386,-2.647388,11.699865,-0.048483,-0.36206,1.614233,0.762229,2,WALK
1759223398.45383,-1.368286,9.170391,-0.589572,-0.217496,1.47025,1.571603,2,WALK
1759223398.47394,-2.156876,8.045415,2.550573,-0.486935,0.248928,1.142468,2,WALK
1759223398.49385,0.990002,6.669198,2.455403,-0.733113,-1.468647,0.953353,2,WALK
1759223398.51391,4.135834,5.05805,-0.825401,-0.05547,-1.651412,1.199369,2,WALK
1759223398.53381,1.993023,4.457704,0.617105,0.132539,-1.850649,1.110695,2,WALK
1759223398.55383,-0.461632,3.22065,1.173009,-0.024619,-2.345495,0.792416,2,WALK
1759223398.57384,-2.068291,2.875586,1.533636,-0.084335,-3.136182,0.502648,2,WALK
1759223398.59385,-3.430741,2.934393,0.871938,-0.099458,-3.06127,0.051769,2,WALK
1759223398.61383,-4.928314,3.153164,0.138116,-0.234625,-2.591944,-0.587834,2,WALK
1759223398.63387,-5.100398,4.531176,-1.662025,-0.44321,-1.878659,-1.247816,2,WALK
1759223398.65383,-1.51972,7.654113,-6.060323,-0.244191,-1.316445,-1.590283,2,WALK
1759223398.67394,5.830629,13.339594,-10.41373,0.21298,-0.287231,-1.23391,2,WALK
1759223398.69389,10.758046,19.239655,-6.96997,-0.134462,1.175473,-0.186268,2,WALK
1759223398.71301,12.012009,18.117523,-5.964405,-0.544867,1.704327,0.728362,2,WALK
1759223398.73388,7.96925,9.74051,-5.090522,-0.263994,1.147298,0.802237,2,WALK
1759223398.75353,4.338892,5.617096,-4.671985,0.060537,0.723112,0.415603,2,WALK
1759223398.77386,0.955436,5.916521,1.929427,0.135161,1.183944,0.044552,2,WALK
1759223398.79387,0.052822,11.122862,5.729474,-0.367408,0.372635,-0.338921,2,WALK
1759223398.81324,0.221164,16.79293,1.840692,-0.612531,0.980507,-0.52668,2,WALK
1759223398.83388,2.418593,15.073894,-6.00361,0.042258,2.885169,-0.230955,2,WALK
1759223398.85389,-3.875464,10.489446,-1.210568,-0.017039,1.693092,-0.616647,2,WALK
1759223398.87395,-5.537938,8.417414,3.560477,-0.29917,0.15314,-1.311113,2,WALK
1759223398.89383,-4.14137,8.161833,3.173814,-0.478533,-0.521319,-1.65944,2,WALK
1759223398.91343,-2.760215,8.96434,3.035399,-0.351996,-0.513517,-1.729019,2,WALK
1759223398.93382,-0.790835,9.595212,3.971981,-0.420309,-0.561853,-1.446309,2,WALK
1759223398.95384,0.399682,10.24434,4.53806,-0.790057,-0.936984,-1.351053,2,WALK
1759223398.97387,2.049886,11.568483,4.011485,-1.096601,-1.394106,-1.296796,2,WALK
1759223398.99390,4.125658,11.884218,2.381632,-1.440397,-0.655558,-1.248456,2,WALK
1759223399.01365,6.749404,10.489746,0.399832,-1.94196,1.792179,-1.120857,2,WALK
1759223399.03389,5.646425,7.87438,-0.339079,-1.807312,3.061423,-1.133635,2,WALK
1759223399.05387,4.529381,7.434295,-0.463577,-1.565571,2.691034,-0.617574,2,WALK
1759223399.07386,2.014421,7.428609,-1.344793,-1.433283,2.171476,-0.158085,2,WALK
1759223399.09387,0.554108,7.460332,-1.773355,-0.865627,2.054346,-0.391299,2,WALK
1759223399.11384,0.269198,7.613112,-1.971625,-0.006446,1.740049,-0.536363,2,WALK
1759223399.13384,0.409857,9.115324,-0.771083,0.315386,1.235646,-0.701198,2,WALK
1759223399.15390,1.282843,9.944915,0.374094,-0.04714,0.975793,-0.882536,2,WALK
1759223399.17384,2.199074,9.506926,0.68953,-0.495225,0.742984,-0.972323,2,WALK
1759223399.19389,3.164087,8.092701,0.671274,-0.281224,0.298526,-0.992562,2,WALK
1759223399.21388,5.466112,8.033145,0.445471,0.357006,-0.669574,-0.725759,2,WALK
1759223399.23307,6.719776,8.248773,1.395371,0.545304,-1.371445,-0.210002,2,WALK
1759223399.25383,7.831134,8.719682,1.892167,0.25973,-1.240414,0.29401,2,WALK
1759223399.27389,9.020005,10.263344,1.727117,-0.148459,-0.281144,0.544132,2,WALK
1759223399.29385,8.602815,11.421988,1.227477,-0.176553,0.445976,0.877744,2,WALK
1759223399.31394,7.806295,12.523919,0.444274,0.267067,0.616159,1.273598,2,WALK
1759223399.33287,7.774571,15.449783,-0.312294,0.670627,1.18135,1.538751,2,WALK
1759223399.35352,6.980744,16.176573,-2.092083,0.86022,2.009441,1.762664,2,WALK
1759223399.37383,6.509834,11.617265,-4.160674,1.538973,0.915725,2.582597,2,WALK
1759223399.39384,8.557775,11.00016,-9.503933,2.523879,-2.055029,3.584933,2,WALK
1759223399.41385,2.931251,15.948974,-2.2712,2.581196,-3.235556,3.254085,2,WALK
1759223399.43383,-0.531962,17.836952,2.792986,2.431631,-3.330073,1.873688,2,WALK
1759223399.45382,-0.817321,18.163611,5.55799,1.792909,-2.763001,0.779919,2,WALK
1759223399.47383,-1.206977,18.303073,6.228516,1.074931,-0.954309,0.130287,2,WALK
1759223399.49389,-3.190124,15.308974,3.322553,0.021247,1.222913,0.051465,2,WALK
1759223399.51384,-5.556044,10.997167,-1.48216,-0.252559,1.407241,0.920427,2,WALK
1759223399.53329,-0.620697,9.50109,-2.897433,0.336976,0.101848,1.240963,2,WALK
1759223399.55401,-1.384746,8.346486,4.377947,0.071463,-0.863226,0.916588,2,WALK
1759223399.57389,1.611747,6.887669,3.048417,0.645776,-0.518531,0.911409,2,WALK
1759223399.59383,1.062427,5.036203,-0.292542,0.734985,-1.131471,0.774098,2,WALK
1759223399.61386,-0.263661,2.666692,0.917877,0.036363,-1.835668,0.549406,2,WALK
1759223399.63388,-0.796371,1.524358,0.236876,-0.122762,-2.040356,0.380235,2,WALK
1759223399.65389,-2.317737,1.902941,0.437391,-0.280871,-1.934346,0.09478,2,WALK
1759223399.67386,-2.545336,2.672977,1.473781,-0.595022,-1.814591,-0.180027,2,WALK
1759223399.69388,-2.762161,3.143138,1.083676,-0.994743,-1.73936,-0.656166,2,WALK
1759223399.71385,-3.233669,4.179079,-0.497994,-1.203871,-1.487805,-1.229648,2,WALK
1759223399.73366,0.814328,6.153846,-2.300678,-1.074983,-1.07487,-1.353711,2,WALK
1759223399.75383,7.408857,9.273192,-5.296722,-0.753386,-0.323062,-0.713978,2,WALK
1759223399.77381,9.833435,16.178219,-10.588806,-0.132793,1.117047,0.219517,2,WALK
1759223399.79390,10.67769,21.147235,-12.340613,-0.121845,1.293783,0.974604,2,WALK
1759223399.81383,9.789591,12.916868,-8.684368,-0.209489,1.007451,0.930671,2,WALK
1759223399.83381,5.688773,9.824756,-5.76404,-0.321133,0.938423,0.610123,2,WALK
1759223399.85371,2.94816,14.774469,-1.903839,-0.394317,0.510307,0.256998,2,WALK
1759223399.87383,2.490119,16.968156,3.017143,0.065967,-0.636738,0.259499,2,WALK
1759223399.89381,-0.227898,14.640094,5.068375,0.763028,0.5488,-0.558905,2,WALK
1759223399.91382,-2.191892,7.120056,-6.475418,1.629149,1.698728,-0.713044,2,WALK
1759223399.93381,-8.030601,5.810578,2.807501,0.457355,0.874224,-0.857829,2,WALK
1759223399.95382,-6.85834,5.90036,4.630536,-0.086258,1.270438,-1.708472,2,WALK
1759223399.97382,-4.165312,8.698883,3.48087,-0.477342,1.431437,-2.220645,2,WALK
1759223399.99381,-2.02729,11.778275,3.879056,-0.493307,1.108486,-1.797962,2,WALK
1759223400.01345,-1.318307,11.464186,5.104288,-0.642598,-0.785756,-1.312441,2,WALK
1759223400.03382,0.339977,12.761095,3.606416,-0.810717,-1.756647,-1.151244,2,WALK
1759223400.05388,2.672977,13.280786,2.973299,-1.081986,-1.882988,-0.828599,2,WALK
1759223400.07386,5.486912,11.725303,1.293467,-1.752512,-0.585496,-0.764129,2,WALK
1759223400.09382,7.174225,7.989451,0.402974,-2.590004,2.408625,-1.555375,2,WALK
1759223400.11383,8.852261,8.03509,0.07033,-2.545945,3.166108,-1.780082,2,WALK
1759223400.13382,7.395988,7.434295,-0.748936,-2.51498,2.659717,-0.726487,2,WALK
1759223400.15401,3.598485,7.376086,-3.304447,-2.097753,2.391821,-0.28161,2,WALK
1759223400.17387,1.417816,8.783129,-4.856189,-1.093997,2.261621,-0.291076,2,WALK
1759223400.19382,0.964414,8.578425,-3.78224,0.006312,1.107435,-0.245113,2,WALK
1759223400.21385,1.490391,8.508843,-1.443255,0.578982,0.063365,-0.031311,2,WALK
1759223400.23382,0.417788,9.455899,1.111209,0.553621,-0.170488,-0.376646,2,WALK
1759223400.25387,1.203535,9.42687,2.944419,-0.080159,-0.225402,-0.856134,2,WALK
1759223400.27386,2.360234,8.795549,2.030283,-0.690258,0.090107,-0.881286,2,WALK
1759223400.29382,3.809324,9.226206,0.287005,-0.389016,0.328708,-0.819151,2,WALK
1759223400.31391,6.760028,9.15408,1.254262,0.261499,-0.171602,-0.631327,2,WALK
1759223400.33388,8.374768,9.069086,2.282273,0.380384,-0.849339,-0.168377,2,WALK
1759223400.35379,9.056816,9.163059,2.468572,0.167382,-0.991869,0.469663,2,WALK
1759223400.37388,8.410232,9.841964,1.260846,-0.030866,-0.225521,0.751309,2,WALK
1759223400.39401,7.354838,12.672958,0.593612,-0.110892,0.471696,1.130975,2,WALK
1759223400.41387,6.939145,15.436017,-1.740285,0.465553,0.949641,1.57182,2,WALK
1759223400.43304,6.193351,14.880412,-4.545093,1.132386,1.816622,2.012824,2,WALK
1759223400.45388,6.267421,11.71842,-8.369082,1.593225,0.114334,2.59075,2,WALK
1759223400.47386,5.098452,13.005303,-4.38094,2.537408,-2.452128,3.422705,2,WALK
1759223400.49384,1.354669,17.066169,0.641197,2.502069,-2.67759,3.284749,2,WALK
1759223400.51392,-0.083797,17.425449,3.157653,2.515692,-2.199594,2.195603,2,WALK
1759223400.53320,-1.105223,19.030611,6.421698,1.89632,-2.172726,1.076013,2,WALK
1759223400.55401,-2.20895,17.296311,4.801422,0.93828,-0.865567,0.134923,2,WALK
1759223400.57388,-4.036025,13.064111,0.67322,0.173133,1.225079,0.000308,2,WALK
1759223400.59381,-3.466804,9.449615,-2.992303,-0.07885,1.422557,0.781411,2,WALK
1759223400.61382,-1.629404,8.544158,-0.989553,0.244552,0.841432,1.245654,2,WALK
1759223400.63340,-0.5366,8.053197,6.451326,-0.488554,-0.329543,0.804005,2,WALK
1759223400.65388,4.155586,7.014263,1.708263,-0.409808,-1.100352,1.187407,2,WALK
1759223400.67383,2.194136,5.229685,-0.205602,0.403746,-0.676423,0.963479,2,WALK
1759223400.69382,-0.025289,2.943671,0.130035,0.10846,-0.743032,0.61721,2,WALK
1759223400.71382,-0.992995,2.198476,0.351648,-0.278674,-1.356458,0.43051,2,WALK
1759223400.73361,-1.362151,2.301127,0.771681,-0.428896,-1.893938,0.115859,2,WALK
1759223400.75384,-1.35856,2.710236,0.865504,-0.554108,-1.978748,-0.182522,2,WALK
1759223400.77385,-1.790713,3.12997,0.475249,-0.78259,-2.252074,-0.508403,2,WALK
1759223400.79384,-2.41156,4.572177,-1.198448,-1.035736,-2.766134,-1.282889,2,WALK
1759223400.81380,-0.664391,7.639748,-3.558083,-0.743632,-2.957546,-1.560738,2,WALK
1759223400.83398,8.325387,13.096283,-9.902268,-0.10368,-0.421982,-0.650345,2,WALK
1759223400.85380,10.205285,21.566819,-9.31135,-0.432175,1.513269,0.419244,2,WALK
1759223400.87381,9.496751,16.899472,-7.867646,-0.37095,1.251844,1.090578,2,WALK
1759223400.89387,6.79669,9.139715,-5.983858,-0.128837,0.941935,0.889553,2,WALK
1759223400.91382,3.264344,5.1613,-3.734655,-0.131004,1.31384,0.295282,2,WALK
1759223400.93380,1.448791,8.660576,-0.076914,-0.466355,0.97886,-0.218378,2,WALK
1759223400.95382,2.763208,17.327137,3.944597,-0.36652,0.305803,-0.230806,2,WALK
1759223400.97381,3.664176,18.251448,-0.249745,0.650136,1.258194,-0.254807,2,WALK
1759223400.99381,-2.034323,10.060435,-8.160636,1.356177,0.731529,-0.777627,2,WALK
1759223401.01291,-7.855376,7.411102,-1.000926,0.71059,0.065378,-1.09444,2,WALK
1759223401.03386,-6.772149,5.911583,4.37256,0.203481,1.028169,-1.736974,2,WALK
1759223401.05380,-5.030667,6.862979,4.246865,-0.238225,1.426923,-1.975788,2,WALK
1759223401.07381,-2.940229,9.137171,5.133168,-0.598816,0.598876,-1.30217,2,WALK
1759223401.09381,-1.357812,11.300482,4.935347,-0.665107,-0.946286,-1.028064,2,WALK
1759223401.11382,-0.87134,11.78845,3.855413,-0.58813,-1.857311,-1.124952,2,WALK
1759223401.13387,1.102829,12.828282,3.008614,-0.742972,-2.062225,-0.908913,2,WALK
1759223401.15395,3.919907,12.791322,2.231396,-1.682465,-0.377603,-0.530993,2,WALK
1759223401.17381,6.278794,10.818799,0.756867,-2.36663,2.128499,-0.760891,2,WALK
1759223401.19380,5.979369,8.085668,0.205752,-2.082562,2.524245,-1.181129,2,WALK
1759223401.21387,6.769306,7.298574,0.134674,-1.971308,2.34751,-0.834116,2,WALK
1759223401.23310,5.559187,7.164798,-0.494702,-1.905323,2.272666,-0.271392,2,WALK
1759223401.25338,3.045574,7.967604,-1.402703,-1.641681,2.317276,-0.112666,2,WALK
1759223401.27294,2.149245,8.857798,-2.045097,-0.954239,2.43029,-0.133463,2,WALK
1759223401.29380,1.290624,8.888174,-2.414552,-0.108163,2.40697,-0.32897,2,WALK
1759223401.31382,0.261118,8.719682,-1.381005,0.186701,1.935228,-0.503493,2,WALK
1759223401.33383,0.810886,9.232042,-0.515502,0.004772,1.129388,-0.678564,2,WALK
1759223401.35380,0.807145,8.736591,0.047884,-0.385678,0.361805,-0.940956,2,WALK
1759223401.37379,3.101988,9.676615,0.306607,-0.204617,-0.139361,-0.894966,2,WALK
1759223401.39381,6.296152,9.902717,0.427664,0.355002,-0.89255,-0.828079,2,WALK
1759223401.41380,7.819912,8.874857,1.993622,0.558218,-1.731757,-0.222014,2,WALK
1759223401.43398,8.674043,8.681226,2.862418,0.455745,-1.951463,0.4891,2,WALK
1759223401.45381,8.519467,9.692327,2.098069,0.172498,-0.514563,0.640376,2,WALK
1759223401.47382,7.318476,11.210849,1.319205,0.093131,0.997647,0.980893,2,WALK
1759223401.49386,5.577442,13.329418,-0.794276,0.592332,2.464048,1.249454,2,WALK
1759223401.51377,4.780921,16.38846,-4.686051,1.50198,4.107273,1.494261,2,WALK
1759223401.53379,5.371541,13.020866,-5.620239,2.032462,1.494526,2.099913,2,WALK
1759223401.55385,6.756287,10.110265,-3.920954,2.033096,-2.902863,2.769455,2,WALK
1759223401.57357,2.424728,12.340763,-1.712303,2.272512,-3.400662,2.842882,2,WALK
1759223401.59383,2.373552,15.613786,-0.250493,2.354287,-2.480501,2.465425,2,WALK
1759223401.61381,1.928679,15.92997,3.01445,2.001944,-1.87077,1.790854,2,WALK
1759223401.63340,1.040879,16.151883,4.732439,1.316783,-0.732619,1.052919,2,WALK
1759223401.65325,-0.968155,15.196746,3.772963,0.538793,0.535448,0.271486,2,WALK
1759223401.67285,-2.86167,13.06441,2.231246,-0.339779,1.891719,-0.03992,2,WALK
1759223401.69379,0.205752,9.884611,-3.936068,-0.39373,1.815593,0.952645,2,WALK
1759223401.71381,0.743699,8.416217,-1.343147,0.131013,0.298936,1.35582,2,WALK
1759223401.73383,-0.959027,7.351995,4.964676,-0.380208,-0.933356,0.712367,2,WALK
1759223401.75379,3.082086,7.083096,1.890372,-0.3434,-1.700059,0.781642,2,WALK
1759223401.77384,2.327314,5.930587,-1.089811,0.339767,-1.093082,0.942234,2,WALK
1759223401.79379,0.393547,4.619911,0.638354,0.147196,-1.304552,0.755151,2,WALK
1759223401.81381,0.446519,4.239084,0.49979,-0.190508,-1.820717,0.696518,2,WALK
1759223401.83380,-0.684592,3.991733,0.720355,-0.354366,-1.96181,0.444205,2,WALK
1759223401.85381,-1.687613,4.422539,0.65661,-0.513833,-2.080731,0.05446,2,WALK
1759223401.87380,-3.031957,4.386776,0.706888,-0.648877,-2.254565,-0.379715,2,WALK
1759223401.89380,-4.097676,4.465934,0.349404,-0.805934,-2.102607,-0.961599,2,WALK
1759223401.91381,-3.07221,4.876091,-1.062128,-1.250351,-1.606592,-1.452134,2,WALK
1759223401.93308,1.438616,7.575404,-5.338471,-1.357743,-1.033665,-1.576199,2,WALK
1759223401.95385,8.098686,15.537172,-12.678046,-0.45221,-0.073768,-0.97569,2,WALK
1759223401.97381,15.254207,22.765865,-7.402872,-0.602272,1.716457,0.437722,2,WALK
1759223401.99382,15.225177,16.636858,-7.359776,-0.545743,2.434694,1.493562,2,WALK
1759223402.01379,7.109881,7.373393,-6.045509,0.084128,1.894209,0.932732,2,WALK
1759223402.03384,2.971354,4.751293,-1.309928,0.197196,1.30284,0.482503,2,WALK
1759223402.05292,-2.085499,10.629208,0.523133,-0.047634,0.997053,-0.167576,2,WALK
1759223402.07383,-3.271228,14.207791,3.519327,-0.099049,0.01266,-0.559759,2,WALK
1759223402.09379,-1.733552,16.203807,-1.410484,0.241849,0.508304,-0.53929,2,WALK
1759223402.11381,-0.052074,10.944195,-3.935619,0.654784,1.884125,-0.448889,2,WALK
1759223402.13299,-3.721038,7.51495,0.961871,0.278116,1.450443,-0.749073,2,WALK
1759223402.15311,-5.036951,6.627001,3.265541,-0.154817,0.406783,-1.192233,2,WALK
1759223402.17380,-4.21993,8.667908,2.689886,0.01926,-0.018715,-1.639975,2,WALK
1759223402.19391,-2.162114,10.177003,3.144634,0.054314,-0.208339,-1.706031,2,WALK
1759223402.21379,0.00808,11.001057,3.486706,-0.13639,-0.658268,-1.328087,2,WALK
1759223402.23303,0.589871,12.080693,3.360711,-0.298353,-1.355253,-1.311166,2,WALK
1759223402.25339,2.766949,12.74643,2.780117,-0.537348,-1.69559,-1.132671,2,WALK
1759223402.27386,4.774786,11.919084,2.160168,-1.043126,-1.337901,-0.743641,2,WALK
1759223402.29380,6.169708,8.804228,1.36679,-2.04535,0.644819,-0.863728,2,WALK
1759223402.31383,6.243928,7.83308,0.486023,-2.314619,1.449041,-1.07828,2,WALK
1759223402.33381,5.170278,7.348254,-0.412102,-2.040133,1.110972,-0.665391,2,WALK
1759223402.35373,2.930952,7.646332,-1.698237,-1.695555,1.50762,-0.225057,2,WALK
1759223402.37381,1.585111,8.069058,-1.970428,-1.086716,2.227899,-0.204365,2,WALK
1759223402.39399,1.969979,8.118738,-1.580173,-0.125382,2.159553,-0.142527,2,WALK
1759223402.41383,1.306037,8.206276,-0.507571,0.434191,2.134317,-0.11163,2,WALK
1759223402.43399,0.721553,9.089886,0.594959,0.242828,2.023391,-0.38689,2,WALK
1759223402.45381,0.688632,8.649802,0.802806,-0.257069,1.665596,-0.802828,2,WALK
1759223402.47383,1.466449,7.49011,0.915333,-0.621927,0.805548,-0.939183,2,WALK
1759223402.49380,2.984073,8.739135,0.03292,-0.626434,0.101339,-0.723696,2,WALK
1759223402.51388,5.523573,9.957185,-0.427365,0.229636,-0.384376,-0.571057,2,WALK
1759223402.53380,7.391349,9.514707,0.666037,0.499548,-0.70652,-0.032245,2,WALK
1759223402.55380,8.184728,9.046491,1.45762,0.408203,-0.48399,0.504011,2,WALK
1759223402.57378,7.860912,9.180866,1.129614,0.159175,0.303762,0.697247,2,WALK
1759223402.59389,8.844331,13.198486,0.959027,0.081692,0.598386,1.252773,2,WALK
1759223402.61385,8.830265,16.73951,-0.272191,0.293444,1.360734,1.372028,2,WALK
1759223402.63387,6.498761,14.443171,-3.51379,0.90731,1.212404,1.54808,2,WALK
1759223402.65383,7.911789,10.660781,-6.559065,2.017955,-0.918566,2.673307,2,WALK
1759223402.67293,7.047183,12.872575,-4.784662,2.455759,-2.527122,3.191986,2,WALK
1759223402.69378,1.913566,16.134076,-0.502333,2.462052,-2.500064,2.650068,2,WALK
1759223402.71393,-0.001796,16.457593,2.247407,2.291792,-2.312009,1.670773,2,WALK
1759223402.73397,-0.490362,16.474502,3.923947,1.708047,-2.00858,0.728521,2,WALK
1759223402.75399,-1.566855,15.024364,5.112069,0.934433,-0.667772,0.089077,2,WALK
1759223402.77383,-1.891419,12.347945,3.784784,0.604041,1.064811,0.008723,2,WALK
1759223402.79399,-2.135179,10.407894,2.976591,-0.403554,1.502363,0.881335,2,WALK
1759223402.81384,0.209642,8.741081,1.229871,-0.919481,0.78517,1.143827,2,WALK
1759223402.83381,0.815076,8.392575,-0.309002,-0.972607,-0.528803,1.032581,2,WALK
1759223402.85385,2.881122,7.864354,1.347786,-0.465311,-1.546963,1.28077,2,WALK
1759223402.87326,0.393547,7.115418,-0.936881,0.178523,-1.536222,0.847314,2,WALK
1759223402.89382,-0.414197,5.984756,0.095319,0.050093,-1.592316,0.697427,2,WALK
1759223402.91381,0.250643,4.729296,0.346411,-0.244413,-1.971813,0.662918,2,WALK
1759223402.93384,0.142455,4.369867,0.611569,-0.367201,-2.250374,0.398974,2,WALK
1759223402.95385,-0.680253,4.549881,1.379808,-0.631976,-2.087884,0.09523,2,WALK
1759223402.97384,-1.835156,4.657171,1.454029,-0.848865,-1.661871,-0.241625,2,WALK
1759223402.99381,-2.729988,4.676624,0.77617,-1.01338,-1.376014,-0.640261,2,WALK
1759223403.01382,-3.635146,5.027674,-0.273538,-1.121211,-1.241798,-1.148953,2,WALK
1759223403.03398,-3.631555,7.01112,-2.825308,-0.913774,-1.52866,-1.547724,2,WALK
1759223403.05385,1.678635,10.626215,-8.026711,-0.210194,-1.153351,-1.230793,2,WALK
1759223403.07369,10.270227,17.690008,-11.155334,0.171875,0.319847,-0.104375,2,WALK
1759223403.09367,13.608942,19.024925,-6.821679,-0.253733,1.325718,0.851126,2,WALK
1759223403.11379,10.487351,11.991509,-5.740098,-0.326113,1.840606,0.876424,2,WALK
1759223403.13378,6.124368,7.554305,-5.119851,-0.014426,1.9607,0.481735,2,WALK
1759223403.15380,3.376423,12.121693,-1.895609,0.485774,0.931751,0.182449,2,WALK
1759223403.17379,0.708384,15.171158,0.505177,1.028471,0.328552,-0.271247,2,WALK
1759223403.19380,-3.98874,12.848633,2.147449,0.699454,0.250754,-0.699559,2,WALK
1759223403.21385,-6.142175,8.993819,-2.698415,0.256715,0.500286,-0.429471,2,WALK
1759223403.23302,-6.157887,5.912481,1.28,0.210713,1.327375,-0.874218,2,WALK
1759223403.25379,-5.512949,6.262633,3.110667,0.229541,2.376803,-1.770851,2,WALK
1759223403.27379,-3.329586,9.762058,3.066823,0.04608,2.253081,-1.778734,2,WALK
1759223403.29378,-1.459266,12.108376,4.180875,-0.272114,0.53079,-1.357584,2,WALK
1759223403.31379,-0.165948,12.879608,3.776853,-0.445935,-1.601149,-1.137325,2,WALK
1759223403.33379,1.551592,13.199383,3.623325,-0.811272,-2.765778,-0.884325,2,WALK
1759223403.35380,3.256114,12.161796,2.807501,-1.136926,-2.689368,-0.723859,2,WALK
1759223403.37377,6.61084,8.842385,1.311873,-2.156847,-0.049864,-1.031757,2,WALK
1759223403.39381,7.723096,8.317905,0.635661,-2.552594,1.973374,-1.253528,2,WALK
1759223403.41378,7.171382,8.009353,0.159364,-2.207547,1.679896,-0.68991,2,WALK
1759223403.43377,4.390218,8.03928,-1.077091,-1.835644,1.688763,-0.12634,2,WALK
1759223403.45385,2.431761,8.024765,-1.957709,-1.455166,2.322567,-0.086544,2,WALK
1759223403.47379,1.827823,8.156596,-2.107047,-0.861398,2.628552,-0.15915,2,WALK
1759223403.49386,1.172261,7.924359,-1.695394,-0.214097,2.648885,-0.071325,2,WALK
1759223403.51379,0.271892,7.526921,-0.446369,0.295369,2.071065,-0.169684,2,WALK
1759223403.53326,-0.246154,8.446145,0.789937,0.016867,1.270668,-0.401349,2,WALK
1759223403.55336,0.157269,9.838523,0.484078,-0.515286,0.643446,-0.63047,2,WALK
1759223403.57377,0.639551,9.733477,-1.432182,-0.315599,0.583838,-0.793175,2,WALK
1759223403.59357,2.720112,8.949077,-0.471209,0.447351,0.330799,-0.772003,2,WALK
1759223403.61384,4.650288,8.063821,2.175731,0.725616,-0.303364,-0.578144,2,WALK
1759223403.63382,6.297499,8.349629,3.498378,0.465414,-1.051777,-0.227556,2,WALK
1759223403.65377,7.960272,9.680655,2.658611,0.015429,-0.788886,0.189055,2,WALK
1759223403.67383,8.368932,10.164882,1.233463,-0.098514,0.210539,0.401998,2,WALK
1759223403.69379,8.709956,11.267412,0.362572,0.052074,1.015791,0.525117,2,WALK
1759223403.71378,10.035745,14.445116,0.002693,0.349008,1.189599,1.225633,2,WALK
1759223403.73376,9.250597,14.888343,-1.799691,0.689833,2.040997,1.550464,2,WALK
1759223403.75378,7.729979,12.098948,-2.863016,0.647884,1.754979,1.690214,2,WALK
1759223403.77294,9.694721,10.529849,-9.029432,1.688419,-0.836914,2.636001,2,WALK
1759223403.79381,4.373309,13.545495,-1.227178,2.224085,-2.798588,3.25299,2,WALK
1759223403.81379,1.937059,16.405519,1.166575,1.97271,-2.447806,2.89031,2,WALK
1759223403.83379,0.208894,16.30182,2.292747,1.848662,-1.954972,1.820503,2,WALK
1759223403.85384,-1.237353,16.007632,4.437204,1.561192,-1.497871,0.845608,2,WALK
1759223403.87314,-1.13964,14.307151,4.263026,0.748978,-1.213953,0.36662,2,WALK
1759223403.89384,-1.142483,12.323854,2.272097,0.4885,-1.001914,0.343197,2,WALK
1759223403.91377,-1.908628,10.886734,1.232864,0.436599,-0.560449,0.477945,2,WALK
1759223403.93377,-1.776647,9.207351,0.907851,-0.291908,-0.113681,0.77459,2,WALK
1759223403.95378,-2.114679,8.605808,0.057012,-0.726268,-0.007369,1.032383,2,WALK
1759223403.97331,-1.786374,7.663091,0.222062,-0.853125,-0.691206,0.895139,2,WALK
1759223403.99398,-0.134823,5.891083,-1.653795,-0.283293,-1.680754,0.821665,2,WALK
1759223404.01385,0.833332,5.182249,-1.033248,0.492077,-1.603766,0.660087,2,WALK
1759223404.03377,2.404527,4.805013,0.402525,0.390036,-1.273347,0.729299,2,WALK
1759223404.05381,2.058116,5.62368,1.783082,-0.054024,-1.774634,0.709308,2,WALK
1759223404.07353,-0.800112,5.873725,1.881094,-0.372855,-1.792115,0.358317,2,WALK
1759223404.09343,-2.598756,5.382315,1.529446,-0.65739,-1.676892,-0.129839,2,WALK
1759223404.11384,-3.680038,4.7896,-0.402675,-0.817959,-1.703793,-0.696176,2,WALK
1759223404.13378,-4.057723,5.106383,-2.67148,-0.879146,-1.549515,-1.331365,2,WALK
1759223404.15390,0.461183,6.694188,-6.861333,-0.801274,-1.704265,-1.586698,2,WALK
1759223404.17374,9.026888,11.572972,-10.671256,-0.150184,-0.584274,-1.000117,2,WALK
1759223404.19381,11.597214,18.046894,-6.269367,-0.505123,0.919866,-0.025482,2,WALK
1759223404.21378,10.607062,15.898098,-6.080225,-0.478579,1.642259,0.618763,2,WALK
1759223404.23309,6.494422,8.333767,-6.274454,-0.269066,1.322507,0.525102,2,WALK
1759223404.25384,2.529474,6.97401,-4.639215,0.272909,1.468715,0.049703,2,WALK
1759223404.27389,1.978808,10.634894,-1.074548,0.194443,0.439465,-0.10134,2,WALK
1759223404.29377,-0.091728,13.23784,6.815095,-0.086269,-0.985981,-0.39571,2,WALK
1759223404.31384,1.17256,13.313407,2.084601,0.171324,1.39926,-0.363615,2,WALK
1759223404.33378,2.425177,10.210372,-5.215469,0.42301,3.775669,-0.438428,2,WALK
1759223404.35390,-2.65517,9.89733,-0.602591,-0.059294,2.275052,-0.908763,2,WALK
1759223404.37385,-3.645322,9.983372,2.978237,-0.294122,0.098661,-1.040307,2,WALK
1759223404.39397,-3.780594,9.227403,3.265691,-0.244066,-1.394524,-1.189222,2,WALK
1759223404.41383,-2.749591,9.23683,3.015497,-0.33988,-2.29572,-1.27032,2,WALK
1759223404.43397,-1.784578,9.198972,2.567482,-0.395293,-2.550642,-1.358979,2,WALK
1759223404.45383,-0.35913,9.75293,1.934066,-0.578539,-2.127524,-1.266816,2,WALK
1759223404.47397,1.498321,11.328315,2.121263,-1.209604,-0.963581,-1.024742,2,WALK
1759223404.49377,3.106028,11.603648,1.671302,-1.597569,0.177543,-0.723441,2,WALK
1759223404.51384,4.014777,9.782259,1.063026,-1.418151,0.802444,-0.542233,2,WALK
1759223404.53383,4.232051,7.859416,0.464774,-1.290201,1.27123,-0.640602,2,WALK
1759223404.55388,4.643554,8.073996,0.46672,-1.509245,1.628259,-0.47823,2,WALK
1759223404.57384,3.630508,8.401254,-0.015862,-1.617103,1.871586,-0.271255,2,WALK
1759223404.59321,2.515558,8.368782,-0.656759,-1.319675,2.175324,-0.333865,2,WALK
1759223404.61378,2.122909,8.271219,-1.001375,-0.606367,2.365836,-0.46023,2,WALK
1759223404.63397,1.408688,8.151508,-0.614113,-0.201871,2.469871,-0.579265,2,WALK
1759223404.65378,1.159093,9.433304,-0.145897,-0.288244,2.238831,-0.686224,2,WALK
1759223404.67397,1.30065,10.136302,0.03307,-0.535597,1.541764,-1.063005,2,WALK
1759223404.69377,2.529624,8.911368,-0.533757,-0.52008,0.583588,-1.196681,2,WALK
1759223404.71381,4.889259,8.988282,-0.758812,-0.192871,-0.517583,-0.93635,2,WALK
1759223404.73377,5.953631,9.156325,-0.15697,0.222064,-1.311483,-0.592138,2,WALK
1759223404.75387,6.510583,9.127445,0.737713,0.420209,-1.521547,-0.067772,2,WALK
1759223404.77379,7.225701,9.124452,1.637784,0.318576,-1.261062,0.363587,2,WALK
1759223404.79386,7.443723,9.143456,1.913117,0.048503,-0.361337,0.602754,2,WALK
1759223404.81377,7.029226,11.006295,1.550545,-0.068931,0.521493,1.063437,2,WALK
1759223404.83397,4.89315,12.851775,1.350779,0.100275,1.173907,1.060875,2,WALK
1759223404.85380,5.05386,15.181782,0.246603,0.2148,1.719606,1.274606,2,WALK
1759223404.87381,5.114613,17.006763,-1.925237,0.207862,2.59173,1.468826,2,WALK
1759223404.89376,4.692935,14.537892,-11.723807,2.301773,0.540021,1.876783,2,WALK
1759223404.91380,7.072921,10.782586,-7.178714,3.084378,-2.798569,2.399845,2,WALK
1759223404.93382,5.568913,11.53676,0.319476,2.432377,-3.307829,2.483284,2,WALK
1759223404.95396,3.004274,14.922311,1.137096,2.042575,-2.437792,1.890712,2,WALK
1759223404.97384,-1.021875,16.683096,3.291578,1.994758,-1.83947,0.734703,2,WALK
1759223404.99376,-2.681356,15.638177,5.918317,1.587736,-0.819864,-0.134998,2,WALK
1759223405.01383,-2.735226,14.022989,4.481197,1.377675,0.318337,-0.377291,2,WALK
1759223405.03382,-3.213019,11.299884,2.359486,0.243881,1.21004,0.270699,2,WALK
1759223405.05383,-1.789666,8.727763,-0.126144,-0.621908,1.027666,1.287455,2,WALK
1759223405.07378,-0.445022,7.920169,-2.652327,-0.300642,0.517392,1.109694,2,WALK
1759223405.09318,0.415993,7.276577,3.29936,-0.103998,-1.640474,1.136196,2,WALK
1759223405.11381,2.406173,6.693589,-0.873584,0.710377,-0.904627,1.121446,2,WALK
1759223405.13378,-0.275034,4.653131,0.819715,0.634691,-0.818387,0.778635,2,WALK
1759223405.15377,-0.449661,3.231125,1.045518,0.181057,-1.58317,0.616957,2,WALK
1759223405.17384,-0.490213,3.110367,0.403872,-0.095114,-1.354086,0.54977,2,WALK
1759223405.19378,-1.311274,3.766528,0.887351,-0.289138,-1.249931,0.371509,2,WALK
1759223405.21383,-2.400038,4.382885,1.414973,-0.631743,-1.352009,-0.036721,2,WALK
1759223405.23303,-2.948908,5.382315,0.163105,-1.03389,-1.645696,-0.630412,2,WALK
1759223405.25377,-1.450737,6.964433,-2.229301,-1.324027,-2.029047,-1.21675,2,WALK
1759223405.27381,3.89806,9.788095,-8.6712,-0.998879,-1.887731,-1.307506,2,WALK
1759223405.29376,13.391069,16.833482,-11.26846,-0.281123,-0.378725,-0.09315,2,WALK
1759223405.31397,11.439944,18.724453,-6.92448,-0.814453,1.412062,0.781046,2,WALK
1759223405.33384,8.547898,11.508778,-7.385514,-0.43849,1.235537,1.112831,2,WALK
1759223405.35384,4.336348,6.310517,-5.854272,0.125897,0.924397,0.69908,2,WALK
1759223405.37381,1.056441,9.291298,-2.026392,0.024289,1.134397,0.130406,2,WALK
1759223405.39385,0.886603,16.291345,2.288408,0.052577,0.519749,-0.061737,2,WALK
1759223405.41383,-1.652298,16.469713,1.632546,0.225917,0.458607,-0.286891,2,WALK
1759223405.43380,-3.549554,10.048315,-5.611111,0.605272,0.912592,-0.251432,2,WALK
1759223405.45382,-7.161805,7.916727,-0.223708,0.819095,0.740381,-0.552184,2,WALK
1759223405.47387,-7.272537,6.518813,4.13329,0.532329,1.610467,-1.495086,2,WALK
1759223405.49286,-5.034557,8.242039,3.369839,0.286681,2.449423,-2.167611,2,WALK
1759223405.51380,-2.318036,10.69011,4.140173,-0.073405,1.891716,-1.781932,2,WALK
1759223405.53379,-1.143531,10.911574,4.070292,-0.420259,0.021539,-1.208431,2,WALK
1759223405.55395,-0.294786,11.931354,3.40246,-0.608085,-1.602045,-1.189086,2,WALK
1759223405.57380,1.97776,12.952781,2.633472,-0.853217,-2.426813,-0.953847,2,WALK
1759223405.59309,3.957615,12.56477,1.941249,-1.349144,-1.953409,-0.563653,2,WALK
1759223405.61382,5.837363,9.836129,0.68938,-2.20278,0.553509,-0.77429,2,WALK
1759223405.63377,6.99481,8.301595,0.112228,-2.283825,2.042085,-1.256109,2,WALK
1759223405.65376,7.156718,7.277176,-0.096816,-2.005183,2.251419,-1.093104,2,WALK
1759223405.67377,5.456386,7.40781,-0.955137,-1.925395,2.488673,-0.423904,2,WALK
1759223405.69332,2.953697,8.100781,-2.317138,-1.579072,3.079787,-0.225782,2,WALK
1759223405.71384,2.093131,8.548946,-2.550573,-0.746645,3.108936,-0.214974,2,WALK
1759223405.73383,1.447445,8.433276,-2.379986,0.128984,2.64636,-0.247016,2,WALK
1759223405.75397,0.45011,8.897153,-1.340005,0.474797,1.863064,-0.29414,2,WALK
1759223405.77376,0.087538,9.947459,0.101454,0.329851,0.529178,-0.686788,2,WALK
1759223405.79349,1.751059,9.317784,0.840814,-0.043857,-0.403323,-0.994226,2,WALK
1759223405.81383,3.811719,9.083601,0.79712,-0.11213,-0.853597,-1.039627,2,WALK
1759223405.83377,6.076185,8.711901,1.782034,0.066113,-1.369495,-0.975296,2,WALK
1759223405.85311,7.28795,8.086117,2.41141,0.082139,-1.763359,-0.653258,2,WALK
1759223405.87378,8.09315,8.122628,2.43191,-0.165269,-1.503713,-0.163996,2,WALK
1759223405.89370,8.336311,9.829096,1.807922,-0.373753,-0.790368,0.266031,2,WALK
1759223405.91383,7.383718,10.94195,1.020379,-0.29011,0.073969,0.638544,2,WALK
1759223405.93375,6.244826,11.756428,0.001646,0.203919,0.903355,1.176931,2,WALK
1759223405.95377,5.519982,13.6673,-0.300622,0.461542,0.985342,1.365684,2,WALK
1759223405.97377,5.352687,15.284733,-1.000327,0.671607,1.243193,1.462238,2,WALK
1759223405.99375,5.243302,13.523199,-3.040486,0.881485,0.554643,1.574148,2,WALK
1759223406.01378,8.891915,9.941773,-5.545121,1.812186,-2.033133,2.509445,2,WALK
1759223406.03315,9.338883,10.516232,-4.984429,2.511208,-3.101214,3.345998,2,WALK
1759223406.05376,4.0465,15.843779,-1.14383,2.639265,-3.235755,3.111622,2,WALK
1759223406.07376,0.749834,18.032379,2.305915,2.626419,-3.847689,1.994705,2,WALK
1759223406.09380,-2.099864,17.820791,5.898415,1.946155,-3.237179,0.623521,2,WALK
1759223406.11279,-2.537704,16.286108,6.351967,1.08715,-0.830909,-0.29836,2,WALK
1759223406.13375,-3.219902,13.424289,4.985177,0.536486,1.273823,-0.608942,2,WALK
1759223406.15375,-2.380734,10.12463,5.073463,-0.840933,1.484712,0.575517,2,WALK
1759223406.17377,-1.751209,8.107814,1.09011,-1.626556,0.477269,1.32191,2,WALK
1759223406.19375,0.451606,8.409334,0.789488,-1.104665,-2.279483,1.494495,2,WALK
1759223406.21302,1.026065,8.168118,-2.246659,0.208261,-1.661211,1.10658,2,WALK
1759223406.23299,0.713023,6.595128,0.620248,0.224527,-0.964087,0.851893,2,WALK
1759223406.25316,0.029329,4.592977,1.348983,-0.206827,-1.507424,0.721868,2,WALK
1759223406.27305,-1.664269,3.895067,1.176002,-0.4415,-1.836263,0.369382,2,WALK
1759223406.29376,-1.621024,4.191349,1.728015,-0.596397,-1.993845,0.135525,2,WALK
1759223406.31316,-2.665495,4.17459,1.638981,-1.039194,-1.568559,-0.212384,2,WALK
1759223406.33376,-3.809773,3.473238,1.065869,-1.500851,-1.245877,-0.75543,2,WALK
1759223406.35381,-4.446781,4.304326,-2.370409,-1.352339,-2.184826,-1.357501,2,WALK
1759223406.37376,-1.196053,7.127987,-6.633285,-0.495163,-2.73789,-1.367272,2,WALK
1759223406.39376,9.925762,13.63423,-11.785458,0.05849,-0.080641,-0.326394,2,WALK
1759223406.41341,9.08001,22.824074,-8.513332,-0.167474,1.987712,0.429423,2,WALK
1759223406.43374,7.92376,16.71048,-6.832004,-0.096102,1.933259,0.860298,2,WALK
1759223406.45378,3.682581,8.494777,-3.808277,-0.106778,1.361972,0.545402,2,WALK
1759223406.47377,0.360627,4.181623,-0.878822,-0.038002,1.632292,0.079678,2,WALK
1759223406.49376,-0.864606,3.214365,1.81271,-0.163679,2.12084,-0.337195,2,WALK
1759223406.51356,-1.946336,7.196372,3.758448,-0.749811,2.136806,-0.678303,2,WALK
1759223406.53378,-2.108992,16.547974,3.463063,-0.743621,1.4066,-0.932321,2,WALK
1759223406.55395,4.53372,22.596775,-6.327875,0.111027,3.210702,-0.615828,2,WALK
1759223406.57374,4.395006,15.062521,-6.758831,0.38143,2.92885,-0.412051,2,WALK
1759223406.59387,0.629974,9.457246,-0.521038,0.186445,1.183221,-0.314337,2,WALK
1759223406.61374,-3.618387,6.622511,1.963844,0.390172,0.271541,-0.783287,2,WALK
1759223406.63388,-3.871574,5.584924,2.598158,0.387026,-0.279906,-1.241125,2,WALK
1759223406.65382,-2.023549,6.146514,3.318364,0.102113,-0.727824,-1.268884,2,WALK
1759223406.67383,-0.447117,8.207922,4.526538,-0.050943,-1.413321,-1.104443,2,WALK
1759223406.69376,0.934636,11.639561,4.896891,-0.140672,-1.957329,-1.036055,2,WALK
1759223406.71384,2.541295,14.443022,4.157382,-0.467202,-2.14779,-0.764146,2,WALK
1759223406.73380,3.97647,12.524667,3.320758,-0.893924,-1.879295,-0.422133,2,WALK
1759223406.75377,5.131373,8.595184,2.85314,-2.175691,0.425027,-0.497504,2,WALK
1759223406.77376,5.926697,7.61012,0.642394,-2.619378,2.613581,-0.599786,2,WALK
1759223406.79375,3.865588,7.550564,-0.525378,-2.203149,2.821147,-0.21398,2,WALK
1759223406.81376,1.578377,7.959075,-1.377863,-1.817859,3.026942,-0.126691,2,WALK
1759223406.83387,1.03235,8.915259,-1.972224,-1.272492,3.55885,-0.229799,2,WALK
1759223406.85381,1.447445,9.636811,-2.296638,-0.347329,3.523164,-0.277799,2,WALK
1759223406.87384,1.382801,9.96751,-1.590049,0.194121,2.932687,-0.399804,2,WALK
1759223406.89381,0.719757,9.64564,0.040851,0.016708,1.224711,-0.804405,2,WALK
1759223406.91374,2.306963,8.607155,-0.759261,0.044804,-0.036014,-1.069027,2,WALK
1759223406.93380,4.149151,8.217199,-0.281917,0.136922,-0.247846,-1.040903,2,WALK
1759223406.95396,5.928193,8.622717,1.274613,0.400453,-0.762509,-0.885472,2,WALK
1759223406.97382,7.123199,8.732102,2.410363,0.599527,-1.722471,-0.606876,2,WALK
1759223406.99376,8.000374,8.536676,2.677615,0.39964,-1.965194,-0.250847,2,WALK
1759223407.01375,8.561964,8.759486,2.165256,-0.12017,-0.833731,0.273564,2,WALK
1759223407.03385,6.774693,9.861268,1.373075,-0.348356,0.177259,0.92888,2,WALK
1759223407.05381,4.757728,11.610681,-0.116717,-0.125473,1.156716,1.085687,2,WALK
1759223407.07376,4.190152,14.12983,-0.891092,0.362861,1.640204,1.080522,2,WALK
1759223407.09374,5.245097,17.215956,-2.216283,0.669889,2.229751,1.461882,2,WALK
1759223407.11383,5.2234,14.796765,-5.556942,1.317686,2.364721,1.56609,2,WALK
1759223407.13380,8.765322,9.316288,-4.235941,2.07961,-0.87421,1.982279,2,WALK
1759223407.15375,9.334992,10.371831,-1.403601,2.16009,-3.348081,2.92973,2,WALK
1759223407.17382,5.33907,14.922909,-1.109264,2.310197,-2.756797,3.181011,2,WALK
1759223407.19371,1.037587,18.260875,0.686837,2.583135,-1.922468,2.451071,2,WALK
1759223407.21281,-2.339584,17.299154,3.678691,2.505968,-1.678084,1.096912,2,WALK
1759223407.23301,-4.181024,15.625009,5.982661,1.602827,-0.470064,-0.276391,2,WALK
1759223407.25317,-3.546411,12.08578,7.473949,0.496914,0.193233,-0.746353,2,WALK
1759223407.27280,-2.018911,10.18643,3.294122,-0.611584,-0.018417,0.240663,2,WALK
1759223407.29381,-0.640449,8.270171,-0.077961,-1.42063,-0.103291,1.24708,2,WALK
1759223407.31302,2.077868,8.147319,-1.332822,-0.833119,-0.151818,1.294825,2,WALK
1759223407.33375,3.939958,7.902511,-1.136049,0.356938,-1.078895,1.151632,2,WALK
1759223407.35385,1.152958,5.500978,0.246303,0.658532,-1.713482,0.709739,2,WALK
1759223407.37382,0.056563,3.867384,0.854131,0.193326,-1.853328,0.583006,2,WALK
1759223407.39396,-1.433977,3.037793,0.880617,-0.054118,-1.869607,0.48241,2,WALK
1759223407.41326,-2.611027,3.72029,1.318158,-0.217389,-1.8626,0.210993,2,WALK
1759223407.43385,-3.512443,4.114884,1.552939,-0.516058,-1.722156,-0.057674,2,WALK
1759223407.45381,-3.944896,3.870526,1.263989,-0.927045,-1.442381,-0.456154,2,WALK
1759223407.47384,-4.070143,3.975123,-0.644938,-1.215311,-1.187653,-0.97266,2,WALK
1759223407.49381,-2.609081,6.362292,-3.576788,-1.144854,-1.516259,-1.524436,2,WALK
1759223407.51342,4.683358,11.353454,-10.465055,-0.402098,-1.494697,-1.639686,2,WALK
1759223407.53374,14.692767,20.048895,-8.412925,-0.184486,-0.069533,-0.333504,2,WALK
1759223407.55395,12.581979,19.75366,-6.253206,-0.621312,1.335359,0.79625,2,WALK
1759223407.57378,7.798962,10.402806,-6.178387,-0.366742,1.087664,0.897693,2,WALK
1759223407.59390,3.346795,5.039346,-3.372981,-0.07721,0.931248,0.599021,2,WALK
1759223407.61367,0.032621,3.155857,0.742801,0.032799,1.407538,0.08492,2,WALK
1759223407.63375,-2.312649,8.495825,1.940201,-0.056014,1.628028,-0.219288,2,WALK
1759223407.65378,-1.667861,16.063297,3.392135,-0.525947,0.404424,-0.371375,2,WALK
1759223407.67382,1.846528,22.964883,-5.47524,-0.381069,1.175243,-0.395305,2,WALK
1759223407.69376,3.833566,13.924826,-5.824943,0.532785,2.256473,-0.547334,2,WALK
1759223407.71374,-2.360533,9.283667,0.040253,0.191496,0.745566,-0.620977,2,WALK
1759223407.73376,-5.005079,7.323414,2.855534,0.07046,-0.244651,-1.018551,2,WALK
1759223407.75393,-5.416283,6.170756,3.349937,-0.182865,-0.192417,-1.465664,2,WALK
1759223407.77382,-2.537554,6.950367,3.009811,-0.233253,-0.041177,-1.19402,2,WALK
1759223407.79394,-1.857302,8.453926,2.850896,-0.115501,-0.4819,-1.124986,2,WALK
1759223407.81374,0.05791,11.188703,3.685574,-0.387289,-1.48658,-1.031333,2,WALK
1759223407.83383,2.180968,13.55178,4.677671,-1.096547,-2.085538,-0.635496,2,WALK
1759223407.85373,3.790321,13.280637,3.282301,-1.538188,-1.657411,-0.337367,2,WALK
1759223407.87382,5.222502,9.057265,1.877952,-2.250874,0.422784,-0.738841,2,WALK
1759223407.89380,6.446687,7.69661,0.166397,-2.456718,2.260887,-1.010736,2,WALK
1759223407.91376,6.27221,7.607725,-0.260669,-2.038754,2.255107,-0.31961,2,WALK
1759223407.93375,3.433285,7.465719,-1.253664,-1.578683,2.347111,-0.013165,2,WALK
1759223407.95376,1.672051,8.414871,-1.74672,-1.030978,2.661397,-0.077779,2,WALK
1759223407.97381,0.968006,8.844031,-2.031779,-0.129661,2.592408,-0.370158,2,WALK
1759223407.99374,0.933739,8.875306,-1.426346,0.311371,2.494559,-0.400816,2,WALK
1759223408.01376,0.986561,8.904335,0.233884,-0.02297,1.621261,-0.497397,2,WALK
1759223408.03374,0.67726,9.326463,0.62773,-0.344215,0.835463,-0.79867,2,WALK
1759223408.05374,1.163732,8.397513,-0.36347,-0.1264,0.196499,-0.946948,2,WALK
1759223408.07375,3.286491,8.339004,0.474501,0.086676,-0.55976,-0.849478,2,WALK
1759223408.09374,5.579537,8.763377,1.634492,0.128663,-1.144642,-0.610081,2,WALK
1759223408.11375,7.195623,9.037513,2.102558,0.027779,-1.432208,-0.166245,2,WALK
1759223408.13373,8.129512,9.739762,1.739388,-0.127734,-0.962002,0.234281,2,WALK
1759223408.15395,8.404246,9.955539,1.127519,-0.114207,0.001476,0.49934,2,WALK
1759223408.17379,7.872285,10.738593,0.287753,0.163275,0.633989,1.14092,2,WALK
1759223408.19395,7.154024,13.337798,-0.167893,0.574547,1.072419,1.560314,2,WALK
1759223408.21380,7.000646,16.295086,-1.555782,0.996433,1.971189,1.762681,2,WALK
1759223408.23302,6.355408,15.163227,-2.241571,1.184197,1.466942,1.914473,2,WALK
1759223408.25380,7.134571,10.429741,-4.202123,1.805847,-0.649403,2.699158,2,WALK
1759223408.27381,7.641843,12.19741,-6.250213,2.484022,-2.398282,3.383972,2,WALK
1759223408.29376,2.20506,17.058836,-1.314866,2.523187,-2.634736,2.736826,2,WALK
1759223408.31374,-0.829441,17.518673,1.280449,2.722555,-2.179569,1.343524,2,WALK
1759223408.33381,-1.764826,17.326389,4.156184,2.088637,-1.762658,0.338738,2,WALK
1759223408.35376,-1.985541,15.557672,5.232079,1.310748,-0.667629,-0.215388,2,WALK
1759223408.37310,-3.515137,12.326996,4.031686,0.386378,0.790983,-0.271433,2,WALK
1759223408.39376,-3.74109,10.565013,2.25848,-0.627865,0.93737,1.077371,2,WALK
1759223408.41381,-0.383671,8.943091,-1.730709,-0.252999,0.045825,1.312659,2,WALK
1759223408.43372,0.188394,8.027758,0.207248,0.231137,-1.280619,0.839428,2,WALK
1759223408.45381,2.687491,7.262362,2.94412,0.459538,-1.514676,1.029219,2,WALK
1759223408.47375,2.633323,6.21445,0.795474,0.42348,-1.11611,0.850999,2,WALK
1759223408.49362,0.973093,4.252701,0.720056,0.190591,-1.712183,0.69589,2,WALK
1759223408.51377,0.127641,3.020136,0.78859,-0.020721,-2.016547,0.536126,2,WALK
1759223408.53374,-1.504456,3.581875,1.583016,-0.203507,-2.04249,0.2382,2,WALK
1759223408.55375,-2.806004,3.6543,1.821838,-0.606421,-1.780889,-0.162758,2,WALK
1759223408.57379,-3.901501,3.797353,1.050157,-1.128762,-1.609178,-0.641631,2,WALK
1759223408.59318,-4.432116,4.061913,0.217274,-1.69016,-1.412951,-1.244843,2,WALK
1759223408.61301,-3.625869,6.122273,-2.103755,-1.738556,-1.759063,-1.742285,2,WALK
1759223408.63385,9.274838,16.690728,-14.423419,-0.129718,-1.347223,-1.229332,2,WALK
1759223408.65375,12.649016,23.914932,-7.419631,-0.271834,1.094772,0.349888,2,WALK
1759223408.67374,8.9603,16.320525,-7.474249,-0.472103,1.723175,1.078058,2,WALK
1759223408.69380,5.003732,6.964134,-6.343587,-0.037469,1.066585,0.958369,2,WALK
1759223408.71350,1.548749,2.519448,-4.032135,0.222254,1.801951,0.29776,2,WALK
1759223408.73374,0.329502,5.78918,1.661127,0.193635,2.12464,-0.166524,2,WALK
1759223408.75373,-1.445799,13.535769,4.503942,0.031366,0.760635,-0.539733,2,WALK
1759223408.77374,-1.021726,18.520796,0.125995,-0.279691,0.323409,-0.541989,2,WALK
1759223408.79373,2.262969,13.93979,-5.187337,0.054775,1.335813,-0.5654,2,WALK
1759223408.81373,-1.766322,9.375993,-1.124676,0.327192,1.428586,-0.723519,2,WALK
1759223408.83375,-3.182343,8.232762,3.490596,-0.096754,0.34433,-0.858757,2,WALK
1759223408.85375,-3.026421,7.963115,3.519476,-0.452146,-0.568229,-0.937268,2,WALK
1759223408.87311,-2.622549,7.715464,3.610905,-0.76626,-0.905414,-1.107543,2,WALK
1759223408.89374,-1.244536,8.787468,3.098845,-0.828337,-0.74376,-1.26199,2,WALK
1759223408.91375,0.440683,10.697742,2.783559,-0.670257,-1.044663,-1.261621,2,WALK
1759223408.93286,2.872144,12.574646,2.156727,-1.136713,-0.443935,-1.332076,2,WALK
1759223408.95375,4.657919,11.802965,0.821959,-1.52853,0.818279,-1.03338,2,WALK
1759223408.97374,4.834492,9.382427,-0.207098,-1.140062,1.409828,-0.61802,2,WALK
1759223408.99381,4.695478,7.222109,-0.073771,-0.835648,1.688612,-0.525722,2,WALK
1759223409.01374,4.762965,7.817218,0.63581,-1.011158,1.293361,-0.45908,2,WALK
1759223409.03306,3.162441,8.582614,0.161609,-1.149323,0.4425,-0.191801,2,WALK
1759223409.05333,1.5899,9.037812,-0.658405,-1.174627,0.169627,-0.098983,2,WALK
1759223409.07375,0.444274,9.176825,-1.10238,-0.936118,0.640879,-0.260045,2,WALK
1759223409.09284,0.430807,8.293664,-1.018882,-0.37788,1.092006,-0.413237,2,WALK
1759223409.11374,0.556353,8.678382,-0.569521,0.164002,1.204809,-0.391159,2,WALK
1759223409.13326,0.427664,9.895535,0.306159,0.198916,1.370184,-0.47398,2,WALK
1759223409.15393,0.880617,10.006566,2.280477,-0.419495,1.088543,-0.719784,2,WALK
1759223409.17374,1.82109,9.045444,0.376787,-0.797467,1.064798,-0.972075,2,WALK
1759223409.19373,3.334973,8.32015,-0.723947,-0.456461,1.11764,-1.057808,2,WALK
1759223409.21363,5.742792,9.141062,0.298677,0.111341,0.352634,-0.821159,2,WALK
1759223409.23352,7.042544,9.35235,1.616236,0.276607,-0.972253,-0.234671,2,WALK
1759223409.25373,7.722198,9.140763,1.391929,0.048103,-1.530317,0.208561,2,WALK
1759223409.27375,7.839514,8.756493,0.73517,-0.088079,-1.185521,0.308084,2,WALK
1759223409.29286,7.66788,9.181314,0.599149,-0.123537,-0.527832,0.565953,2,WALK
1759223409.31373,5.515193,10.665121,0.09068,0.076555,0.053627,1.020717,2,WALK
1759223409.33369,4.32722,12.744934,-0.192584,0.481683,0.650422,0.861862,2,WALK
1759223409.35373,5.531504,15.656582,-0.474052,0.568163,1.069129,1.12096,2,WALK
1759223409.37377,5.55799,14.791228,-2.356343,1.038044,2.080864,1.46429,2,WALK
1759223409.39375,7.58094,10.447099,-4.215441,1.926977,1.042396,2.235251,2,WALK
1759223409.41374,9.841216,9.2081,-6.668151,2.407827,-2.01855,3.201099,2,WALK
1759223409.43375,4.578761,13.537265,-2.574216,2.465421,-2.971666,3.056062,2,WALK
1759223409.45373,0.711377,17.53214,0.424522,2.553236,-3.043623,2.055228,2,WALK
1759223409.47279,-2.556259,17.56117,4.986673,2.38728,-2.782016,1.247472,2,WALK
1759223409.49379,-3.579631,16.218172,6.204873,1.340269,-0.002698,-0.677169,2,WALK
1759223409.51372,-3.843143,13.962984,5.361515,-0.087183,0.783876,-0.191987,2,WALK
1759223409.53307,-2.690334,10.581174,-0.015712,-0.667385,0.733579,1.356992,2,WALK
1759223409.55279,-0.124648,8.91466,-5.529558,-0.204943,0.459045,1.472442,2,WALK
1759223409.57374,0.587028,7.30845,1.079486,0.077464,-1.380471,0.682057,2,WALK
1759223409.59374,6.004358,7.293935,4.205565,-0.275219,-1.17405,1.178962,2,WALK
1759223409.61373,4.694281,7.153126,0.303465,0.114407,-0.774608,0.862456,2,WALK
1759223409.63374,0.741754,4.896142,0.875081,0.186558,-1.85927,0.448369,2,WALK
1759223409.65302,-0.011522,3.983952,1.272219,-0.043353,-2.11713,0.319928,2,WALK
1759223409.67376,-0.725593,3.857358,1.406444,-0.288962,-2.346869,0.104979,2,WALK
1759223409.69376,-1.591546,4.231901,1.65574,-0.605785,-2.134003,-0.11568,2,WALK
1759223409.71373,-2.360533,4.698172,1.628356,-1.070249,-1.759304,-0.360486,2,WALK
1759223409.73379,-3.184438,4.708347,0.592715,-1.544891,-1.615152,-0.805503,2,WALK
1759223409.75315,-3.667618,5.29373,-1.672051,-1.836519,-1.724234,-1.235431,2,WALK
1759223409.77380,-0.774075,7.211635,-4.524143,-1.12925,-1.811409,-1.393024,2,WALK
1759223409.79374,8.121431,13.5642,-13.298743,0.094795,-0.491294,-0.393875,2,WALK
1759223409.81374,11.30153,22.746113,-9.279926,-0.385061,1.070709,0.710407,2,WALK
1759223409.83373,9.130737,17.117794,-7.352144,-0.354768,1.594673,1.13259,2,WALK
1759223409.85374,5.504719,7.988403,-6.167314,0.115148,1.34442,0.820051,2,WALK
1759223409.87373,1.874211,4.48838,-3.812916,0.183073,1.399441,0.190523,2,WALK
1759223409.89377,1.296161,10.097097,-1.075296,0.152904,1.090364,-0.239902,2,WALK
1759223409.91373,1.493832,15.024962,4.956446,0.137677,0.290539,-0.283049,2,WALK
1759223409.93379,0.405069,14.074015,1.014693,0.484617,1.205985,-0.32856,2,WALK
1759223409.95361,-0.578948,10.161441,-6.248268,0.355499,1.238196,-0.550089,2,WALK
1759223409.97371,-5.307347,8.571691,-1.135899,0.062981,0.350028,-0.961659,2,WALK
1759223409.99373,-5.780052,8.344391,3.053804,0.010009,-0.060699,-1.426928,2,WALK
1759223410.01372,-4.069095,9.244761,4.709694,-0.435963,-0.350444,-1.427301,2,WALK
1759223410.03371,-1.463306,9.855432,3.684227,-0.680576,-0.352484,-1.157364,2,WALK
1759223410.05372,-1.17271,9.364321,3.172018,-0.602226,-0.867519,-1.434785,2,WALK
1759223410.07374,0.456095,10.853515,2.037316,-0.432579,-1.493876,-1.384988,2,WALK
1759223410.09372,3.038242,12.514342,1.780089,-1.011053,-1.010791,-0.948255,2,WALK
1759223410.11375,5.476736,11.774384,1.364396,-1.737292,0.519232,-0.660622,2,WALK
1759223410.13372,6.481553,8.786421,0.990751,-1.737663,0.838142,-0.838761,2,WALK
1759223410.15375,7.022343,7.463475,0.671424,-1.820452,0.854885,-0.871105,2,WALK
1759223410.17379,6.837541,7.393444,0.564732,-2.064927,0.499055,-0.330695,2,WALK
1759223410.19373,4.226664,7.902511,-0.638204,-1.999963,0.76812,0.009578,2,WALK
1759223410.21373,1.745972,8.231415,-1.943792,-1.585414,1.451726,-0.018477,2,WALK
1759223410.23372,0.128988,8.658331,-1.866729,-0.875483,1.870771,-0.146196,2,WALK
1759223410.25371,-0.528969,8.734646,-1.483956,-0.324353,1.468226,-0.220036,2,WALK
1759223410.27367,-2.040009,9.562741,0.005088,-0.165331,0.34204,-0.570532,2,WALK
1759223410.29373,-0.07856,11.149797,-0.455198,-0.107292,0.107734,-0.836567,2,WALK
1759223410.31372,2.611775,10.942848,-0.690578,-0.08556,0.667906,-0.932458,2,WALK
1759223410.33371,3.752163,9.064896,-0.69357,-0.058815,0.999125,-0.935126,2,WALK
1759223410.35371,5.291335,8.427739,0.180164,0.125999,0.422975,-0.865866,2,WALK
1759223410.37372,7.541137,8.669554,1.294066,0.35929,-0.704398,-0.739329,2,WALK
1759223410.39372,8.882039,9.306112,2.143858,0.353824,-1.529218,-0.260019,2,WALK
1759223410.41371,8.803928,8.476521,2.152836,0.135956,-1.552945,0.314199,2,WALK
1759223410.43371,7.996185,8.559271,1.477671,0.034596,-0.784831,0.865629,2,WALK
1759223410.45372,6.195895,10.530297,0.723348,0.264055,-0.1941,1.475447,2,WALK
1759223410.47373,5.459528,13.773094,0.195726,0.632748,0.23605,1.794031,2,WALK
1759223410.49372,5.624429,15.554979,-0.36347,0.927084,0.533389,1.937807,2,WALK
1759223410.51378,4.719869,16.17358,-1.808071,0.812287,1.357894,2.155124,2,WALK
1759223410.53373,3.257461,13.200431,-6.488286,1.367176,1.226659,2.220068,2,WALK
1759223410.55372,4.291906,12.748675,-6.189909,2.566645,-0.84574,2.731344,2,WALK
1759223410.57372,0.688632,15.089606,0.151583,2.402678,-2.266726,2.515819,2,WALK
1759223410.59372,-2.594866,16.984616,2.266411,1.920793,-2.125741,1.31822,2,WALK
1759223410.61377,-2.092083,15.00925,3.196409,1.806163,-1.214306,0.378455,2,WALK
1759223410.63390,-3.281403,13.378649,4.626495,1.404559,-0.086741,-0.132641,2,WALK
1759223410.65291,-3.464111,11.197681,3.792415,0.127886,0.4333,0.037275,2,WALK
1759223410.67378,-1.357662,9.721357,-2.940678,-0.47235,1.282775,1.033437,2,WALK
1759223410.69372,1.031602,8.052897,-2.657863,-0.00105,0.823901,0.974761,2,WALK
1759223410.71373,4.178181,7.133524,3.34455,-0.041009,-1.134427,0.777489,2,WALK
1759223410.73384,7.067683,8.314314,0.817919,0.149421,-0.885193,1.49705,2,WALK
1759223410.75330,1.116446,6.992116,1.416619,0.333864,-0.638031,1.021271,2,WALK
1759223410.77377,-1.01574,5.186888,0.488118,0.218056,-1.392245,0.660946,2,WALK
1759223410.79372,-2.08939,3.860052,0.468665,0.153877,-1.677533,0.424527,2,WALK
1759223410.81378,-2.125453,3.79885,0.868646,-0.063885,-1.86739,0.165127,2,WALK
1759223410.83370,-1.950077,4.242076,1.379958,-0.502209,-1.643703,-0.068152,2,WALK
1759223410.85330,-2.92362,5.080197,0.63581,-0.940586,-1.223567,-0.478128,2,WALK
1759223410.87373,-2.647987,5.608118,-1.567753,-1.166352,-1.176008,-0.988572,2,WALK
1759223410.89377,0.058359,6.644807,-3.846135,-1.237587,-0.927223,-1.38691,2,WALK
1759223410.91291,6.134543,10.954221,-10.007613,-0.67716,-0.489654,-1.301993,2,WALK
1759223410.93370,12.133365,17.511939,-8.553884,-0.644515,0.5789,-0.18633,2,WALK
1759223410.95350,11.47885,16.799514,-5.501277,-0.934495,2.026886,0.669875,2,WALK
1759223410.97370,9.243414,10.678588,-5.799505,-0.470325,2.114302,0.8355,2,WALK
1759223410.99373,7.051223,12.766631,-2.661454,0.163867,1.069647,0.533463,2,WALK
1759223411.01371,4.523245,16.540941,0.801609,0.918255,0.938865,0.36282,2,WALK
1759223411.03377,-3.035698,12.084583,2.264765,1.271151,1.018144,-0.407524,2,WALK
1759223411.05370,-8.618527,8.361001,-5.835867,0.660841,-0.883067,-0.784635,2,WALK
1759223411.07373,-8.255058,4.828207,-1.591246,-0.056543,-2.237531,-0.544186,2,WALK
1759223411.09371,-5.736956,3.944447,4.016573,0.096037,1.142085,-0.960451,2,WALK
1759223411.11372,-3.656544,7.736114,5.336676,-0.367353,2.414958,-1.664915,2,WALK
1759223411.13372,-0.987608,12.810176,6.114192,-0.60598,0.58977,-1.265247,2,WALK
1759223411.15371,0.41285,13.632884,4.122666,-0.386946,-0.697176,-1.139013,2,WALK
1759223411.17337,1.087267,13.301885,2.259229,-0.486582,-0.777738,-1.234015,2,WALK
1759223411.19373,3.396175,11.988067,1.336563,-1.544817,1.172586,-1.263702,2,WALK
1759223411.21371,5.37184,9.615862,0.314987,-1.563628,2.14192,-1.042718,2,WALK
1759223411.23372,5.729474,8.232163,0.124349,-1.001216,1.599751,-0.843304,2,WALK
1759223411.25370,6.058378,7.423073,0.141856,-0.856738,1.244374,-0.848989,2,WALK
1759223411.27372,6.223727,8.214955,0.395941,-1.010357,0.58561,-0.535325,2,WALK
1759223411.29371,4.85978,9.250148,0.28072,-1.126296,-0.029857,-0.178406,2,WALK
1759223411.31372,3.43538,9.856928,-0.386215,-1.121384,0.001192,-0.153285,2,WALK
1759223411.33370,2.327014,9.252093,-0.995389,-0.864769,0.393544,-0.152108,2,WALK
1759223411.35371,1.700482,8.715044,-1.226131,-0.416733,0.82486,-0.057898,2,WALK
1759223411.37350,1.028759,8.601319,-0.934188,-0.03274,1.091488,-0.029006,2,WALK
1759223411.39375,0.260519,8.247127,-0.347907,0.085462,1.329,-0.25229,2,WALK
1759223411.41371,0.416142,8.827571,0.523582,-0.04529,0.88921,-0.526442,2,WALK
1759223411.43388,1.067365,9.587581,2.575114,-0.423754,0.290188,-0.72177,2,WALK
1759223411.45378,1.753902,9.573664,1.619229,-0.660255,0.333241,-0.963367,2,WALK
1759223411.47376,3.307739,9.296835,0.315286,-0.596791,0.67429,-1.046065,2,WALK
1759223411.49378,5.48332,9.194333,-0.653019,-0.240248,0.692388,-0.959561,2,WALK
1759223411.51367,7.687931,9.418939,-0.59885,0.148183,0.048811,-0.274579,2,WALK
1759223411.53347,8.384195,8.568399,0.238223,0.358075,-0.876716,0.464032,2,WALK
1759223411.55372,7.323264,7.386411,0.890793,0.356348,-1.218292,0.705703,2,WALK
1759223411.57371,6.59842,8.445397,0.975488,0.313566,-1.081175,1.028379,2,WALK
1759223411.59372,4.869357,11.178228,1.092504,0.413468,-0.809615,1.152403,2,WALK
1759223411.61315,4.136582,13.856741,0.729783,0.530136,-0.187944,1.203133,2,WALK
1759223411.63372,5.032163,15.955409,-0.303615,0.61418,0.784789,1.431123,2,WALK
1759223411.65371,4.364181,14.985607,-2.231396,1.00215,1.914452,1.53636,2,WALK
1759223411.67371,4.968118,11.736077,-5.659145,2.18371,1.741287,2.069055,2,WALK
1759223411.69373,7.552808,10.448446,-7.908946,2.811896,-0.854662,2.854703,2,WALK
1759223411.71374,3.367295,13.108404,-1.162385,2.324757,-2.274076,2.598567,2,WALK
1759223411.73370,-0.745495,15.931766,0.990002,2.090063,-2.329489,1.408286,2,WALK
1759223411.75372,-3.19611,15.802479,3.579182,1.80995,-1.497206,0.016371,2,WALK
1759223411.77371,-3.100641,14.260763,4.421342,1.258431,-0.308977,-0.576796,2,WALK
1759223411.79372,-2.089689,11.014375,5.619939,0.020704,-0.051397,0.146603,2,WALK
1759223411.81371,-1.695394,9.953295,-0.452504,-0.499778,0.661374,1.147324,2,WALK
1759223411.83371,1.319055,8.436418,-4.24477,0.038089,-0.047598,0.989889,2,WALK
1759223411.85372,3.032556,7.328651,2.182165,-0.032315,-1.784266,0.891967,2,WALK
1759223411.87344,5.872977,7.78325,2.224513,-0.00027,-0.846355,1.092212,2,WALK
1759223411.89371,2.632574,7.469909,0.896778,0.112898,-0.738335,0.664313,2,WALK
1759223411.91374,-0.351798,5.447407,0.437989,0.105656,-1.504046,0.407366,2,WALK
1759223411.93377,-0.988656,4.650587,0.191686,0.014483,-1.940136,0.326497,2,WALK
1759223411.95372,-0.80535,4.542249,0.880617,-0.300674,-1.777125,0.169665,2,WALK
1759223411.97371,-0.992696,4.785111,1.463605,-0.732621,-1.500814,-0.020939,2,WALK
1759223411.99371,-1.814954,5.147982,0.265008,-1.093244,-1.230883,-0.397446,2,WALK
1759223412.01370,-2.615216,5.95423,-2.199972,-1.313669,-1.077521,-0.896046,2,WALK
1759223412.03370,-0.45026,7.495497,-4.807258,-1.443145,-1.076942,-1.268784,2,WALK
1759223412.05370,7.576451,11.307964,-10.986543,-0.691166,-0.79249,-1.009274,2,WALK
1759223412.07346,11.493066,18.012776,-7.584083,-0.402221,0.65291,0.231044,2,WALK
1759223412.09370,7.453599,15.410429,-6.642114,-0.419833,1.539681,0.618719,2,WALK
1759223412.11371,5.399823,8.912565,-6.869713,0.019226,1.69552,0.645927,2,WALK
1759223412.13303,2.730886,5.277419,-3.674651,0.465752,1.57123,0.356268,2,WALK
1759223412.15371,-0.113725,8.834155,0.357784,0.433159,1.656346,-0.063974,2,WALK
1759223412.17371,-1.921347,14.503325,2.752883,-0.045691,0.644566,-0.608686,2,WALK
1759223412.19370,0.882413,16.953791,-1.542764,-0.073002,0.183588,-0.509014,2,WALK
1759223412.21370,0.474202,10.266187,-2.009034,0.377712,0.977981,-0.569235,2,WALK
1759223412.23294,-1.388188,8.699481,-0.572663,0.243984,1.816298,-0.824108,2,WALK
1759223412.25370,-2.937835,8.40694,2.490868,-0.061398,1.40814,-0.95491,2,WALK
1759223412.27364,-2.878429,8.933215,3.638738,-0.323915,0.424971,-1.055481,2,WALK
1759223412.29370,-1.557428,9.303718,3.089268,-0.481548,0.003942,-1.026218,2,WALK
1759223412.31372,-0.832883,9.439739,1.848773,-0.35012,-0.004696,-1.290494,2,WALK
1759223412.33369,1.151312,11.051036,1.712004,-0.104462,-0.298098,-1.362963,2,WALK
1759223412.35370,2.935142,12.623728,2.288558,-0.298877,-0.64916,-1.068469,2,WALK
1759223412.37283,4.304475,11.282975,2.070835,-1.05159,-0.149698,-0.722511,2,WALK
1759223412.39372,5.566818,8.84882,1.613692,-1.535371,0.370781,-0.696757,2,WALK
1759223412.41377,6.44549,8.113949,0.877924,-1.625373,0.558064,-0.885937,2,WALK
1759223412.43369,6.353463,7.253084,0.389656,-1.708809,0.697791,-0.764267,2,WALK
1759223412.45369,4.614973,7.790732,-0.535104,-1.778167,0.767216,-0.244056,2,WALK
1759223412.47305,2.472911,8.937854,-1.916409,-1.441889,1.373859,-0.112307,2,WALK
1759223412.49345,1.642722,9.15857,-1.899051,-0.81197,1.954723,-0.121682,2,WALK
1759223412.51381,1.228375,8.857648,-1.316063,-0.306187,2.172604,-0.148395,2,WALK
1759223412.53370,0.837222,9.219771,-0.281319,-0.032085,1.629993,-0.277644,2,WALK
1759223412.55377,0.173131,9.516054,0.946607,-0.123072,0.490512,-0.543454,2,WALK
1759223412.57328,1.339705,9.694571,0.936432,-0.369943,-0.019778,-0.818684,2,WALK
1759223412.59390,2.781015,9.026589,-0.091279,-0.469096,0.391485,-1.036347,2,WALK
1759223412.61370,4.505139,8.390031,-0.53271,-0.264256,0.58879,-0.948243,2,WALK
1759223412.63372,6.07798,8.445696,0.311097,0.160834,-0.203015,-0.777273,2,WALK
1759223412.65377,7.823652,8.682123,1.5691,0.351333,-1.191862,-0.586864,2,WALK
1759223412.67358,8.692748,8.341548,2.329558,0.195651,-1.720276,0.059838,2,WALK
1759223412.69378,8.156895,8.347085,1.927931,0.000551,-1.243741,0.715552,2,WALK
1759223412.71382,6.294356,10.476428,0.961871,0.064668,-0.172356,1.193055,2,WALK
1759223412.73370,4.106654,13.134291,0.081403,0.441526,0.548664,1.344224,2,WALK
1759223412.75385,4.689194,15.688605,-0.843358,0.734005,1.244257,1.400398,2,WALK
1759223412.77361,4.979042,15.806819,-2.791041,0.869925,2.37643,1.572434,2,WALK
1759223412.79379,6.347777,12.615647,-7.64708,1.588948,2.134923,1.815719,2,WALK
1759223412.81369,8.289025,10.196157,-6.476166,2.593934,-1.563246,2.639132,2,WALK
1759223412.83376,4.260931,12.799552,-0.442329,2.327124,-2.830958,2.702323,2,WALK
1759223412.85376,0.924012,16.458041,2.273893,2.094825,-1.888596,1.846918,2,WALK
1759223412.87371,-1.77964,16.267852,4.169353,1.791524,-1.007925,0.498781,2,WALK
1759223412.89372,-2.879776,14.795568,5.253028,0.964476,0.026735,-0.457652,2,WALK
1759223412.91371,-2.725799,11.901876,5.643582,-0.206754,0.156061,-0.064174,2,WALK
1759223412.93370,-2.94831,10.119093,-1.492336,-0.306832,0.721624,1.122629,2,WALK
1759223412.95374,-0.568623,8.556577,-4.00939,0.084831,0.132182,1.18826,2,WALK
1759223412.97370,2.597559,7.521235,2.806902,-0.276078,-2.1174,1.095523,2,WALK
1759223412.99382,7.081749,8.08492,2.214786,-0.005224,-1.067052,1.354899,2,WALK
1759223413.01369,3.023727,7.559093,0.696114,0.276315,-0.934979,0.752765,2,WALK
1759223413.03369,0.268899,5.347449,0.771232,0.156006,-1.795958,0.511857,2,WALK
1759223413.05372,-0.745046,4.410269,0.277129,0.015981,-1.933187,0.332859,2,WALK
1759223413.07370,-0.924311,4.296844,0.26411,-0.233319,-1.837043,0.138258,2,WALK
1759223413.09303,-1.392228,4.601506,1.250073,-0.692034,-1.604573,-0.065957,2,WALK
1759223413.11376,-2.214786,4.900332,1.684919,-1.057572,-1.230356,-0.407285,2,WALK
1759223413.13376,-3.540725,5.281609,-0.047435,-1.301937,-0.859305,-0.961469,2,WALK
1759223413.15373,-4.059369,5.439477,-2.226458,-1.536162,-0.716081,-1.457635,2,WALK
1759223413.17373,-0.274136,7.198766,-4.312406,-1.282954,-1.279619,-1.555763,2,WALK
1759223413.19318,8.499865,11.937938,-12.586168,-0.223301,0.115773,-0.673516,2,WALK
1759223413.21375,11.92911,21.788133,-8.933215,-0.672253,1.56556,0.403904,2,WALK
1759223413.23310,10.155306,17.519571,-6.150854,-0.619864,1.697411,0.683442,2,WALK
1759223413.25371,7.127389,8.336311,-6.179883,0.256274,1.572755,0.564415,2,WALK
1759223413.27371,4.175188,4.203171,-2.930802,0.827362,2.09561,0.270509,2,WALK
1759223413.29334,-0.304662,9.079561,3.306991,0.807382,2.122491,-0.395164,2,WALK
1759223413.31369,-3.231274,14.109928,3.643676,-0.004575,1.151675,-0.895729,2,WALK
1759223413.33371,-1.639878,16.580295,-4.620959,-0.183226,-0.256649,-0.412054,2,WALK
1759223413.35388,-1.477222,10.403405,-1.95307,0.143909,-0.18778,-0.66893,2,WALK
1759223413.37371,-3.620931,8.828768,1.356465,0.166471,0.189518,-0.97843,2,WALK
1759223413.39359,-3.548805,8.711602,3.016395,-0.176732,0.559211,-1.127109,2,WALK
1759223413.41375,-2.611924,8.399757,4.056227,-0.589537,1.048194,-1.015291,2,WALK
1759223413.43389,-0.873584,9.165453,3.226935,-0.414281,0.850115,-1.018893,2,WALK
1759223413.45375,0.372598,9.872939,2.161066,-0.062897,0.115697,-1.060818,2,WALK
1759223413.47379,1.982698,11.877485,2.141015,-0.375337,-0.132037,-0.956026,2,WALK
1759223413.49373,4.109198,12.831275,1.957409,-1.148509,0.569411,-0.710736,2,WALK
1759223413.51389,5.070321,10.202591,1.309778,-1.226537,0.614304,-0.710964,2,WALK
1759223413.53374,5.572205,7.892785,1.142333,-1.122985,0.308279,-0.974781,2,WALK
1759223413.55371,6.236446,7.073968,1.140687,-1.466633,0.346484,-0.854823,2,WALK
1759223413.57367,5.236867,7.429357,0.177919,-1.617643,0.423626,-0.1927,2,WALK
1759223413.59369,3.091064,8.218247,-0.932242,-1.357619,0.942348,-0.068184,2,WALK
1759223413.61369,1.496226,8.881141,-1.796848,-0.680851,1.832529,-0.292237,2,WALK
1759223413.63371,1.300201,9.140763,-1.360505,-0.04389,2.050296,-0.333181,2,WALK
1759223413.65371,0.824054,8.932467,1.151611,-0.061694,1.59146,-0.369817,2,WALK
1759223413.67388,0.204854,9.631574,1.448193,-0.456856,0.793203,-0.75444,2,WALK
1759223413.69370,1.333421,9.198822,0.399832,-0.704138,0.518503,-1.029113,2,WALK
1759223413.71384,2.995595,8.626757,-1.022025,-0.684298,0.900885,-1.037668,2,WALK
1759223413.73376,4.584447,8.702624,-1.3626,-0.151508,0.811181,-0.899267,2,WALK
1759223413.75368,6.833949,9.022998,0.106392,0.343687,-0.025624,-0.697996,2,WALK
1759223413.77369,8.320898,8.970625,1.713351,0.455678,-1.102798,-0.379548,2,WALK
1759223413.79377,8.62167,8.604461,1.985392,0.28078,-1.604788,0.239979,2,WALK
1759223413.81375,7.847744,9.581146,1.443554,0.268439,-1.19436,0.78623,2,WALK
1759223413.83371,6.741473,12.350938,1.608754,0.497363,-0.843593,1.260597,2,WALK
1759223413.85375,5.708824,14.390199,1.831115,0.538113,-0.647426,1.364941,2,WALK
1759223413.87374,5.428403,15.725416,0.652121,0.308553,-0.069244,1.490502,2,WALK
1759223413.89375,3.948188,14.742446,-1.715745,0.251383,0.947968,1.656069,2,WALK
1759223413.91388,3.151518,12.342858,-8.032547,1.249993,2.119302,1.710978,2,WALK
1759223413.93374,5.535544,10.916213,-8.579472,3.131252,0.723508,2.591982,2,WALK
1759223413.95389,1.555633,13.475016,-0.093823,2.55948,-1.709247,2.763143,2,WALK
1759223413.97372,-2.450316,16.177321,1.444153,1.929212,-2.345266,1.742781,2,WALK
1759223413.99376,-3.324349,14.188937,3.513042,1.85749,-1.381809,0.393486,2,WALK
1759223414.01369,-2.383128,12.902053,4.495862,1.543357,-0.296568,-0.214358,2,WALK
1759223414.03337,-2.014721,10.58716,4.453963,0.807791,-0.066603,0.056996,2,WALK
1759223414.05368,-1.424849,10.233865,-0.288202,-0.382775,0.288559,1.103635,2,WALK
1759223414.07377,2.038663,9.094375,-2.418892,-0.285106,-0.02528,1.074136,2,WALK
1759223414.09287,5.717054,8.420707,0.882114,0.149227,-1.388344,1.125453,2,WALK
1759223414.11371,5.105485,8.43178,2.165106,0.305687,-1.106608,1.303235,2,WALK
1759223414.13368,0.781408,7.549666,1.742081,0.266813,-0.544199,0.993062,2,WALK
1759223414.15389,-0.995389,5.595549,0.31798,0.344681,-1.555544,0.736081,2,WALK
1759223414.17370,-1.228974,4.511424,0.802357,0.243378,-2.053774,0.520639,2,WALK
1759223414.19307,-0.841562,4.143914,0.812233,-0.103892,-1.880232,0.244084,2,WALK
1759223414.21368,-1.075745,4.593725,1.294365,-0.560271,-1.450397,0.086973,2,WALK
1759223414.23271,-2.027889,5.199308,1.281796,-0.958704,-1.136139,-0.234898,2,WALK
1759223414.25375,-2.823961,5.540332,-0.273238,-1.37009,-0.675802,-0.706144,2,WALK
1759223414.27370,-2.717718,6.128707,-2.821716,-1.626101,-0.624365,-1.263163,2,WALK
1759223414.29325,0.848894,8.059481,-6.957101,-1.475253,-0.731512,-1.568925,2,WALK
1759223414.31369,9.88087,13.159729,-12.252177,-0.594199,-0.276041,-1.081736,2,WALK
1759223414.33369,13.341988,20.602405,-7.905205,-0.436203,0.555497,0.112832,2,WALK
1759223414.35369,10.477924,13.64246,-6.598869,-0.277783,1.345533,0.652998,2,WALK
1759223414.37369,6.732345,6.8748,-4.384232,0.174137,1.293192,0.648534,2,WALK
1759223414.39346,2.685247,5.469105,-0.192135,0.294541,1.744496,0.350353,2,WALK
1759223414.41368,-0.894085,11.884218,2.205658,0.120964,2.27824,-0.128914,2,WALK
1759223414.43367,-2.073678,15.873407,-0.052822,0.576179,1.604371,-0.218634,2,WALK
1759223414.45353,-2.798074,14.901361,-3.14643,0.100353,0.427912,-0.413441,2,WALK
1759223414.47370,-1.102081,9.123704,-1.76318,0.171717,-0.004163,-0.443675,2,WALK
1759223414.49364,-2.451962,7.649624,3.064578,0.025184,0.475833,-0.738076,2,WALK
1759223414.51369,-2.594117,7.62254,4.053383,-0.294865,0.549738,-1.00958,2,WALK
1759223414.53367,-2.154183,8.892813,3.293973,-0.540621,0.361645,-1.11539,2,WALK
1759223414.55368,-1.262941,9.491513,2.197279,-0.391031,0.492527,-1.239536,2,WALK
1759223414.57369,-0.307505,10.378715,1.392827,-0.201874,0.428769,-1.379307,2,WALK
1759223414.59387,1.452233,11.865663,1.692102,-0.597296,0.140056,-1.410026,2,WALK
1759223414.61376,3.587562,11.92896,2.145205,-1.165071,-0.054774,-1.061333,2,WALK
1759223414.63369,4.96333,10.66123,1.379808,-1.215378,0.037583,-0.691465,2,WALK
1759223414.65331,5.253327,8.35307,0.571017,-0.99871,0.276285,-0.794318,2,WALK
1759223414.67303,5.974581,7.172579,0.529268,-1.033542,0.31177,-0.786729,2,WALK
1759223414.69374,6.072893,8.104073,0.840664,-1.250181,-0.108007,-0.21993,2,WALK
1759223414.71279,3.544167,8.922591,0.122404,-1.347425,0.146964,0.00921,2,WALK
1759223414.73367,1.380407,8.877101,-0.707786,-1.167629,0.830715,-0.249378,2,WALK
1759223414.75368,0.876577,8.76607,-0.563535,-0.81645,1.195767,-0.320535,2,WALK
1759223414.77375,0.228197,8.461109,0.227898,-0.65189,1.292008,-0.400194,2,WALK
1759223414.79371,-0.442778,9.535357,0.36332,-0.524654,1.244876,-0.590839,2,WALK
1759223414.81306,0.21877,10.726772,-0.34671,-0.379052,1.177384,-0.81209,2,WALK
1759223414.83372,1.580921,10.381109,-0.875679,-0.264882,1.400259,-1.059938,2,WALK
1759223414.85370,3.426252,10.054899,-1.385794,0.012697,1.294783,-0.933003,2,WALK
1759223414.87356,4.885518,8.971971,-0.728885,0.497548,0.218594,-0.723138,2,WALK
1759223414.89369,6.196194,7.673865,0.841412,0.619219,-1.022853,-0.54197,2,WALK
1759223414.91322,6.637176,7.788039,2.222118,0.359828,-1.770519,-0.100375,2,WALK
1759223414.93373,6.519112,8.2377,2.028338,0.337728,-1.842332,0.318666,2,WALK
1759223414.95375,6.893804,9.413103,1.741782,0.339301,-1.135651,0.712157,2,WALK
1759223414.97371,6.577471,10.685921,1.443404,0.190198,-0.021157,0.987222,2,WALK
1759223414.99389,5.460725,11.100866,1.378611,0.168942,0.496079,0.84529,2,WALK
1759223415.01344,5.462521,12.04867,0.326958,0.336213,0.858419,1.14672,2,WALK
1759223415.03369,6.221782,14.756363,-1.233762,0.577621,2.157991,1.595615,2,WALK
1759223415.05374,6.537068,15.266028,-4.558261,1.356023,3.40637,1.805052,2,WALK
1759223415.07369,8.613589,11.388918,-9.717765,2.676912,0.431892,2.684509,2,WALK
1759223415.09367,7.597251,10.585813,-4.531027,2.535462,-2.639128,3.164353,2,WALK
1759223415.11363,2.606089,14.17921,0.414795,1.999847,-2.849294,2.419416,2,WALK
1759223415.13371,-1.031751,17.33806,2.703203,1.643871,-2.626713,1.354065,2,WALK
1759223415.15387,-1.807173,16.206052,5.317372,1.398354,-1.787671,0.604713,2,WALK
1759223415.17375,-2.393603,15.131354,5.129727,1.033551,-0.499048,0.100269,2,WALK
1759223415.19368,-3.088221,12.340314,4.445883,-0.392657,0.365813,0.53438,2,WALK
1759223415.21367,-0.960973,10.313921,-2.984223,-0.448037,1.019877,1.031693,2,WALK
1759223415.23375,-0.044293,8.387637,-2.116923,-0.46506,0.573857,0.909661,2,WALK
1759223415.25367,2.152687,8.462455,4.231303,-0.539502,-0.93446,1.505452,2,WALK
1759223415.27369,4.631583,8.409035,0.150984,0.776608,-0.875186,1.296703,2,WALK
1759223415.29352,-0.306308,5.920561,0.249296,0.621594,-1.356671,0.682319,2,WALK
1759223415.31375,-0.213682,3.723881,0.720655,-0.042425,-1.75841,0.536378,2,WALK
1759223415.33373,-1.081431,3.003227,-0.001347,-0.37448,-1.465062,0.271912,2,WALK
1759223415.35380,-1.523909,3.384204,0.311695,-0.664254,-1.313047,0.040979,2,WALK
1759223415.37369,-2.794033,4.174889,0.394145,-0.87911,-1.417917,-0.416245,2,WALK
1759223415.39379,-3.752911,4.920533,-1.441908,-0.862503,-1.291721,-1.084231,2,WALK
1759223415.41367,-2.216731,6.373814,-2.552818,-0.939813,-1.844855,-1.766929,2,WALK
1759223415.43367,5.799954,9.302371,-8.04766,-0.700955,-2.129105,-1.740175,2,WALK
1759223415.45369,13.024008,16.070779,-8.948329,-0.228806,0.214678,-0.362996,2,WALK
1759223415.47369,10.872668,18.335395,-7.731176,-0.584992,1.578561,0.652058,2,WALK
1759223415.49370,7.911939,12.811373,-7.854777,-0.354356,1.481459,0.799261,2,WALK
1759223415.51373,5.070021,9.516503,-6.785467,0.326644,1.507101,0.558632,2,WALK
1759223415.53367,1.632846,12.545766,-0.86281,0.383681,1.796829,0.108026,2,WALK
1759223415.55386,-0.270246,12.161497,0.833631,0.88583,1.232199,-0.193583,2,WALK
1759223415.57374,-4.403984,8.112303,3.404255,0.656614,0.028757,-0.549882,2,WALK
1759223415.59386,-4.584447,6.946028,-0.819266,0.119731,-0.463584,-0.789308,2,WALK
1759223415.61369,-3.097498,6.553977,0.294487,-0.071508,0.540889,-0.960405,2,WALK
1759223415.63373,-3.313126,7.499837,3.447351,-0.024054,1.000984,-1.573086,2,WALK
1759223415.65367,-0.922067,12.754511,4.229806,-0.163969,0.292257,-1.535876,2,WALK
1759223415.67367,0.105345,13.751546,3.406949,-0.321974,-0.294922,-1.187867,2,WALK
1759223415.69373,0.574459,12.596643,2.550124,-0.531211,-0.686751,-1.330454,2,WALK
1759223415.71269,2.281674,12.0985,1.83351,-0.828329,-0.838423,-1.344576,2,WALK
1759223415.73372,4.352808,10.922049,1.139041,-1.555214,0.21883,-1.220161,2,WALK
1759223415.75386,5.314529,8.950723,0.767192,-1.911788,1.249121,-1.210984,2,WALK
1759223415.77374,6.788609,8.505551,0.633865,-1.870147,1.295842,-1.193749,2,WALK
1759223415.79379,6.69733,7.712172,0.193481,-1.92715,1.337439,-1.043728,2,WALK
1759223415.81296,5.442918,7.909544,-0.818967,-1.827886,1.157025,-0.576029,2,WALK
1759223415.83375,3.047968,7.85373,-2.079514,-1.429249,0.936985,-0.347138,2,WALK
1759223415.85373,1.621922,8.139537,-2.059163,-0.992907,0.747009,-0.257383,2,WALK
1759223415.87373,0.903961,8.066514,-1.113004,-0.705928,0.22722,-0.216017,2,WALK
1759223415.89373,-0.033668,7.704541,0.350002,-0.371864,-0.155405,-0.37458,2,WALK
1759223415.91330,-1.478868,8.33257,1.393276,-0.410628,-0.094672,-0.716554,2,WALK
1759223415.93372,-0.034417,10.257358,0.558298,-0.288779,0.882146,-0.713866,2,WALK
1759223415.95368,0.477344,11.133936,0.26411,-0.134012,1.643903,-0.894926,2,WALK
1759223415.97367,1.765574,9.263465,0.810138,-0.253087,1.032697,-1.112715,2,WALK
1759223415.99376,5.356428,8.288277,0.525827,-0.049935,-0.019979,-0.937608,2,WALK
1759223416.01336,7.803601,8.837447,1.007959,0.17368,-0.624929,-0.670631,2,WALK
1759223416.03368,9.126996,9.586982,1.583166,0.176315,-0.627487,-0.360951,2,WALK
1759223416.05373,9.94686,9.487323,2.046444,0.132433,-0.59628,0.244934,2,WALK
1759223416.07368,10.001628,10.006117,1.853561,0.160329,-0.349398,0.820072,2,WALK
1759223416.09372,9.5177,14.152276,1.439364,0.328254,-0.050712,1.737161,2,WALK
1759223416.11356,7.131579,16.385767,-0.237924,0.645788,0.281946,2.107366,2,WALK
1759223416.13369,5.446809,16.37185,-3.75351,0.709092,0.791732,2.282587,2,WALK
1759223416.15387,4.137779,14.115614,-9.4764,1.613471,-0.271629,2.639183,2,WALK
1759223416.17370,3.902848,11.437999,-3.60896,2.669594,-2.542643,2.856059,2,WALK
1759223416.19372,2.660706,14.24131,0.503531,2.498875,-2.600223,2.844241,2,WALK
1759223416.21373,-1.12303,17.996466,2.230498,1.993374,-1.315777,1.95743,2,WALK
1759223416.23371,-2.503437,16.529868,4.192696,1.868409,-0.120092,0.823809,2,WALK
1759223416.25367,-3.384952,15.088558,6.242881,0.88182,-0.396278,0.10933,2,WALK
1759223416.27369,-4.800524,11.750592,2.206706,0.264507,-0.531306,0.423052,2,WALK
1759223416.29369,-1.662923,9.850943,-2.276437,-0.006367,1.164277,1.090714,2,WALK
1759223416.31372,-0.189292,8.863484,-0.527024,-0.16704,1.628024,1.11289,2,WALK
1759223416.33372,5.064934,8.324041,4.81025,0.090274,-1.288738,1.983454,2,WALK
1759223416.35372,3.941604,9.295937,-0.665438,0.676781,-0.41057,1.536631,2,WALK
1759223416.37374,-0.68534,5.583428,0.538097,0.340473,-0.904419,1.035544,2,WALK
1759223416.39367,-1.409886,2.563741,-0.176273,0.029086,-1.546312,0.651614,2,WALK
1759223416.41369,-1.469441,2.21748,0.275333,-0.267026,-1.58205,0.263041,2,WALK
1759223416.43291,-1.802983,3.226785,1.414973,-0.549075,-1.748475,-0.117656,2,WALK
1759223416.45373,-2.423531,3.690662,2.318335,-0.90286,-1.390202,-0.502919,2,WALK
1759223416.47368,-3.622277,4.178331,1.7961,-1.255026,-1.023436,-0.982928,2,WALK
1759223416.49367,-3.878457,4.495263,-0.136619,-1.540084,-0.771853,-1.524818,2,WALK
1759223416.51367,-2.098069,6.4003,-3.550451,-0.984796,-1.346627,-1.906396,2,WALK
1759223416.53365,6.02845,10.35582,-12.140099,-0.146968,-0.963657,-1.191533,2,WALK
1759223416.55369,15.055039,18.306515,-8.154052,-0.758206,0.894027,0.390472,2,WALK
1759223416.57371,13.968521,21.834221,-4.972607,-0.882443,1.919772,0.970455,2,WALK
1759223416.59367,9.163956,13.07279,-6.654534,-0.065952,1.629314,0.944713,2,WALK
1759223416.61368,4.764312,6.499659,-6.600515,0.63499,2.183708,0.614215,2,WALK
1759223416.63328,0.610372,3.0348,1.744625,0.387581,2.96278,0.047648,2,WALK
1759223416.65365,-4.255245,7.491756,3.544765,-0.111334,2.067091,-0.571501,2,WALK
1759223416.67367,-6.180632,14.925453,-1.233912,-0.637332,-1.961655,-0.936842,2,WALK
1759223416.69366,-5.168632,18.508226,-6.410774,0.233157,-1.518536,-1.162121,2,WALK
1759223416.71373,0.061501,12.5112,1.753304,0.76304,0.428716,-1.250865,2,WALK
1759223416.73366,-0.023792,11.069591,1.930774,0.152725,1.711474,-1.214821,2,WALK
1759223416.75375,-1.046116,9.540744,2.896834,-0.400079,1.604818,-1.198234,2,WALK
