SamplingTime,AccelerationX,AccelerationY,AccelerationZ,GyroX,GyroY,GyroZ,Subject,Activity
1759737449.93521,0.270545,-2.308908,-9.197475,0.071329,-0.086025,-0.09328,1,WALK
1759737449.95521,0.315286,-2.32881,-9.022848,-0.070021,-0.142415,-0.042681,1,WALK
1759737449.97523,0.444573,-2.017414,-9.211242,-0.244251,-0.091138,0.160429,1,WALK
1759737449.99489,-0.132429,-2.297386,-9.512014,-0.134001,-0.031154,0.098747,1,WALK
1759737450.01524,-0.132429,-1.860893,-9.543886,0.01921,0.118162,0.012683,1,WALK
1759737450.03523,-0.190189,-2.017713,-9.628881,0.080062,0.187066,-0.016515,1,WALK
1759737450.05521,-0.016759,-1.934515,-9.743952,0.104663,0.152068,-0.024866,1,WALK
1759737450.07523,0.046088,-1.962198,-9.588927,0.095228,0.032409,-0.069191,1,WALK
1759737450.09488,0.098611,-2.08939,-9.503335,0.038851,-0.053315,-0.108079,1,WALK
1759737450.11524,0.122852,-2.184559,-9.498247,-0.039927,-0.092424,-0.076262,1,WALK
1759737450.13522,0.065392,-2.182913,-9.727192,-0.063799,-0.06809,-0.022107,1,WALK
1759737450.15522,0.091877,-2.144307,-9.806201,-0.022958,-0.08056,0.004227,1,WALK
1759737450.17523,0.090231,-2.193837,-9.562142,-0.045131,-0.131864,0.011612,1,WALK
1759737450.19492,-0.011971,-2.164358,-9.41041,-0.111054,-0.132093,-0.019575,1,WALK
1759737450.21524,-0.08679,-2.170942,-9.463531,-0.150074,-0.125286,-0.052241,1,WALK
1759737450.23523,-0.004938,-2.078167,-9.563938,-0.133868,-0.12221,-0.032389,1,WALK
1759737450.25475,-0.070629,-2.058565,-9.590424,-0.089325,-0.079537,-0.026888,1,WALK
1759737450.27524,-0.073921,-2.069338,-9.565434,-0.044944,0.024595,-0.034145,1,WALK
1759737450.29489,-0.013168,-2.090138,-9.531915,-0.019662,0.081031,-0.033192,1,WALK
1759737450.31523,0.042198,-2.076371,-9.373449,-0.015304,0.064468,-0.044834,1,WALK
1759737450.33523,0.054618,-2.13892,-9.354445,-0.042552,0.078072,-0.063276,1,WALK
1759737450.35477,0.163255,-2.172888,-9.418041,-0.061011,0.066151,-0.055061,1,WALK
1759737450.37524,0.323816,-2.20506,-9.457845,-0.079421,0.013122,-0.021158,1,WALK
1759737450.39496,0.257077,-2.152238,-9.453056,-0.079488,-0.027928,0.001723,1,WALK
1759737450.41524,0.017957,-2.164059,-9.512762,-0.064789,-0.002327,-0.008643,1,WALK
1759737450.43523,-0.104148,-2.086397,-9.520693,-0.058994,0.0072,-0.049407,1,WALK
1759737450.45521,-0.088585,-2.099266,-9.594614,-0.039405,0.032307,-0.101504,1,WALK
1759737450.47522,-0.064344,-2.13458,-9.640852,-0.02994,0.070234,-0.115944,1,WALK
1759737450.49492,0.025887,-2.219425,-9.468619,-0.061914,0.070763,-0.118181,1,WALK
1759737450.51524,-0.03726,-2.163311,-9.684097,-0.024506,0.09045,-0.123117,1,WALK
1759737450.53526,0.092177,-2.165256,-9.614216,0.024606,0.012528,-0.110553,1,WALK
1759737450.55521,0.156521,-2.19653,-9.487024,0.019337,-0.055742,-0.125512,1,WALK
1759737450.57522,0.107889,-2.269703,-9.340679,-0.024669,-0.061164,-0.143648,1,WALK
1759737450.59493,0.027084,-2.364274,-9.324069,-0.058355,-0.058191,-0.155287,1,WALK
1759737450.61523,-0.015562,-2.342128,-9.344569,-0.058359,-0.039253,-0.166239,1,WALK
1759737450.63522,-0.071676,-2.286463,-9.449166,-0.058051,-0.003617,-0.161773,1,WALK
1759737450.65520,-0.012121,-2.157475,-9.635165,-0.022913,-0.015528,-0.185053,1,WALK
1759737450.67522,-0.127192,-2.176329,-9.645939,0.036477,-0.053187,-0.236736,1,WALK
1759737450.69497,-0.148889,-2.296638,-9.490017,0.036673,-0.007615,-0.276709,1,WALK
1759737450.71523,-0.087837,-2.387169,-9.279626,0.014129,-0.005785,-0.292399,1,WALK
1759737450.73522,-0.022146,-2.471714,-9.224111,-0.020931,-0.017211,-0.269725,1,WALK
1759737450.75520,-0.044592,-2.508076,-9.250148,-0.036611,0.01046,-0.234162,1,WALK
1759737450.77522,-0.046388,-2.561945,-9.306411,-0.02985,0.030219,-0.176656,1,WALK
1759737450.79502,-0.0621,-2.558354,-9.308357,-0.000715,0.036724,-0.137744,1,WALK
1759737450.81523,-0.155324,-2.554613,-9.10889,-0.001415,0.056762,-0.133664,1,WALK
1759737450.83521,-0.09502,-2.609979,-8.977358,-0.049683,0.064181,-0.142715,1,WALK
1759737450.85520,-0.042946,-2.634819,-9.02225,-0.091415,0.024987,-0.124572,1,WALK
1759737450.87522,0.032771,-2.582146,-9.098116,-0.111378,-0.010009,-0.084105,1,WALK
1759737450.89502,-0.055366,-2.599953,-9.225757,-0.096619,-0.019967,-0.057471,1,WALK
1759737450.91523,-0.138415,-2.672977,-9.261221,-0.090578,-0.012802,-0.051691,1,WALK
1759737450.93520,-0.16535,-2.710685,-9.311798,-0.058929,0.002103,-0.086065,1,WALK
1759737450.95520,-0.14859,-2.710236,-9.374796,0.008792,0.036774,-0.119139,1,WALK
1759737450.97522,-0.121955,-2.835034,-9.318083,0.064935,0.068973,-0.139819,1,WALK
1759737450.99504,-0.097115,-2.879327,-9.320328,0.07092,0.114822,-0.109417,1,WALK
1759737451.01523,-0.027833,-2.940229,-9.244013,0.029105,0.081457,-0.07085,1,WALK
1759737451.03520,-0.043395,-2.892645,-9.462184,0.018739,0.070418,-0.056794,1,WALK
1759737451.05488,-0.044592,-2.802712,-9.724349,0.082019,0.098853,-0.060057,1,WALK
1759737451.07522,0.001347,-2.724452,-10.037242,0.206432,0.178059,-0.042449,1,WALK
1759737451.09506,0.168492,-2.700659,-9.995193,0.285653,0.149789,0.02319,1,WALK
1759737451.11524,0.166547,-2.69647,-9.789142,0.24264,0.091019,0.079137,1,WALK
1759737451.13522,0.002693,-2.767547,-9.682002,0.142051,0.030832,0.086344,1,WALK
1759737451.15488,-0.188843,-2.8283,-9.804705,0.075899,0.038558,0.045286,1,WALK
1759737451.17522,0.051176,-2.87813,-10.002376,-0.072748,0.23143,0.072822,1,WALK
1759737451.19507,0.502184,-2.698714,-10.278158,-0.214962,0.230331,0.242424,1,WALK
1759737451.21523,0.58628,-2.448221,-10.886285,-0.163571,0.131148,0.353385,1,WALK
1759737451.23522,0.551115,-1.967585,-10.979659,-0.008562,0.110045,0.343691,1,WALK
1759737451.25520,0.220865,-2.068141,-10.629208,0.137602,0.103292,0.197381,1,WALK
1759737451.27521,0.282366,-2.141164,-9.987113,0.264603,-0.007986,0.043312,1,WALK
1759737451.29508,0.460285,-2.266411,-9.450363,0.34096,-0.035579,-0.029767,1,WALK
1759737451.31432,0.727239,-2.282123,-9.160964,0.349688,0.032599,0.008094,1,WALK
1759737451.33522,1.016189,-2.260575,-9.013421,0.363561,0.033663,0.10218,1,WALK
1759737451.35520,1.100884,-2.26282,-8.975413,0.380112,0.00808,0.190629,1,WALK
1759737451.37521,1.179444,-2.263418,-8.725219,0.343854,-0.052947,0.257069,1,WALK
1759737451.39510,1.166575,-2.253991,-8.508993,0.230575,-0.105931,0.32962,1,WALK
1759737451.41521,0.968155,-2.343774,-8.405892,0.03821,-0.108289,0.37681,1,WALK
1759737451.43522,0.840814,-2.286762,-8.652944,-0.112767,-0.082727,0.382612,1,WALK
1759737451.45520,0.763301,-2.185607,-8.847772,-0.158501,-0.13085,0.344063,1,WALK
1759737451.47520,0.595857,-2.173187,-8.930671,-0.152587,-0.210922,0.241353,1,WALK
1759737451.49511,0.44592,-2.291401,-8.871265,-0.126096,-0.274675,0.129354,1,WALK
1759737451.51519,0.225055,-2.519598,-8.733898,-0.108912,-0.252402,0.021336,1,WALK
1759737451.53519,0.215628,-2.685097,-8.65863,-0.109711,-0.16713,-0.040755,1,WALK
1759737451.55499,0.28895,-2.74166,-8.648305,-0.119416,-0.127847,-0.044031,1,WALK
1759737451.57520,0.286855,-2.862268,-8.882787,-0.104077,-0.074234,-0.033799,1,WALK
1759737451.59514,0.350451,-2.8699,-8.930971,-0.071703,-0.104752,-0.062136,1,WALK
1759737451.61522,0.395193,-2.873491,-8.902839,-0.064185,-0.133122,-0.076831,1,WALK
1759737451.63521,0.470461,-2.904167,-8.847024,-0.074082,-0.18293,-0.085079,1,WALK
1759737451.65519,0.415095,-2.897433,-9.002946,-0.094484,-0.16923,-0.061651,1,WALK
1759737451.67521,0.347459,-2.854038,-9.252692,-0.090903,-0.172938,-0.023714,1,WALK
1759737451.69517,0.303914,-2.702904,-9.555259,-0.08428,-0.160025,-0.007392,1,WALK
1759737451.71522,0.185401,-2.52304,-9.858574,-0.073935,-0.161758,-0.029373,1,WALK
1759737451.73524,-0.073771,-2.34123,-10.089914,0.023848,-0.247016,-0.102347,1,WALK
1759737451.75447,-0.47061,-2.473809,-10.101885,0.160214,-0.300766,-0.239153,1,WALK
1759737451.77520,-0.668581,-2.828151,-9.831191,0.184201,-0.126056,-0.362448,1,WALK
1759737451.79518,-0.41719,-3.057545,-9.893739,-0.006575,0.199617,-0.329454,1,WALK
1759737451.81520,-0.260669,-3.1587,-10.369886,-0.252102,0.348102,-0.171219,1,WALK
1759737451.83521,0.027384,-2.611176,-10.745027,-0.372703,0.285089,-0.012938,1,WALK
1759737451.85447,-0.084246,-2.128296,-10.779743,-0.35404,0.113704,0.01059,1,WALK
1759737451.87520,-0.31394,-1.748665,-10.658687,-0.318858,-0.01986,-0.062025,1,WALK
1759737451.89519,-0.703746,-1.608754,-10.261698,-0.183013,-0.230061,-0.224357,1,WALK
1759737451.91521,-1.117793,-1.636886,-9.631125,0.012729,-0.343454,-0.469958,1,WALK
1759737451.93521,-1.290325,-1.872415,-9.216479,0.094695,-0.131019,-0.646612,1,WALK
1759737451.95447,-1.263091,-2.132485,-9.283517,0.079413,0.174803,-0.661467,1,WALK
1759737451.97521,-0.931494,-2.091485,-9.597906,0.076442,0.346875,-0.577318,1,WALK
1759737451.99469,-0.625036,-1.878251,-9.796774,0.087665,0.329352,-0.516138,1,WALK
1759737452.01521,-0.465822,-1.763928,-9.7239,0.050496,0.204485,-0.506742,1,WALK
1759737452.03521,-0.434398,-1.783231,-9.77373,0.014676,0.105655,-0.500335,1,WALK
1759737452.05471,-0.38397,-1.795651,-9.728988,0.035362,-0.030813,-0.449024,1,WALK
1759737452.07521,-0.54902,-1.785177,-9.454403,0.08902,-0.120855,-0.446142,1,WALK
1759737452.09470,-0.682198,-1.82094,-9.223512,0.152354,-0.110765,-0.49402,1,WALK
1759737452.11521,-0.664092,-1.993622,-8.952818,0.234602,-0.102519,-0.559228,1,WALK
1759737452.13520,-0.444573,-2.137573,-8.694843,0.305582,-0.110417,-0.602699,1,WALK
1759737452.15471,-0.283414,-2.295441,-8.584111,0.383534,-0.097221,-0.611705,1,WALK
1759737452.17521,-0.154576,-2.437447,-8.529493,0.475028,-0.01091,-0.598809,1,WALK
1759737452.19472,-0.130035,-2.717269,-8.469638,0.539429,0.077186,-0.561458,1,WALK
1759737452.21521,0.142305,-2.805107,-8.484153,0.576374,0.074818,-0.500652,1,WALK
1759737452.23521,0.278775,-2.814384,-8.661324,0.569549,0.079263,-0.41678,1,WALK
1759737452.25493,0.488118,-2.857031,-8.739285,0.471413,0.051776,-0.258023,1,WALK
1759737452.27520,0.581641,-2.829497,-8.633641,0.274407,-0.074008,-0.055853,1,WALK
1759737452.29473,0.292392,-2.760066,-9.043797,0.008568,-0.081417,0.086493,1,WALK
1759737452.31520,0.126144,-2.750788,-9.809942,-0.168926,0.03793,0.193421,1,WALK
1759737452.33520,0.377386,-2.438644,-10.426449,-0.251603,0.207877,0.364032,1,WALK
1759737452.35493,0.557699,-2.275838,-10.791116,-0.283598,0.17268,0.553956,1,WALK
1759737452.37520,0.815076,-1.896657,-11.042806,-0.420476,0.159295,0.668151,1,WALK
1759737452.39474,0.773926,-1.769016,-11.153837,-0.469286,0.068856,0.583406,1,WALK
1759737452.41520,0.707337,-1.552939,-10.927885,-0.243287,-0.223352,0.323435,1,WALK
1759737452.43520,0.665738,-1.528997,-9.941174,0.100703,-0.548118,-0.017046,1,WALK
1759737452.45489,0.787992,-2.016666,-9.024045,0.270731,-0.587938,-0.277722,1,WALK
1759737452.47520,1.258452,-2.264167,-8.417414,0.253521,-0.329269,-0.310965,1,WALK
1759737452.49476,1.641225,-2.375048,-8.066664,0.103345,-0.018917,-0.084221,1,WALK
1759737452.51521,1.871069,-2.348413,-8.18802,-0.101484,0.157252,0.129541,1,WALK
1759737452.53521,2.106598,-1.957709,-8.513781,-0.285855,0.157762,0.31215,1,WALK
1759737452.55492,1.775899,-1.922694,-8.804078,-0.456811,0.027734,0.405258,1,WALK
1759737452.57521,0.966509,-1.799691,-8.947581,-0.670872,-0.102149,0.293015,1,WALK
1759737452.59477,0.446668,-1.516128,-8.779537,-0.88427,-0.265939,0.043128,1,WALK
1759737452.61520,0.336834,-1.806724,-9.16665,-0.803263,-0.392789,-0.034887,1,WALK
1759737452.63519,0.240468,-2.121263,-9.601497,-0.655813,-0.21177,0.012663,1,WALK
1759737452.65467,0.032471,-2.314146,-9.448567,-0.473694,0.005635,0.018666,1,WALK
1759737452.67520,-0.097863,-2.320131,-9.170241,-0.267008,0.066156,0.033433,1,WALK
1759737452.69479,-0.357335,-2.467674,-8.900894,-0.1504,0.048051,0.019131,1,WALK
1759737452.71520,-0.459088,-2.704251,-8.814403,-0.100924,0.034508,-0.030705,1,WALK
1759737452.73520,-0.398036,-2.723704,-8.991873,-0.027231,0.03521,-0.070728,1,WALK
1759737452.75492,-0.292542,-2.763956,-9.362975,0.071972,0.080736,-0.034943,1,WALK
1759737452.77520,-0.361824,-2.870648,-9.625588,0.118756,0.107481,0.03328,1,WALK
1759737452.79481,-0.521936,-2.941127,-9.95943,0.132616,-0.003212,0.04596,1,WALK
1759737452.81520,-0.608875,-2.853589,-10.323498,0.128755,-0.102861,-0.011218,1,WALK
1759737452.83520,-0.607379,-2.801964,-11.052533,-0.000094,0.119995,-0.0694,1,WALK
1759737452.85492,-0.208296,-2.779967,-12.210428,-0.175217,0.427217,-0.006669,1,WALK
1759737452.87441,0.09517,-2.539051,-12.967445,-0.177901,0.352178,0.165321,1,WALK
1759737452.89483,0.207098,-1.791461,-13.088652,-0.02746,0.139054,0.302091,1,WALK
1759737452.91520,-0.256329,-1.39163,-12.70109,0.045423,-0.016094,0.288088,1,WALK
1759737452.93520,-1.034594,-1.320253,-11.591527,0.206582,-0.30888,-0.020281,1,WALK
1759737452.95492,-1.495478,-1.113004,-10.060884,0.511967,-0.585616,-0.508244,1,WALK
1759737452.97513,-1.590199,-1.490989,-8.738836,0.740052,-0.589369,-0.943276,1,WALK
1759737452.99484,-1.289278,-2.004695,-7.830685,0.741437,-0.390237,-1.186738,1,WALK
1759737453.01520,-0.799514,-2.449568,-7.558794,0.553223,-0.144981,-1.200577,1,WALK
1759737453.03520,-0.185251,-2.520945,-7.757213,0.281559,0.057899,-0.963483,1,WALK
1759737453.05492,0.212186,-2.301726,-8.289325,0.046519,0.184213,-0.591999,1,WALK
1759737453.07520,0.333692,-1.940351,-8.71669,-0.052814,0.106016,-0.318333,1,WALK
1759737453.09488,0.153827,-1.545158,-9.061904,-0.086578,0.023618,-0.201437,1,WALK
1759737453.11519,-0.097264,-1.441758,-9.353847,-0.075107,-0.060287,-0.165107,1,WALK
1759737453.13520,-0.176572,-1.351527,-9.458743,-0.044885,-0.191633,-0.185773,1,WALK
1759737453.15491,-0.116418,-1.345841,-9.198074,-0.040058,-0.407176,-0.297536,1,WALK
1759737453.17519,0.011223,-1.425597,-9.022549,-0.029788,-0.525053,-0.428534,1,WALK
1759737453.19490,0.1857,-1.596184,-8.872014,0.004575,-0.481052,-0.484924,1,WALK
1759737453.21520,0.415843,-1.821838,-8.877849,0.073949,-0.285827,-0.456962,1,WALK
1759737453.23518,0.717213,-1.956961,-8.761581,0.208901,-0.131902,-0.355476,1,WALK
1759737453.25491,0.920271,-2.052579,-8.469039,0.315973,-0.014816,-0.232201,1,WALK
1759737453.27521,1.057339,-2.307861,-8.323292,0.283356,0.119419,-0.121038,1,WALK
1759737453.29493,1.207127,-2.458845,-8.276905,0.171611,0.172444,0.014111,1,WALK
1759737453.31517,1.257554,-2.557157,-8.34903,0.073406,0.133438,0.166726,1,WALK
1759737453.33518,1.25127,-2.641553,-8.40694,-0.071833,0.140976,0.315272,1,WALK
1759737453.35492,1.032799,-3.070115,-8.894609,-0.28563,0.322879,0.452089,1,WALK
1759737453.37518,1.360954,-3.26629,-10.610054,-0.645589,0.896107,0.72361,1,WALK
1759737453.39493,2.101062,-2.952649,-12.098948,-1.084425,1.151396,1.240462,1,WALK
1759737453.41518,2.468422,-1.921048,-13.437756,-1.180894,0.825877,1.6987,1,WALK
1759737453.43518,2.429067,-0.492008,-13.880384,-0.954917,0.315792,1.935716,1,WALK
1759737453.45492,1.094749,-0.350002,-13.437158,-0.511199,-0.131185,1.726457,1,WALK
1759737453.47518,-0.162058,-0.441132,-11.994352,0.156433,-0.51276,1.080922,1,WALK
1759737453.49493,-0.545728,-0.711527,-9.810092,0.818486,-0.70296,0.233862,1,WALK
1759737453.51519,-0.30975,-1.406893,-8.510788,1.201854,-0.396395,-0.420616,1,WALK
1759737453.53517,0.529268,-2.205958,-8.147768,1.261339,0.198927,-0.635121,1,WALK
1759737453.55490,1.169568,-2.34946,-8.051999,1.187523,0.507085,-0.535065,1,WALK
1759737453.57516,2.940977,-2.418443,-7.817218,0.645466,0.965591,0.419833,1,WALK
1759737453.59497,3.123535,-2.429815,-7.702895,0.397178,0.866886,0.837957,1,WALK
1759737453.61516,2.74181,-2.188001,-7.757662,-0.086869,0.390263,1.55601,1,WALK
1759737453.63519,1.433528,-1.588852,-7.865551,-0.477342,-0.027747,1.875209,1,WALK
1759737453.65488,0.011821,-1.208473,-8.180538,-0.707023,-0.098786,1.772542,1,WALK
1759737453.67522,-1.00751,-1.084424,-8.748413,-0.781479,0.053048,1.423121,1,WALK
1759737453.69497,-1.424999,-1.221043,-9.258976,-0.671502,0.167434,0.958584,1,WALK
1759737453.71519,-1.054197,-1.324592,-9.496451,-0.396867,0.086969,0.502807,1,WALK
1759737453.73519,-0.525976,-1.69719,-9.391106,-0.078618,-0.082715,0.180348,1,WALK
1759737453.75491,-0.341024,-2.247856,-8.891018,0.093626,-0.168616,0.048676,1,WALK
1759737453.77520,-0.339528,-2.749591,-8.45632,0.061395,-0.1443,0.024946,1,WALK
1759737453.79500,-0.339528,-3.097199,-8.484003,-0.051143,-0.107686,0.07625,1,WALK
1759737453.81443,-0.372747,-3.147178,-8.949227,-0.175099,-0.000864,0.189279,1,WALK
1759737453.83519,-0.637157,-3.189825,-9.707141,-0.224731,0.065613,0.307088,1,WALK
1759737453.85491,-1.035193,-3.056797,-10.488249,-0.168675,0.014881,0.359823,1,WALK
1759737453.87520,-1.396119,-2.889801,-10.760141,-0.046589,-0.128665,0.226902,1,WALK
1759737453.89502,-1.738789,-2.876783,-10.652252,0.048429,-0.194337,-0.040827,1,WALK
1759737453.91518,-1.418564,-2.785055,-10.697742,-0.051073,0.135772,-0.1919,1,WALK
1759737453.93520,-0.65227,-2.765901,-11.6647,-0.389959,0.64276,-0.031894,1,WALK
1759737453.95516,-0.154875,-2.192789,-12.522573,-0.545113,0.592197,0.234546,1,WALK
1759737453.97519,-0.227,-1.240196,-12.691364,-0.237856,0.167783,0.224108,1,WALK
1759737453.99504,-0.801758,-0.807744,-11.221324,0.300056,-0.463394,-0.174589,1,WALK
1759737454.01431,-1.685518,-1.189469,-9.225757,0.647847,-0.770616,-0.827419,1,WALK
1759737454.03519,-1.83725,-1.827674,-7.996783,0.593752,-0.53486,-1.290193,1,WALK
1759737454.05516,-1.646911,-2.637662,-7.542334,0.328744,-0.20384,-1.435891,1,WALK
1759737454.07519,-0.892439,-2.736872,-7.689727,0.068153,0.063246,-1.281342,1,WALK
1759737454.09505,-0.130634,-2.44463,-8.090007,-0.096031,0.270532,-0.930759,1,WALK
1759737454.11501,0.179864,-2.217031,-8.773851,-0.142198,0.420142,-0.603405,1,WALK
1759737454.13516,0.259322,-1.85386,-9.113828,-0.044596,0.32531,-0.383489,1,WALK
1759737454.15517,0.030825,-1.552341,-9.218873,0.084023,0.16708,-0.275879,1,WALK
1759737454.17519,-0.35524,-1.47827,-9.086594,0.104074,0.106397,-0.302172,1,WALK
1759737454.19507,-0.568473,-1.394772,-9.019107,0.041773,0.076166,-0.394594,1,WALK
1759737454.21519,-0.468515,-1.315464,-9.058462,0.063254,0.020526,-0.548808,1,WALK
1759737454.23519,-0.011073,-1.332972,-9.221567,0.181326,-0.051,-0.658877,1,WALK
1759737454.25516,0.349105,-1.566706,-9.007286,0.297557,-0.155105,-0.614857,1,WALK
1759737454.27520,0.596306,-1.889474,-8.544158,0.27168,-0.252866,-0.501038,1,WALK
1759737454.29508,0.817021,-2.10989,-8.438364,0.139015,-0.251256,-0.358296,1,WALK
1759737454.31432,0.942418,-2.199074,-8.562264,0.001248,-0.212592,-0.1704,1,WALK
1759737454.33519,1.005864,-2.183811,-9.024494,-0.055283,-0.191969,0.021338,1,WALK
1759737454.35516,1.057489,-1.987038,-9.560347,-0.043328,-0.178455,0.161406,1,WALK
1759737454.37519,0.845153,-2.104503,-9.787646,-0.063315,-0.197707,0.19737,1,WALK
1759737454.39509,0.535703,-2.573019,-10.182091,-0.127103,-0.156962,0.179316,1,WALK
1759737454.41519,1.029806,-2.618508,-10.545261,-0.258534,0.038894,0.254375,1,WALK
1759737454.43519,2.074127,-2.467823,-11.358093,-0.629334,0.3684,0.560097,1,WALK
1759737454.45510,2.401534,-2.239626,-12.119449,-0.947574,0.384316,0.969445,1,WALK
1759737454.47503,2.398242,-0.978181,-12.656797,-0.936396,0.081256,1.289382,1,WALK
1759737454.49511,1.295712,-0.50368,-12.65994,-0.536916,-0.26887,1.187119,1,WALK
1759737454.51519,0.15682,-0.389357,-11.278037,0.155255,-0.616937,0.59354,1,WALK
1759737454.53519,-0.386065,-0.780809,-9.460089,0.717621,-0.692014,-0.19833,1,WALK
1759737454.55426,-0.195127,-1.638681,-8.466645,0.950108,-0.338249,-0.751148,1,WALK
1759737454.57503,0.754772,-2.284667,-8.14672,0.943451,0.158063,-0.848392,1,WALK
1759737454.59513,1.932121,-2.505532,-8.175002,0.746957,0.600046,-0.457333,1,WALK
1759737454.61482,2.767847,-2.59741,-8.402451,0.462968,0.812204,0.218971,1,WALK
1759737454.63516,2.678663,-2.379687,-8.483255,0.171089,0.581868,0.992355,1,WALK
1759737454.65478,1.694945,-1.883788,-8.565256,-0.047018,0.201381,1.461558,1,WALK
1759737454.67518,0.486322,-1.414973,-8.542661,-0.191667,0.038299,1.496009,1,WALK
1759737454.69514,-0.529418,-1.318457,-8.730157,-0.263479,0.13034,1.171774,1,WALK
1759737454.71518,-0.8673,-1.485901,-8.953566,-0.247524,0.147229,0.696496,1,WALK
1759737454.73519,-0.42961,-1.57733,-9.143307,-0.175113,-0.001966,0.307532,1,WALK
1759737454.75516,0.025438,-1.919402,-9.229647,-0.121194,-0.158119,0.125862,1,WALK
1759737454.77518,0.187795,-2.342277,-9.279177,-0.061159,-0.205189,0.055394,1,WALK
1759737454.79516,0.253037,-2.5392,-9.043648,0.052832,-0.245977,0.034862,1,WALK
1759737454.81518,0.339528,-2.707842,-8.838345,0.128494,-0.231361,0.039128,1,WALK
1759737454.83518,0.241964,-2.937985,-8.751406,0.094467,-0.117196,0.06343,1,WALK
1759737454.85516,0.045789,-3.108422,-9.122058,0.022571,-0.011424,0.145412,1,WALK
1759737454.87518,-0.293888,-3.049764,-9.613318,0.028739,-0.014313,0.163229,1,WALK
1759737454.89517,-0.571765,-2.920926,-10.159196,0.068576,0.00878,0.080155,1,WALK
1759737454.91518,-1.013196,-3.203143,-10.253917,0.182099,-0.038538,-0.142735,1,WALK
1759737454.93518,-0.488268,-2.880524,-10.03769,0.160458,0.263828,-0.273378,1,WALK
1759737454.95516,0.363769,-2.947262,-10.650606,-0.265369,0.889147,-0.050322,1,WALK
1759737454.97463,0.889895,-2.641403,-11.438298,-0.680241,1.036525,0.326634,1,WALK
1759737454.99471,1.01155,-1.582268,-12.323405,-0.684373,0.667955,0.556628,1,WALK
1759737455.01514,0.389507,-0.939724,-11.76795,-0.205638,-0.067614,0.376246,1,WALK
1759737455.03518,-0.73517,-0.930297,-10.184635,0.375197,-0.623796,-0.153875,1,WALK
1759737455.05515,-1.555932,-1.382053,-8.593538,0.661128,-0.699363,-0.736883,1,WALK
1759737455.07463,-1.66831,-2.21329,-7.727884,0.609135,-0.335063,-1.119441,1,WALK
1759737455.09472,-1.200094,-2.850896,-7.7216,0.353785,0.116602,-1.164099,1,WALK
1759737455.11467,-0.226701,-2.910152,-8.233959,0.066648,0.497807,-0.856414,1,WALK
1759737455.13516,0.599448,-2.585139,-9.102007,-0.053313,0.666318,-0.397965,1,WALK
1759737455.15516,0.931195,-2.05198,-9.621249,-0.001801,0.431739,-0.030063,1,WALK
1759737455.17463,0.423026,-1.677587,-9.759065,0.052582,0.185856,0.13889,1,WALK
1759737455.19473,-0.27249,-1.56491,-9.659556,0.035249,0.112224,0.078955,1,WALK
1759737455.21519,-0.552462,-1.351377,-9.555408,0.011441,0.062983,-0.096378,1,WALK
1759737455.23518,-0.513706,-1.26773,-9.483283,0.067433,-0.024265,-0.323799,1,WALK
1759737455.25515,-0.041899,-1.325789,-9.296835,0.180007,-0.19015,-0.492683,1,WALK
1759737455.27464,0.378583,-1.608006,-8.982745,0.296755,-0.35077,-0.534387,1,WALK
1759737455.29476,0.608426,-1.890671,-8.632294,0.316345,-0.364049,-0.494113,1,WALK
1759737455.31518,0.780959,-2.183512,-8.28693,0.26871,-0.32395,-0.417961,1,WALK
1759737455.33518,0.92491,-2.413954,-8.151808,0.191244,-0.27471,-0.275575,1,WALK
1759737455.35516,1.087865,-2.629133,-8.239944,0.086098,-0.207846,-0.077286,1,WALK
1759737455.37462,1.120037,-2.816778,-8.553435,-0.036919,-0.087783,0.132622,1,WALK
1759737455.39476,1.135001,-2.915539,-8.913014,-0.132463,-0.088622,0.319941,1,WALK
1759737455.41518,1.121085,-2.832939,-9.063849,-0.208236,-0.141455,0.48926,1,WALK
1759737455.43523,0.867,-2.872443,-9.506028,-0.335499,0.009695,0.658508,1,WALK
1759737455.45516,0.816273,-2.961179,-10.002226,-0.444069,0.237858,0.743999,1,WALK
1759737455.47461,1.520917,-2.55192,-10.821492,-0.648421,0.501026,0.917999,1,WALK
1759737455.49477,1.859846,-2.540996,-11.589432,-0.852396,0.398016,1.14242,1,WALK
1759737455.51516,2.14311,-1.788319,-12.339416,-0.901382,0.160291,1.381468,1,WALK
1759737455.53516,1.563713,-1.326088,-12.586318,-0.670384,-0.072711,1.404237,1,WALK
1759737455.55515,0.948403,-1.092355,-12.029068,-0.457267,-0.151751,1.289272,1,WALK
1759737455.57464,0.788291,-1.134103,-11.537209,0.088685,-0.307829,0.862831,1,WALK
1759737455.59481,0.499041,-1.359458,-10.101137,0.668886,-0.489311,0.315153,1,WALK
1759737455.61452,0.566528,-1.89112,-8.856601,0.997812,-0.387231,-0.056343,1,WALK
1759737455.63515,0.742352,-2.488174,-8.471284,0.958373,0.064669,-0.104716,1,WALK
1759737455.65515,1.449839,-2.703652,-8.636634,0.707902,0.592584,0.202046,1,WALK
1759737455.67519,2.52693,-2.470666,-8.799439,0.418185,0.856647,0.800674,1,WALK
1759737455.69482,2.593818,-2.181118,-9.05921,0.127796,0.730036,1.356283,1,WALK
1759737455.71518,1.835305,-1.78368,-9.135525,-0.042761,0.307223,1.593814,1,WALK
1759737455.73518,0.761057,-1.494431,-8.847174,-0.139984,-0.020043,1.490265,1,WALK
1759737455.75516,-0.277578,-1.55668,-8.824578,-0.205831,-0.011284,1.167516,1,WALK
1759737455.77464,-0.612167,-1.704971,-8.909722,-0.168998,0.122703,0.812017,1,WALK
1759737455.79484,-0.234632,-1.922394,-8.969577,-0.042893,0.186303,0.557878,1,WALK
1759737455.81518,0.047435,-2.23798,-9.016713,0.100265,0.17031,0.413436,1,WALK
1759737455.83519,0.241066,-2.443283,-8.851214,0.208673,0.116411,0.333673,1,WALK
1759737455.85516,0.333841,-2.537405,-8.669255,0.227294,0.087271,0.285037,1,WALK
1759737455.87518,0.423026,-2.728342,-8.553435,0.178296,0.040413,0.239906,1,WALK
1759737455.89486,0.49126,-2.864213,-8.534281,0.15249,-0.02672,0.222134,1,WALK
1759737455.91517,0.544681,-2.951153,-8.846575,0.160094,0.026184,0.252919,1,WALK
1759737455.93518,0.560542,-3.052906,-9.054122,0.208118,0.023874,0.327001,1,WALK
1759737455.95516,0.358981,-3.115605,-9.22037,0.195728,0.034619,0.386839,1,WALK
1759737455.97463,0.480187,-2.878728,-9.43495,0.059425,0.110121,0.415944,1,WALK
1759737455.99486,0.604087,-2.676568,-9.840618,-0.091414,0.025346,0.422395,1,WALK
1759737456.01518,0.083947,-2.923171,-10.222493,-0.111084,-0.118705,0.291857,1,WALK
1759737456.03518,0.113874,-2.86152,-10.627263,-0.107055,0.109772,0.193569,1,WALK
1759737456.05515,0.781408,-2.693028,-11.087398,-0.160294,0.406702,0.289388,1,WALK
1759737456.07463,0.865953,-2.487875,-11.527632,-0.15679,0.410499,0.524053,1,WALK
1759737456.09489,0.874333,-1.862689,-11.180174,0.024472,0.006019,0.599666,1,WALK
1759737456.11515,0.241066,-1.550994,-10.101735,0.266014,-0.374415,0.43239,1,WALK
1759737456.13518,-0.439037,-1.74253,-9.039458,0.436286,-0.412057,0.086503,1,WALK
1759737456.15515,-0.760009,-2.209399,-8.393622,0.484223,-0.218344,-0.160635,1,WALK
1759737456.17518,-0.770634,-2.679261,-8.401852,0.412185,0.15089,-0.248676,1,WALK
1759737456.19491,-0.284162,-2.911648,-8.679879,0.29238,0.384442,-0.124339,1,WALK
1759737456.21518,0.467318,-2.572719,-8.901043,0.202637,0.484103,0.153204,1,WALK
1759737456.23517,1.121235,-2.299631,-9.2286,0.071666,0.686707,0.456853,1,WALK
1759737456.25516,1.57329,-1.94903,-9.756072,-0.17115,0.939137,0.847179,1,WALK
1759737456.27518,1.390582,-1.682974,-10.378415,-0.346391,0.908424,1.161179,1,WALK
1759737456.29492,1.274015,-1.177648,-10.361057,-0.323311,0.373766,1.288746,1,WALK
1759737456.31517,0.876577,-0.853683,-10.136002,-0.197881,-0.093504,1.174013,1,WALK
1759737456.33518,0.191237,-1.012747,-9.713276,-0.042415,-0.264612,0.910149,1,WALK
1759737456.35515,-0.216526,-1.372476,-9.16261,0.091104,-0.19681,0.714995,1,WALK
1759737456.37517,-0.112527,-1.8787,-8.884733,0.168627,-0.011878,0.619475,1,WALK
1759737456.39494,0.210839,-2.244115,-8.715792,0.174628,0.145905,0.637606,1,WALK
1759737456.41525,0.354043,-2.570774,-8.787917,0.12353,0.310565,0.784941,1,WALK
1759737456.43518,0.506972,-2.691083,-9.044845,0.02795,0.504895,0.999207,1,WALK
1759737456.45514,0.699855,-2.694375,-9.414151,-0.062852,0.635982,1.23299,1,WALK
1759737456.47518,0.955137,-2.339434,-9.74485,-0.105871,0.61691,1.436325,1,WALK
1759737456.49495,0.765546,-2.151789,-9.807548,-0.097961,0.490327,1.519359,1,WALK
1759737456.51517,0.480187,-2.129493,-9.866655,-0.039955,0.447522,1.487585,1,WALK
1759737456.53518,0.685789,-2.170344,-9.758317,0.001447,0.499244,1.445803,1,WALK
1759737456.55515,1.099088,-2.339434,-9.795427,-0.021256,0.574183,1.551249,1,WALK
1759737456.57517,1.562366,-2.145803,-9.782409,-0.104077,0.582324,1.762239,1,WALK
1759737456.59497,1.581669,-1.955015,-9.832687,-0.190903,0.471272,1.938092,1,WALK
1759737456.61517,1.344045,-1.569698,-9.765949,-0.240028,0.256721,2.024671,1,WALK
1759737456.63518,0.806996,-1.463456,-9.390358,-0.258907,0.034643,1.953977,1,WALK
1759737456.65515,0.344166,-1.517325,-9.166201,-0.26537,0.010256,1.785325,1,WALK
1759737456.67517,0.130933,-1.842338,-9.277232,-0.243967,0.198282,1.663306,1,WALK
1759737456.69499,0.283863,-1.959804,-9.549423,-0.158973,0.451599,1.579972,1,WALK
1759737456.71517,0.588824,-2.015319,-9.828347,-0.078652,0.567025,1.560934,1,WALK
1759737456.73518,0.861913,-1.977012,-9.973646,0.003599,0.486754,1.553221,1,WALK
1759737456.75515,0.934337,-1.995118,-9.673921,0.046993,0.320192,1.555826,1,WALK
1759737456.77517,0.791733,-2.155979,-9.328707,-0.015886,0.2844,1.593596,1,WALK
1759737456.79500,0.559944,-2.250699,-9.229348,-0.106535,0.376293,1.639053,1,WALK
1759737456.81517,0.523432,-2.045247,-9.460987,-0.125544,0.472249,1.660592,1,WALK
1759737456.83517,0.592864,-1.911171,-9.52982,-0.103564,0.487281,1.663539,1,WALK
1759737456.85514,0.613664,-1.888127,-9.43899,-0.110367,0.488941,1.675928,1,WALK
1759737456.87503,0.664541,-1.872565,-9.413552,-0.148174,0.494559,1.699795,1,WALK
1759737456.89501,0.610671,-1.938406,-9.50528,-0.176723,0.551154,1.72568,1,WALK
1759737456.91417,0.605583,-1.865083,-9.713126,-0.139918,0.632378,1.766509,1,WALK
1759737456.93517,0.768239,-1.671751,-9.762657,-0.085343,0.671506,1.82685,1,WALK
1759737456.95515,1.002722,-1.599925,-9.739313,-0.106023,0.654637,1.902612,1,WALK
1759737456.97517,1.132757,-1.440412,-9.679159,-0.210637,0.605957,2.008365,1,WALK
1759737456.99503,1.094898,-1.32938,-9.755025,-0.297599,0.532808,2.082653,1,WALK
1759737457.01419,0.990152,-1.228974,-9.870695,-0.269216,0.394851,2.103825,1,WALK
1759737457.03517,0.585382,-1.334917,-9.873239,-0.176837,0.379057,2.076224,1,WALK
1759737457.05514,0.364368,-1.514781,-9.799018,-0.105827,0.472741,2.007578,1,WALK
1759737457.07517,0.322918,-1.721581,-9.804405,-0.075161,0.551863,1.948114,1,WALK
1759737457.09504,0.470012,-1.762581,-9.843162,-0.019706,0.58638,1.916386,1,WALK
1759737457.11422,0.523732,-1.82094,-9.799318,0.033201,0.576893,1.928592,1,WALK
1759737457.13516,0.546177,-1.865532,-9.566931,0.038344,0.555655,1.955049,1,WALK
1759737457.15514,0.503082,-1.946935,-9.563339,-0.01512,0.538322,1.98504,1,WALK
1759737457.17517,0.563386,-1.813907,-9.482984,-0.061125,0.429237,1.990551,1,WALK
1759737457.19506,0.414795,-1.723376,-9.435998,-0.076732,0.344646,1.961616,1,WALK
1759737457.21425,0.271742,-1.663222,-9.382278,-0.000328,0.312548,1.871946,1,WALK
1759737457.23517,0.350601,-1.63494,-9.351452,0.073971,0.346728,1.793878,1,WALK
1759737457.25514,0.477643,-1.865532,-9.186851,0.029545,0.390798,1.760787,1,WALK
1759737457.27518,0.516549,-1.959654,-9.032575,-0.061081,0.387708,1.740456,1,WALK
1759737457.29508,0.656909,-1.905785,-9.239523,-0.107886,0.375753,1.741469,1,WALK
1759737457.31421,0.604985,-1.946187,-9.514408,-0.067251,0.322644,1.732552,1,WALK
1759737457.33516,0.418237,-1.951873,-9.556456,0.002446,0.298375,1.69021,1,WALK
1759737457.35514,0.080056,-2.16376,-9.411457,0.034932,0.360736,1.615689,1,WALK
1759737457.37517,0.095918,-2.138321,-9.493907,-0.018163,0.569024,1.598918,1,WALK
1759737457.39509,0.03711,-2.082656,-9.748441,-0.059595,0.752239,1.596892,1,WALK
1759737457.41424,0.021548,-2.012476,-9.904962,-0.047701,0.787384,1.600081,1,WALK
1759737457.43523,-0.176123,-1.915062,-9.859921,0.038598,0.633913,1.538599,1,WALK
1759737457.45511,-0.274735,-1.871069,-9.663896,0.023437,0.597166,1.417943,1,WALK
1759737457.47514,-0.354791,-1.982549,-10.057293,-0.078328,0.714766,1.378599,1,WALK
1759737457.49508,-0.340874,-1.860893,-10.053552,-0.060546,0.61273,1.359009,1,WALK
1759737457.51426,-0.387861,-1.839944,-9.956437,-0.018044,0.504295,1.333271,1,WALK
1759737457.53517,-0.535254,-1.937957,-9.601198,0.071246,0.366469,1.222294,1,WALK
1759737457.55514,-0.595408,-1.971625,-9.370905,0.092342,0.433422,1.150854,1,WALK
1759737457.57517,-0.817171,-2.230049,-9.314043,0.142099,0.437363,1.109202,1,WALK
1759737457.59512,-0.815076,-2.206706,-8.946832,0.163198,0.353136,1.108296,1,WALK
1759737457.61428,-1.006762,-2.456601,-8.913912,0.066201,0.368801,1.104747,1,WALK
1759737457.63517,-0.967557,-2.272995,-9.122058,-0.091281,0.454226,1.180291,1,WALK
1759737457.65513,-0.965163,-2.053028,-9.528923,-0.177517,0.474483,1.256345,1,WALK
1759737457.67516,-1.11061,-1.795352,-9.737368,-0.162903,0.301443,1.257161,1,WALK
1759737457.69515,-1.34614,-1.662623,-9.793632,-0.113598,0.118513,1.179307,1,WALK
1759737457.71429,-1.650054,-1.724723,-9.785401,-0.077883,0.083295,1.044979,1,WALK
1759737457.73516,-1.739687,-1.762132,-9.674819,-0.085749,0.157376,0.944208,1,WALK
1759737457.75462,-1.668908,-1.987487,-9.605238,-0.169768,0.243126,0.878438,1,WALK
1759737457.77516,-1.43293,-2.052729,-9.690531,-0.215293,0.231416,0.80381,1,WALK
1759737457.79515,-0.990751,-2.046145,-9.718364,-0.176022,0.149393,0.699988,1,WALK
1759737457.81431,-0.689829,-2.304718,-9.618556,-0.107511,0.064423,0.629962,1,WALK
1759737457.83516,-0.4748,-2.439841,-9.34412,-0.05865,0.032511,0.616942,1,WALK
1759737457.85511,-0.410157,-2.622848,-8.99322,-0.033446,-0.000402,0.619409,1,WALK
1759737457.87516,-0.278027,-2.702006,-8.795549,-0.031705,-0.023464,0.647721,1,WALK
1759737457.89516,-0.358831,-2.803909,-8.88159,-0.022227,0.041116,0.661641,1,WALK
1759737457.91433,-0.439785,-2.816629,-8.956858,0.028057,0.099993,0.655723,1,WALK
1759737457.93516,-0.396989,-2.864363,-8.954763,0.040671,0.119677,0.633935,1,WALK
1759737457.95513,-0.456095,-2.914492,-9.022848,-0.006044,0.129931,0.608344,1,WALK
1759737457.97516,-0.419135,-2.89025,-9.234137,-0.087157,0.119658,0.609192,1,WALK
1759737457.99516,-0.380379,-2.767099,-9.622895,-0.129484,0.204911,0.597114,1,WALK
1759737458.01434,-0.199168,-2.597858,-10.077793,-0.093678,0.290686,0.600058,1,WALK
1759737458.03515,-0.211588,-2.592023,-10.260351,0.012383,0.220313,0.556287,1,WALK
1759737458.05430,-0.369306,-2.909554,-10.342502,0.043924,0.29806,0.46243,1,WALK
1759737458.07517,0.267253,-2.694524,-10.600029,-0.146268,0.596693,0.529671,1,WALK
1759737458.09496,0.893037,-2.713678,-10.884939,-0.316311,0.479227,0.714343,1,WALK
1759737458.11436,1.361852,-1.917905,-10.851719,-0.332859,0.21761,0.836159,1,WALK
1759737458.13514,1.358709,-1.282993,-10.765528,-0.253347,0.122976,0.838664,1,WALK
1759737458.15513,0.807893,-1.35033,-10.148572,-0.008975,-0.104014,0.660018,1,WALK
1759737458.17514,0.399233,-1.476175,-9.256283,0.292892,-0.301339,0.383638,1,WALK
1759737458.19515,0.21473,-1.940052,-8.587702,0.505055,-0.165605,0.18473,1,WALK
1759737458.21438,0.351948,-2.338836,-8.371027,0.542091,0.150337,0.170269,1,WALK
1759737458.23514,0.742651,-2.636166,-8.558523,0.44586,0.456374,0.313277,1,WALK
1759737458.25414,1.49054,-2.48174,-8.618228,0.277085,0.543032,0.574465,1,WALK
1759737458.27514,1.86224,-2.415301,-8.854955,-0.004223,0.39797,0.84921,1,WALK
1759737458.29449,1.485153,-2.411859,-9.060557,-0.288186,0.080305,0.995359,1,WALK
1759737458.31440,0.873884,-2.183811,-9.245359,-0.415804,-0.175782,0.960032,1,WALK
1759737458.33514,0.267552,-2.171391,-9.394847,-0.330466,-0.235221,0.78641,1,WALK
1759737458.35513,-0.095618,-2.280028,-9.533711,-0.141741,-0.148994,0.63274,1,WALK
1759737458.37516,-0.212036,-2.443133,-9.114875,0.011579,-0.121403,0.519755,1,WALK
1759737458.39516,-0.099808,-2.635567,-8.767566,-0.010632,-0.097699,0.398862,1,WALK
1759737458.41439,-0.055665,-2.805555,-8.610746,-0.136786,-0.070632,0.290109,1,WALK
1759737458.43515,-0.035165,-2.912546,-8.811859,-0.184818,-0.108162,0.20072,1,WALK
1759737458.45513,0.036661,-2.798074,-9.024195,-0.144606,-0.129875,0.124955,1,WALK
1759737458.47515,-0.084396,-2.904915,-9.433603,-0.072204,-0.082024,0.081185,1,WALK
1759737458.49520,-0.082301,-2.734777,-9.757569,0.022476,-0.034817,0.059632,1,WALK
1759737458.51441,-0.281319,-2.643199,-10.043676,0.091568,-0.047305,0.017585,1,WALK
1759737458.53517,-0.988356,-2.950704,-10.088867,0.190068,-0.164886,-0.162811,1,WALK
1759737458.55513,-1.113453,-3.175909,-10.155755,0.236435,0.152684,-0.357497,1,WALK
1759737458.57516,-0.050877,-2.717718,-10.80593,-0.056764,0.865488,-0.177608,1,WALK
1759737458.59516,0.478242,-2.773683,-11.067496,-0.281751,0.730299,0.083615,1,WALK
1759737458.61443,0.931344,-1.65589,-10.955119,-0.26267,0.148692,0.226592,1,WALK
1759737458.63514,0.202011,-1.311873,-10.333374,-0.137512,-0.364748,0.132415,1,WALK
1759737458.65513,-0.910246,-1.299453,-9.492112,0.001695,-0.502052,-0.13565,1,WALK
1759737458.67515,-1.471835,-1.409736,-8.776096,0.120062,-0.48812,-0.399042,1,WALK
1759737458.69445,-1.863736,-1.850419,-8.313416,0.185331,-0.404014,-0.630072,1,WALK
1759737458.71448,-1.951274,-2.202366,-8.319103,0.167452,-0.133228,-0.781232,1,WALK
1759737458.73515,-1.60217,-2.24621,-8.778789,0.081244,0.29952,-0.752711,1,WALK
1759737458.75513,-0.914435,-1.997812,-9.396344,0.025328,0.695267,-0.590884,1,WALK
1759737458.77515,-0.25603,-1.761384,-10.013898,0.011304,0.808542,-0.464869,1,WALK
1759737458.79515,0.167145,-1.620276,-10.209325,0.026391,0.545605,-0.395478,1,WALK
1759737458.81447,0.257975,-1.662474,-10.125228,0.081863,0.117802,-0.347074,1,WALK
1759737458.83515,-0.102202,-1.74238,-9.703999,0.079588,-0.130738,-0.305145,1,WALK
1759737458.85475,-0.402824,-1.867477,-9.34816,0.006362,-0.117009,-0.254385,1,WALK
1759737458.87443,-0.381277,-1.843984,-9.140613,-0.045156,-0.096115,-0.216834,1,WALK
1759737458.89516,-0.175675,-1.735946,-9.021651,-0.021547,-0.148238,-0.198429,1,WALK
1759737458.91448,-0.113725,-1.733402,-8.901791,0.055015,-0.184708,-0.206362,1,WALK
1759737458.93515,-0.137816,-1.898452,-8.602666,0.131686,-0.189879,-0.266712,1,WALK
1759737458.95474,0.002394,-2.140416,-8.453178,0.152906,-0.090241,-0.305098,1,WALK
1759737458.97515,0.281917,-2.355146,-8.403199,0.144672,-0.014302,-0.273159,1,WALK
1759737458.99514,0.546925,-2.519299,-8.615535,0.114554,0.01731,-0.171409,1,WALK
1759737459.01515,0.684592,-2.565537,-8.936956,0.057178,0.067872,-0.038182,1,WALK
1759737459.03515,0.720505,-2.513463,-9.414151,-0.019845,0.076981,0.092044,1,WALK
1759737459.05512,0.656011,-2.40707,-9.803358,-0.084147,-0.0036,0.181297,1,WALK
1759737459.07516,0.335637,-2.456301,-10.034548,-0.125451,-0.099218,0.192798,1,WALK
1759737459.09514,-0.213832,-3.016096,-10.203339,-0.137272,-0.064275,0.106998,1,WALK
1759737459.11452,0.5782,-2.732383,-10.560973,-0.316237,0.375111,0.183929,1,WALK
1759737459.13515,1.530793,-2.651129,-11.505037,-0.663177,0.705052,0.467467,1,WALK
1759737459.15513,2.124405,-1.785476,-12.218659,-0.861353,0.473716,0.775439,1,WALK
1759737459.17515,1.888427,-0.913687,-12.20579,-0.598743,-0.181987,0.812244,1,WALK
1759737459.19514,0.985364,-0.504279,-10.952724,-0.034989,-0.740867,0.418392,1,WALK
1759737459.21454,-0.215179,-1.072453,-9.335441,0.472011,-0.943331,-0.214599,1,WALK
1759737459.23514,-0.372598,-1.842488,-8.249222,0.655609,-0.727951,-0.611618,1,WALK
1759737459.25512,-0.0208,-2.529025,-7.97314,0.564465,-0.204269,-0.725856,1,WALK
1759737459.27514,0.989105,-2.707842,-8.227824,0.415825,0.292706,-0.504611,1,WALK
1759737459.29513,2.203414,-2.42398,-8.553435,0.257155,0.534272,-0.029582,1,WALK
1759737459.31454,2.519897,-2.251148,-8.98484,0.029818,0.582846,0.455802,1,WALK
1759737459.33514,2.05617,-1.910124,-9.186103,-0.158604,0.270377,0.761266,1,WALK
1759737459.35485,1.340454,-1.517625,-9.082105,-0.208304,-0.118065,0.777281,1,WALK
1759737459.37514,0.577003,-1.533785,-9.27798,-0.184357,-0.202338,0.520879,1,WALK
1759737459.39514,0.126144,-1.707515,-9.210344,-0.057673,-0.190097,0.204305,1,WALK
1759737459.41458,0.180613,-1.759589,-9.081357,0.002191,-0.201358,0.095638,1,WALK
1759737459.43488,0.42123,-2.431312,-8.704419,0.034746,-0.215593,-0.008298,1,WALK
1759737459.45513,0.461183,-2.704101,-8.616582,-0.065381,-0.150671,-0.049092,1,WALK
1759737459.47515,0.52044,-2.768595,-8.628404,-0.082638,-0.127706,-0.040318,1,WALK
1759737459.49515,0.773327,-2.814534,-9.100361,-0.052973,-0.083594,0.042688,1,WALK
1759737459.51458,0.761805,-2.824559,-9.221268,-0.021822,-0.102052,0.075449,1,WALK
1759737459.53514,0.695067,-2.72924,-9.397541,0.015325,-0.069857,0.141738,1,WALK
1759737459.55512,0.512658,-2.528876,-9.69098,-0.003094,0.03255,0.170233,1,WALK
1759737459.57514,0.273837,-2.331204,-10.151864,0.026809,0.000356,0.13823,1,WALK
1759737459.59513,-0.452205,-2.528726,-10.189722,0.169441,-0.28718,-0.057945,1,WALK
1759737459.61460,-0.598999,-2.691382,-10.144532,0.176571,-0.073524,-0.264838,1,WALK
1759737459.63514,0.110283,-2.432808,-11.003152,-0.201233,0.719837,-0.119775,1,WALK
1759737459.65512,0.56144,-2.427421,-11.670835,-0.46934,0.767231,0.111781,1,WALK
1759737459.67515,0.989853,-1.332523,-11.878383,-0.411928,0.279093,0.2188,1,WALK
1759737459.69514,0.412102,-0.872088,-11.022156,-0.107271,-0.314112,0.020473,1,WALK
1759737459.71462,-0.586879,-0.906205,-9.929353,0.149378,-0.477523,-0.353354,1,WALK
1759737459.73514,-1.241244,-1.438766,-8.687361,0.339441,-0.539576,-0.689048,1,WALK
1759737459.75512,-1.348085,-1.954566,-8.049905,0.403213,-0.437479,-0.911324,1,WALK
1759737459.77516,-1.217601,-2.404676,-7.901763,0.300641,-0.135758,-0.945671,1,WALK
1759737459.79514,-0.927155,-2.719813,-8.483105,0.072991,0.347569,-0.749386,1,WALK
1759737459.81463,-0.139612,-2.516156,-9.020005,-0.078909,0.61104,-0.369508,1,WALK
1759737459.83515,0.446968,-1.915062,-9.486276,-0.13033,0.503559,-0.069772,1,WALK
1759737459.85511,0.261118,-1.505055,-9.482086,-0.111818,0.257114,0.016878,1,WALK
1759737459.87488,-0.233285,-1.474828,-9.202413,-0.069455,0.018222,-0.058532,1,WALK
1759737459.89514,-0.578349,-1.467496,-8.965836,-0.083846,-0.067598,-0.157852,1,WALK
1759737459.91465,-0.882712,-1.647061,-8.708609,-0.162479,-0.1275,-0.208381,1,WALK
1759737459.93514,-0.864905,-1.658134,-8.833257,-0.195085,-0.046483,-0.302801,1,WALK
1759737459.95511,-0.628927,-1.530643,-9.04694,-0.150798,0.10024,-0.340492,1,WALK
1759737459.97416,-0.525228,-1.683722,-9.345766,-0.06388,0.245329,-0.357588,1,WALK
1759737459.99515,-0.117914,-1.765724,-9.434501,0.042419,0.225396,-0.405539,1,WALK
1759737460.01467,0.277877,-1.946486,-9.346963,0.095965,0.110238,-0.440412,1,WALK
1759737460.03514,0.521936,-2.178873,-9.258677,0.096026,0.075726,-0.415593,1,WALK
1759737460.05512,0.623241,-2.36996,-9.262268,0.099961,0.098765,-0.307934,1,WALK
1759737460.07515,0.759411,-2.514211,-9.185205,0.082316,0.040387,-0.148405,1,WALK
1759737460.09514,0.771531,-2.544139,-9.264663,0.011581,0.021364,0.023129,1,WALK
1759737460.11469,0.745943,-2.523638,-9.361029,-0.092576,-0.046785,0.182729,1,WALK
1759737460.13515,0.49156,-2.347066,-9.452907,-0.195809,-0.117384,0.286144,1,WALK
1759737460.15511,-0.027234,-2.541744,-9.909002,-0.247477,-0.059553,0.252651,1,WALK
1759737460.17513,0.323516,-2.355446,-10.249877,-0.2942,0.177309,0.227222,1,WALK
1759737460.19513,1.069909,-2.281375,-10.955268,-0.48595,0.443794,0.34144,1,WALK
1759737460.21470,1.747468,-1.889923,-11.407473,-0.64279,0.363589,0.533699,1,WALK
1759737460.23514,2.032677,-1.050306,-11.769446,-0.683534,0.104862,0.701649,1,WALK
1759737460.25489,1.481562,-0.676961,-11.573272,-0.369378,-0.396142,0.5867,1,WALK
1759737460.27514,0.605883,-0.530914,-10.317064,0.162896,-0.903321,0.149084,1,WALK
1759737460.29512,-0.114772,-1.070208,-9.169643,0.522937,-1.00387,-0.31845,1,WALK
1759737460.31471,-0.176872,-1.588852,-8.586206,0.558383,-0.574144,-0.549342,1,WALK
1759737460.33514,0.360327,-2.145205,-8.790012,0.36344,0.079283,-0.51612,1,WALK
1759737460.35511,1.641375,-2.00664,-9.155577,0.182569,0.445344,-0.204866,1,WALK
1759737460.37514,2.413804,-1.69285,-9.54239,0.061578,0.445309,0.201405,1,WALK
1759737460.39514,2.307113,-1.463905,-9.689933,0.026976,0.052869,0.477725,1,WALK
1759737460.41473,1.475576,-1.247229,-9.495404,0.062317,-0.360957,0.507204,1,WALK
1759737460.43514,0.528819,-1.265186,-9.223812,0.063841,-0.407219,0.278355,1,WALK
1759737460.45511,0.003591,-1.508347,-8.973169,0.067033,-0.292529,-0.001519,1,WALK
1759737460.47514,0.137367,-1.768716,-8.776844,0.079573,-0.213766,-0.15221,1,WALK
1759737460.49513,0.460884,-2.113033,-8.570045,0.059391,-0.258121,-0.196916,1,WALK
1759737460.51475,0.628478,-2.359785,-8.609998,-0.007649,-0.247561,-0.17051,1,WALK
1759737460.53513,0.590021,-2.456601,-8.901492,-0.058901,-0.12288,-0.10673,1,WALK
1759737460.55511,0.513556,-2.497003,-9.239075,-0.052973,-0.06636,-0.069312,1,WALK
1759737460.57513,0.447117,-2.383428,-9.379135,-0.032992,-0.083685,-0.092785,1,WALK
1759737460.59513,0.331747,-2.29589,-9.508123,-0.0226,-0.080696,-0.135048,1,WALK
1759737460.61476,0.382474,-2.227056,-9.91409,-0.03457,-0.041526,-0.130207,1,WALK
1759737460.63513,0.230891,-2.132934,-10.323947,0.046904,-0.148191,-0.142501,1,WALK
1759737460.65511,-0.672172,-2.594117,-10.549451,0.236909,-0.277539,-0.312439,1,WALK
1759737460.67513,-0.4335,-2.341828,-10.403105,0.326704,0.163858,-0.4389,1,WALK
1759737460.69453,0.411952,-2.232443,-10.618733,0.007511,0.77974,-0.247619,1,WALK
1759737460.71478,0.937031,-2.129343,-11.150994,-0.293728,0.778059,-0.041371,1,WALK
1759737460.73513,1.235109,-1.313669,-11.502343,-0.293325,0.303832,0.080609,1,WALK
1759737460.75511,0.741005,-1.034744,-10.843938,-0.01441,-0.407416,-0.019741,1,WALK
1759737460.77514,-0.189591,-0.981623,-9.737368,0.199357,-0.776712,-0.315793,1,WALK
1759737460.79513,-0.914286,-1.49069,-8.615834,0.315695,-0.833196,-0.647796,1,WALK
1759737460.81479,-1.115548,-1.979257,-7.903409,0.373022,-0.707625,-0.863459,1,WALK
1759737460.83514,-1.138144,-2.394202,-7.768586,0.218476,-0.294169,-0.848361,1,WALK
1759737460.85511,-0.951695,-2.751237,-8.255058,-0.056392,0.224238,-0.631945,1,WALK
1759737460.87489,-0.37978,-2.336591,-9.028534,-0.208239,0.537671,-0.333501,1,WALK
1759737460.89513,0.048034,-1.653795,-9.615862,-0.163865,0.541633,-0.186197,1,WALK
1759737460.91481,-0.04534,-1.388787,-9.654319,-0.02442,0.325721,-0.183732,1,WALK
1759737460.93513,-0.299874,-1.345691,-9.453356,0.067269,0.107551,-0.272837,1,WALK
1759737460.95511,-0.355988,-1.45343,-9.185055,0.008978,0.069921,-0.314073,1,WALK
1759737460.97513,-0.356886,-1.680281,-9.213487,-0.080322,0.038491,-0.267546,1,WALK
1759737460.99514,-0.155473,-1.572542,-9.177574,-0.095132,-0.067667,-0.217895,1,WALK
1759737461.01483,-0.118363,-1.531092,-9.314791,-0.033259,-0.039054,-0.191021,1,WALK
1759737461.03513,-0.104148,-1.590498,-9.117419,0.070981,-0.013308,-0.172557,1,WALK
1759737461.05511,-0.043844,-1.781286,-8.807071,0.130642,-0.012149,-0.178516,1,WALK
1759737461.07512,0.151882,-1.962647,-8.575432,0.124049,0.00642,-0.173123,1,WALK
1759737461.09513,0.316932,-2.266262,-8.722526,0.05201,0.018715,-0.08992,1,WALK
1759737461.11484,0.410007,-2.416498,-8.830714,0.031264,-0.014476,0.013765,1,WALK
1759737461.13513,0.548123,-2.457199,-9.225757,0.015266,-0.007317,0.162212,1,WALK
1759737461.15510,0.657358,-2.35784,-9.497948,0.010521,0.041894,0.316738,1,WALK
1759737461.17514,0.709432,-2.315941,-9.769091,-0.058423,0.069389,0.491657,1,WALK
1759737461.19513,0.888249,-1.930026,-10.100987,-0.126684,0.023143,0.632792,1,WALK
1759737461.21485,0.570269,-1.911321,-10.211869,-0.141347,-0.16552,0.646148,1,WALK
1759737461.23512,0.372298,-1.96115,-10.480019,-0.229547,-0.001851,0.639922,1,WALK
1759737461.25510,0.909198,-1.481412,-11.121067,-0.495744,0.406651,0.776399,1,WALK
1759737461.27513,1.153107,-1.199345,-11.962479,-0.563848,0.467846,0.878699,1,WALK
1759737461.29513,1.29257,-0.558148,-11.905168,-0.339051,0.123435,0.840244,1,WALK
1759737461.31485,0.817021,-0.404321,-11.030686,0.056818,-0.326969,0.542037,1,WALK
1759737461.33511,0.035913,-0.946757,-9.979182,0.392652,-0.544098,0.094211,1,WALK
1759737461.35511,-0.121206,-1.615488,-8.991724,0.599265,-0.475803,-0.25688,1,WALK
1759737461.37511,0.177021,-2.107646,-8.606257,0.595468,-0.08019,-0.385256,1,WALK
1759737461.39511,0.830339,-2.538752,-8.771607,0.427594,0.360585,-0.23817,1,WALK
1759737461.41488,1.391779,-2.503587,-8.907328,0.319559,0.513131,-0.062961,1,WALK
1759737461.43510,2.57227,-2.018911,-9.471312,-0.030722,0.590424,0.638034,1,WALK
1759737461.45510,2.368913,-1.904438,-9.584289,-0.105555,0.430264,0.81011,1,WALK
1759737461.47513,1.664269,-1.411831,-9.412205,-0.157958,-0.038531,0.96205,1,WALK
1759737461.49512,0.570568,-1.333121,-9.013271,-0.144031,-0.32607,0.779983,1,WALK
1759737461.51491,-0.218321,-1.489343,-8.832958,-0.133613,-0.238627,0.403679,1,WALK
1759737461.53513,-0.22296,-1.873612,-8.758439,-0.133474,-0.079856,0.185875,1,WALK
1759737461.55510,0.236278,-2.191742,-8.701427,-0.169802,-0.07527,0.143196,1,WALK
1759737461.57512,0.503979,-2.297386,-8.83206,-0.212834,-0.113403,0.169743,1,WALK
1759737461.59512,0.40866,-2.356643,-9.016863,-0.190734,-0.151646,0.187052,1,WALK
1759737461.61492,0.226551,-2.37415,-9.083751,-0.164952,-0.111335,0.152794,1,WALK
1759737461.63512,0.029479,-2.460042,-9.129989,-0.146012,-0.039811,0.074466,1,WALK
1759737461.65510,0.098761,-2.459593,-9.290251,-0.114926,-0.005653,0.018141,1,WALK
1759737461.67513,0.227748,-2.496853,-9.447819,-0.102114,-0.03711,-0.002319,1,WALK
1759737461.69512,0.21069,-2.496255,-9.760711,-0.111724,-0.084945,-0.012268,1,WALK
1759737461.71495,0.142605,-2.265513,-9.963769,-0.085311,-0.09516,-0.050465,1,WALK
1759737461.73512,0.051475,-2.150292,-10.202741,-0.013744,-0.0922,-0.139956,1,WALK
1759737461.75510,-0.061052,-2.160318,-10.2816,0.08872,-0.138833,-0.253434,1,WALK
1759737461.77512,-0.391751,-2.697966,-10.127623,0.135981,-0.180209,-0.388743,1,WALK
1759737461.79512,0.102053,-2.386271,-10.398317,-0.045734,0.248313,-0.304955,1,WALK
1759737461.81494,0.117765,-2.641702,-11.045051,-0.310223,0.509605,-0.121307,1,WALK
1759737461.83512,0.349404,-1.802983,-11.417798,-0.378882,0.331078,0.009148,1,WALK
1759737461.85510,0.322768,-1.144578,-11.226711,-0.235097,0.028715,-0.054797,1,WALK
1759737461.87487,-0.035763,-0.742951,-10.838401,-0.020131,-0.096956,-0.257349,1,WALK
1759737461.89512,-0.678158,-0.99105,-9.879224,0.228438,-0.26481,-0.564189,1,WALK
1759737461.91497,-0.848146,-1.242291,-8.859294,0.402663,-0.329206,-0.821832,1,WALK
1759737461.93514,-0.787393,-1.638981,-8.543858,0.395158,-0.059983,-0.918758,1,WALK
1759737461.95510,-0.747141,-2.122011,-8.711901,0.237903,0.308111,-0.822758,1,WALK
1759737461.97488,-0.214431,-2.089988,-9.204508,0.060213,0.548251,-0.583604,1,WALK
1759737461.99512,0.352546,-1.554286,-9.632322,-0.016839,0.55491,-0.371575,1,WALK
1759737462.01498,0.52029,-1.174655,-9.861866,-0.035418,0.37359,-0.239943,1,WALK
1759737462.03512,0.314987,-1.170615,-9.962423,0.024382,0.063493,-0.189875,1,WALK
1759737462.05510,0.101305,-1.025766,-9.699809,0.140952,-0.152695,-0.216929,1,WALK
1759737462.07512,-0.115371,-1.111059,-9.098415,0.185158,-0.213848,-0.274169,1,WALK
1759737462.09512,-0.103699,-1.420061,-8.631247,0.149271,-0.199041,-0.285212,1,WALK
1759737462.11500,0.020949,-1.516427,-8.506598,0.099086,-0.132791,-0.270847,1,WALK
1759737462.13511,0.171036,-1.488595,-8.47308,0.058126,-0.047758,-0.24382,1,WALK
1759737462.15509,0.291793,-1.565359,-8.657433,0.068313,-0.029689,-0.20762,1,WALK
1759737462.17512,0.461183,-1.548749,-8.582165,0.103867,-0.084192,-0.173008,1,WALK
1759737462.19510,0.381127,-1.825429,-8.692448,0.080115,-0.012,-0.152693,1,WALK
1759737462.21512,0.467318,-1.951574,-8.778041,0.036008,0.089997,-0.104761,1,WALK
1759737462.23512,0.571466,-2.127099,-8.988282,-0.026169,0.115402,-0.000213,1,WALK
1759737462.25495,0.368557,-2.201319,-9.599701,-0.069148,0.140668,0.109132,1,WALK
1759737462.27513,0.23553,-2.026841,-9.921272,-0.053203,0.089373,0.146589,1,WALK
1759737462.29511,0.201412,-1.922544,-9.969156,-0.058811,-0.030984,0.140356,1,WALK
1759737462.31503,0.191536,-2.00275,-10.255114,-0.066569,-0.032013,0.074663,1,WALK
1759737462.33512,0.073322,-2.266411,-10.272173,-0.017037,-0.098944,0.031137,1,WALK
1759737462.35510,0.075567,-2.584541,-10.439617,-0.041698,0.090883,0.029767,1,WALK
1759737462.37512,0.804601,-2.415749,-11.242423,-0.278394,0.5572,0.209291,1,WALK
1759737462.39512,1.294216,-2.046444,-11.7473,-0.415006,0.474698,0.411229,1,WALK
1759737462.41505,1.630751,-1.17271,-11.842769,-0.404371,-0.009545,0.557046,1,WALK
1759737462.43512,1.074697,-0.746542,-11.52419,-0.138599,-0.394401,0.453255,1,WALK
1759737462.45509,0.137367,-0.663643,-10.358813,0.305571,-0.624083,0.077436,1,WALK
1759737462.47512,-0.327557,-1.023671,-8.989778,0.678811,-0.644455,-0.310941,1,WALK
1759737462.49512,-0.466869,-1.585111,-7.945308,0.802089,-0.395543,-0.508296,1,WALK
1759737462.51506,-0.341623,-2.172139,-7.689428,0.638643,0.055369,-0.539119,1,WALK
1759737462.53511,0.249596,-2.275988,-8.002918,0.333222,0.378519,-0.358534,1,WALK
1759737462.55413,0.890194,-2.003049,-8.552537,0.027893,0.445826,-0.101676,1,WALK
1759737462.57512,1.367239,-1.446547,-9.414899,-0.265484,0.407126,0.127193,1,WALK
1759737462.59512,1.342698,-1.222988,-10.175058,-0.369275,0.122559,0.321081,1,WALK
1759737462.61507,0.534506,-1.137096,-10.481216,-0.19943,-0.274359,0.330256,1,WALK
1759737462.63511,-0.335787,-0.985364,-10.077344,0.016465,-0.373037,0.094116,1,WALK
1759737462.65510,-0.951994,-1.216554,-9.451261,0.120519,-0.311533,-0.246981,1,WALK
1759737462.67512,-0.970549,-1.515081,-8.90239,0.104164,-0.324363,-0.566049,1,WALK
1759737462.69512,-0.653467,-1.79191,-8.63379,0.01617,-0.31627,-0.790674,1,WALK
1759737462.71509,-0.189591,-2.086098,-8.692897,-0.052519,-0.233178,-0.852156,1,WALK
1759737462.73512,0.030376,-2.22571,-8.934412,-0.022717,-0.202067,-0.831299,1,WALK
1759737462.75509,0.098162,-2.141613,-9.194333,0.048501,-0.164995,-0.864732,1,WALK
1759737462.77514,0.134674,-2.1473,-9.258527,0.072266,-0.159635,-0.932597,1,WALK
1759737462.79513,0.332046,-2.070685,-9.289652,0.016447,-0.236731,-0.981896,1,WALK
1759737462.81512,0.617854,-2.005144,-9.586533,-0.068258,-0.26249,-0.955925,1,WALK
1759737462.83496,0.587777,-1.843685,-9.844359,-0.081158,-0.271311,-0.948634,1,WALK
1759737462.85509,0.532111,-1.59813,-10.036793,-0.029797,-0.261964,-1.000844,1,WALK
1759737462.87511,0.594809,-1.603217,-10.215759,0.072661,-0.27145,-1.104589,1,WALK
1759737462.89511,0.785298,-1.70527,-10.001777,0.167239,-0.38433,-1.183346,1,WALK
1759737462.91510,0.973243,-1.807922,-9.670031,0.181431,-0.442643,-1.178667,1,WALK
1759737462.93494,0.81328,-2.14715,-9.720608,0.124863,-0.371449,-1.173615,1,WALK
1759737462.95509,0.511162,-2.179322,-9.645041,0.100189,-0.383069,-1.222718,1,WALK
1759737462.97511,0.333243,-2.020407,-9.350555,0.056926,-0.494575,-1.319763,1,WALK
1759737462.99511,-0.066289,-2.109591,-9.556755,0.017553,-0.482983,-1.435253,1,WALK
1759737463.01510,-0.253486,-2.100164,-9.873688,0.067735,-0.481962,-1.508002,1,WALK
1759737463.03493,-0.446668,-1.97372,-9.889849,0.157607,-0.46773,-1.558251,1,WALK
1759737463.05509,-0.428113,-1.810465,-10.015394,0.173056,-0.127143,-1.581133,1,WALK
1759737463.07510,0.180463,-1.57314,-10.227431,-0.007565,0.126959,-1.489731,1,WALK
1759737463.09510,0.25169,-1.433229,-10.369886,-0.142045,-0.06929,-1.462679,1,WALK
1759737463.11511,-0.042347,-0.869843,-10.560075,-0.062747,-0.308962,-1.538404,1,WALK
1759737463.13493,-0.58224,-0.678906,-10.455179,0.117783,-0.403007,-1.678713,1,WALK
1759737463.15508,-0.841712,-0.761955,-10.047567,0.257812,-0.300139,-1.807086,1,WALK
1759737463.17516,-0.844255,-0.94541,-9.641151,0.330135,-0.18008,-1.873724,1,WALK
1759737463.19515,-0.559495,-1.071106,-9.235184,0.334571,-0.181762,-1.86339,1,WALK
1759737463.21509,-0.464475,-1.193958,-9.126697,0.296293,-0.200909,-1.818877,1,WALK
1759737463.23495,-0.4543,-1.268628,-9.129839,0.241496,-0.240124,-1.764218,1,WALK
1759737463.25508,-0.583886,-1.351527,-9.151686,0.186328,-0.272068,-1.741187,1,WALK
1759737463.27514,-0.734272,-1.390882,-9.43914,0.144078,-0.250098,-1.701131,1,WALK
1759737463.29510,-0.798017,-1.43682,-9.639954,0.135877,-0.258593,-1.635454,1,WALK
1759737463.31510,-0.690278,-1.440561,-9.826851,0.139745,-0.260941,-1.552673,1,WALK
1759737463.33493,-0.670077,-1.406593,-10.018387,0.145147,-0.279532,-1.469652,1,WALK
1759737463.35509,-0.723348,-1.297358,-9.932794,0.154598,-0.404892,-1.451421,1,WALK
1759737463.37510,-0.854431,-1.208473,-9.986215,0.148369,-0.515464,-1.516945,1,WALK
1759737463.39510,-0.789039,-1.227477,-9.938032,0.159477,-0.587844,-1.597301,1,WALK
1759737463.41508,-0.586729,-1.371129,-9.861268,0.122828,-0.61703,-1.626988,1,WALK
1759737463.43460,-0.555904,-1.467346,-9.832687,0.100021,-0.640671,-1.639796,1,WALK
1759737463.45508,-0.460884,-1.485303,-9.807847,0.074861,-0.704636,-1.650375,1,WALK
1759737463.47511,-0.501735,-1.520617,-9.609428,0.081651,-0.777746,-1.67417,1,WALK
1759737463.49511,-0.614562,-1.549497,-9.420435,0.094168,-0.786139,-1.713504,1,WALK
1759737463.51511,-0.698658,-1.641525,-9.19149,0.103292,-0.724946,-1.743262,1,WALK
1759737463.53494,-0.690727,-1.78383,-9.112481,0.083083,-0.584793,-1.737852,1,WALK
1759737463.55508,-0.638803,-1.893814,-9.246706,0.07217,-0.425458,-1.703392,1,WALK
1759737463.57510,-0.487669,-1.868824,-9.406818,0.089646,-0.360436,-1.659636,1,WALK
1759737463.59511,-0.374393,-1.830367,-9.613917,0.068277,-0.332883,-1.608317,1,WALK
1759737463.61511,-0.378284,-1.79206,-9.88102,0.065765,-0.357169,-1.589759,1,WALK
1759737463.63494,-0.41689,-1.571943,-9.95539,0.100667,-0.388406,-1.579195,1,WALK
1759737463.65508,-0.57805,-1.637933,-9.888951,0.110298,-0.371682,-1.607571,1,WALK
1759737463.67511,-0.596156,-1.605611,-9.790639,0.084472,-0.346963,-1.634764,1,WALK
1759737463.69479,-0.66065,-1.6517,-9.69936,0.063607,-0.340886,-1.663823,1,WALK
1759737463.71510,-0.633715,-1.58541,-9.827899,0.057931,-0.280537,-1.66378,1,WALK
1759737463.73510,-0.589123,-1.646313,-10.073603,0.083765,-0.237394,-1.61937,1,WALK
1759737463.75499,-0.537498,-1.603965,-10.006715,0.151578,-0.293213,-1.602703,1,WALK
1759737463.77511,-0.608875,-1.589151,-9.813683,0.187631,-0.326838,-1.629441,1,WALK
1759737463.79508,-0.711228,-1.666065,-9.648782,0.201628,-0.32041,-1.695823,1,WALK
1759737463.81512,-0.713023,-1.706767,-9.514258,0.207518,-0.302518,-1.753955,1,WALK
1759737463.83495,-0.577152,-1.747618,-9.537751,0.192365,-0.277173,-1.778391,1,WALK
1759737463.85508,-0.355689,-1.791611,-9.425673,0.176452,-0.394009,-1.765097,1,WALK
1759737463.87510,-0.366911,-1.762282,-9.19568,0.093925,-0.547498,-1.78085,1,WALK
1759737463.89480,-0.604536,-1.714248,-9.032575,-0.004089,-0.601977,-1.841732,1,WALK
1759737463.91511,-0.703596,-1.675043,-9.082404,-0.038702,-0.587483,-1.883608,1,WALK
1759737463.93511,-0.72245,-1.712752,-9.257779,0.018643,-0.514316,-1.92096,1,WALK
1759737463.95447,-0.432453,-1.794753,-9.263316,0.084822,-0.47067,-1.91761,1,WALK
1759737463.97510,-0.120458,-1.946785,-9.316886,0.041135,-0.410079,-1.813622,1,WALK
1759737463.99511,0.13228,-1.970578,-9.438541,-0.055909,-0.342034,-1.665969,1,WALK
1759737464.01510,0.365714,-1.979705,-9.656713,-0.112532,-0.341777,-1.580873,1,WALK
1759737464.03510,0.534057,-1.885135,-9.579799,-0.058166,-0.482479,-1.620037,1,WALK
1759737464.05508,0.719907,-1.757045,-9.464429,-0.045269,-0.525348,-1.675909,1,WALK
1759737464.07511,0.744297,-1.951723,-9.586234,-0.14382,-0.522702,-1.629809,1,WALK
1759737464.09511,0.799963,-1.923741,-9.828497,-0.171674,-0.542203,-1.535807,1,WALK
1759737464.11511,0.910395,-1.720982,-9.931597,-0.130102,-0.529488,-1.428671,1,WALK
1759737464.13510,0.867748,-1.697938,-10.111462,-0.067064,-0.467779,-1.334306,1,WALK
1759737464.15508,0.696713,-1.716044,-10.010905,0.044317,-0.421946,-1.279261,1,WALK
1759737464.17486,0.718709,-1.785326,-9.785401,0.102325,-0.359467,-1.235213,1,WALK
1759737464.19510,0.877475,-1.951574,-9.671827,0.096191,-0.295506,-1.17545,1,WALK
1759737464.21492,1.130961,-1.85386,-9.540145,0.042862,-0.251393,-1.062049,1,WALK
1759737464.23511,1.244686,-1.879448,-9.442432,-0.033455,-0.276963,-0.949893,1,WALK
1759737464.25464,1.241992,-1.802385,-9.389011,-0.110886,-0.320485,-0.887427,1,WALK
1759737464.27510,1.12737,-1.691503,-9.405023,-0.128148,-0.325664,-0.884765,1,WALK
1759737464.29510,1.003769,-1.617283,-9.360281,-0.113327,-0.257319,-0.883713,1,WALK
1759737464.31491,0.969652,-1.645415,-9.347263,-0.091152,-0.201475,-0.888708,1,WALK
1759737464.33510,0.932841,-1.641674,-9.368361,-0.084448,-0.19899,-0.869209,1,WALK
1759737464.35508,0.774075,-1.651999,-9.35265,-0.094459,-0.175116,-0.88596,1,WALK
1759737464.37510,0.723647,-1.756446,-9.371055,-0.114474,-0.140921,-0.910473,1,WALK
1759737464.39510,0.761805,-1.842937,-9.511265,-0.114006,-0.128125,-0.924847,1,WALK
1759737464.41491,0.843657,-1.983147,-9.558551,-0.099395,-0.174909,-0.922077,1,WALK
1759737464.43510,0.787543,-2.158672,-9.461286,-0.087966,-0.241231,-0.912341,1,WALK
1759737464.45508,0.769586,-2.294244,-9.495105,-0.08325,-0.258938,-0.875202,1,WALK
1759737464.47511,0.761206,-2.343026,-9.481787,-0.050849,-0.251826,-0.821887,1,WALK
1759737464.49417,0.630423,-2.35754,-9.462184,-0.024604,-0.214358,-0.79036,1,WALK
1759737464.51491,0.603339,-2.418443,-9.349058,-0.021997,-0.251668,-0.78621,1,WALK
1759737464.53510,0.591667,-2.468422,-9.277232,-0.046801,-0.320092,-0.768362,1,WALK
1759737464.55508,0.552911,-2.457049,-9.35265,-0.069939,-0.283639,-0.717285,1,WALK
1759737464.57510,0.570119,-2.390311,-9.501539,-0.074172,-0.243336,-0.640392,1,WALK
1759737464.59510,0.472855,-2.233042,-9.656414,-0.062025,-0.241319,-0.617166,1,WALK
1759737464.61491,0.457143,-2.084153,-9.808595,-0.048757,-0.26856,-0.618095,1,WALK
1759737464.63510,0.421978,-2.007987,-9.755025,-0.006563,-0.332337,-0.643947,1,WALK
1759737464.65508,0.375141,-1.938256,-9.816376,0.004634,-0.292651,-0.657013,1,WALK
1759737464.67510,0.329203,-1.952771,-9.859771,0.038001,-0.255248,-0.674186,1,WALK
1759737464.69509,0.33025,-1.84997,-9.992201,0.123115,-0.169977,-0.685377,1,WALK
1759737464.71510,0.331896,-1.816601,-9.967062,0.220254,-0.148168,-0.691444,1,WALK
1759737464.73510,0.14859,-2.019808,-9.744251,0.267084,-0.272866,-0.742084,1,WALK
1759737464.75466,-0.155623,-2.428918,-9.660454,0.209397,-0.30721,-0.822956,1,WALK
1759737464.77511,0.05776,-2.439542,-9.431209,0.063101,-0.159486,-0.810428,1,WALK
1759737464.79510,0.354342,-2.455254,-9.773131,-0.166779,0.087725,-0.642373,1,WALK
1759737464.81509,0.418836,-2.003498,-10.363152,-0.243058,0.16384,-0.465267,1,WALK
1759737464.83509,0.320075,-1.44116,-10.266486,-0.130924,0.024188,-0.375658,1,WALK
1759737464.85508,0.187047,-1.195904,-9.925911,-0.098814,-0.153388,-0.366212,1,WALK
1759737464.87510,-0.205004,-1.089511,-9.37704,-0.087355,-0.327613,-0.486457,1,WALK
1759737464.89509,-0.874183,-1.132607,-8.84044,-0.008011,-0.408604,-0.702002,1,WALK
1759737464.91510,-1.276558,-1.33791,-8.65893,0.074628,-0.193294,-0.938443,1,WALK
1759737464.93509,-1.190816,-1.708263,-8.786421,0.042649,0.233837,-1.002648,1,WALK
1759737464.95466,-0.534655,-1.906233,-9.315539,-0.078657,0.601664,-0.904617,1,WALK
1759737464.97510,0.235829,-1.712153,-10.038738,-0.165862,0.707435,-0.706142,1,WALK
1759737464.99509,0.593014,-1.440561,-10.473136,-0.153582,0.501826,-0.47787,1,WALK
1759737465.01509,0.434099,-1.384447,-10.449792,-0.071325,0.137296,-0.326661,1,WALK
1759737465.03466,0.004339,-1.25112,-9.939379,-0.003768,-0.092306,-0.319464,1,WALK
1759737465.05507,-0.523432,-1.367987,-9.567679,-0.018267,-0.084743,-0.409583,1,WALK
1759737465.07509,-0.632069,-1.463306,-9.047538,-0.028397,-0.144176,-0.505777,1,WALK
1759737465.09509,-0.445022,-1.551592,-8.753949,-0.033773,-0.200669,-0.557588,1,WALK
1759737465.11509,-0.314987,-1.751508,-8.643218,-0.013428,-0.167894,-0.576477,1,WALK
1759737465.13510,-0.199317,-1.954267,-8.647407,0.00284,-0.028371,-0.556397,1,WALK
1759737465.15507,-0.090082,-2.193388,-8.749011,0.014134,0.086941,-0.519847,1,WALK
1759737465.17509,0.109385,-2.224213,-8.978107,0.02433,0.14726,-0.43493,1,WALK
1759737465.19509,0.147393,-2.248155,-9.363124,0.040148,0.165966,-0.355043,1,WALK
1759737465.21509,0.203358,-2.19653,-9.679757,0.078776,0.138215,-0.32869,1,WALK
1759737465.23510,0.288651,-2.155679,-10.027365,0.11845,0.153897,-0.290444,1,WALK
1759737465.25507,0.285359,-2.22556,-10.238205,0.149474,0.168377,-0.20971,1,WALK
1759737465.27508,0.497096,-2.19653,-10.307337,0.095738,0.080984,-0.094564,1,WALK
1759737465.29508,0.533907,-2.137424,-10.351929,-0.004324,-0.000624,0.006752,1,WALK
1759737465.31508,0.584036,-1.91611,-10.405949,-0.067822,-0.051901,0.086285,1,WALK
1759737465.33508,0.404022,-1.799691,-10.458771,-0.014333,-0.073133,0.101596,1,WALK
1759737465.35507,-0.026785,-2.10585,-10.230873,0.083469,-0.121856,0.050121,1,WALK
1759737465.37509,-0.018854,-2.287211,-10.251074,0.059622,-0.019528,0.047321,1,WALK
1759737465.39510,0.514903,-2.082357,-10.282198,-0.127084,0.273695,0.154381,1,WALK
1759737465.41441,0.85488,-1.968632,-10.59958,-0.361727,0.317713,0.297538,1,WALK
1759737465.43509,1.162684,-1.244386,-10.858752,-0.475253,0.147777,0.385353,1,WALK
1759737465.45507,1.044022,-0.759411,-10.754006,-0.36278,-0.082563,0.281026,1,WALK
1759737465.47509,0.773177,-0.529119,-10.114903,-0.019572,-0.316195,0.021248,1,WALK
1759737465.49509,0.464625,-0.663643,-9.135675,0.311951,-0.414567,-0.261916,1,WALK
1759737465.51509,0.264709,-1.260398,-8.427141,0.456345,-0.199972,-0.443727,1,WALK
1759737465.53509,0.642544,-1.538424,-8.306683,0.363467,0.166239,-0.401678,1,WALK
1759737465.55507,1.162684,-1.80852,-8.985738,0.172926,0.543398,-0.208553,1,WALK
1759737465.57513,1.997363,-1.324592,-9.602245,0.052617,0.604061,0.086223,1,WALK
1759737465.59509,2.192041,-0.931943,-10.118644,-0.03169,0.362107,0.327592,1,WALK
1759737465.61509,1.677587,-0.860117,-10.219949,0.011663,-0.033623,0.373875,1,WALK
1759737465.63509,1.039084,-0.821062,-9.772682,0.11646,-0.282014,0.18708,1,WALK
1759737465.65509,0.665139,-1.240945,-9.108591,0.147386,-0.314549,-0.083535,1,WALK
1759737465.67508,0.731578,-1.756297,-8.567501,0.108811,-0.296557,-0.184185,1,WALK
1759737465.69510,0.915932,-2.183362,-8.593688,0.028112,-0.213991,-0.209249,1,WALK
1759737465.71509,1.19336,-2.511518,-8.649502,0.017378,-0.222327,-0.198411,1,WALK
1759737465.73507,1.312471,-2.561646,-8.887127,0.034891,-0.199586,-0.10648,1,WALK
1759737465.75507,1.210718,-2.67552,-8.950723,0.09421,-0.126672,-0.04781,1,WALK
1759737465.77509,1.183783,-2.570475,-8.888025,0.162734,-0.089893,-0.030437,1,WALK
1759737465.79407,1.202637,-2.642002,-8.861838,0.198268,-0.12041,-0.026038,1,WALK
1759737465.81410,1.167772,-2.721908,-8.922441,0.170947,-0.121365,0.024075,1,WALK
1759737465.83508,1.055693,-2.695871,-9.175329,0.115177,-0.047786,0.090479,1,WALK
1759737465.85506,1.029357,-2.478597,-9.524134,0.096047,-0.034919,0.128383,1,WALK
1759737465.87511,0.918476,-2.283919,-9.659257,0.085153,-0.129831,0.125383,1,WALK
1759737465.89508,0.815525,-2.144307,-9.850195,0.074561,-0.187364,0.091492,1,WALK
1759737465.91411,0.779911,-1.978209,-9.887155,0.083118,-0.18954,0.058461,1,WALK
1759737465.93484,0.702399,-1.986738,-9.939827,0.088423,-0.199729,0.034628,1,WALK
1759737465.95506,0.20635,-2.44867,-9.717765,0.138461,-0.338901,-0.052829,1,WALK
1759737465.97509,0.043245,-2.595614,-9.714473,0.110521,-0.08804,-0.061965,1,WALK
1759737465.99509,0.136619,-2.791938,-9.980379,-0.0539,0.306822,0.072227,1,WALK
1759737466.01413,0.283414,-2.488623,-10.385897,-0.308655,0.488411,0.282429,1,WALK
1759737466.03508,0.598999,-1.747917,-10.468647,-0.459721,0.192404,0.352128,1,WALK
1759737466.05506,0.383671,-1.286285,-10.401011,-0.359469,-0.21075,0.189794,1,WALK
1759737466.07509,-0.138116,-1.068412,-9.679458,-0.070785,-0.510382,-0.144189,1,WALK
1759737466.09509,-0.700154,-1.533486,-8.866327,0.137629,-0.485988,-0.414174,1,WALK
1759737466.11415,-0.938377,-1.836203,-8.434024,0.184736,-0.148599,-0.495659,1,WALK
1759737466.13508,-1.071555,-2.185457,-8.327931,0.152489,0.22915,-0.479529,1,WALK
1759737466.15508,-0.726341,-2.145354,-8.515128,0.069105,0.539919,-0.416292,1,WALK
1759737466.17507,0.110283,-1.803582,-9.039458,-0.082373,0.8228,-0.325978,1,WALK
1759737466.19508,0.713023,-1.583315,-9.650877,-0.268855,0.827779,-0.169307,1,WALK
1759737466.21416,0.996138,-1.30065,-10.067917,-0.34603,0.423175,-0.017359,1,WALK
1759737466.23508,0.806996,-0.954389,-10.100389,-0.259766,-0.069016,0.025124,1,WALK
1759737466.25498,0.116268,-0.930297,-9.808745,-0.122269,-0.197204,-0.107677,1,WALK
1759737466.27473,-0.384569,-1.31726,-9.407417,-0.006426,-0.139269,-0.290927,1,WALK
1759737466.29508,-0.149787,-1.492186,-8.746916,0.091909,-0.105176,-0.390195,1,WALK
1759737466.31418,0.110732,-1.826926,-8.532037,0.083302,-0.018021,-0.392065,1,WALK
1759737466.33508,0.44592,-2.0231,-8.489091,0.008841,0.049491,-0.313929,1,WALK
1759737466.35506,0.559794,-2.239327,-8.713996,-0.064794,0.093262,-0.18164,1,WALK
1759737466.37508,0.604985,-2.233491,-9.081656,-0.106819,0.139777,-0.037101,1,WALK
1759737466.39420,0.794276,-2.164508,-9.584438,-0.148808,0.143709,0.082271,1,WALK
1759737466.41420,0.855628,-2.098069,-10.294319,-0.152586,0.16035,0.16112,1,WALK
1759737466.43510,1.057489,-1.918803,-10.736348,-0.0732,0.097899,0.231806,1,WALK
1759737466.45505,1.112855,-1.834707,-10.796802,0.041531,-0.06469,0.29228,1,WALK
1759737466.47506,0.904559,-1.921945,-10.362404,0.051945,-0.221032,0.373813,1,WALK
1759737466.49494,0.360028,-2.424129,-10.144382,-0.066388,-0.197893,0.407698,1,WALK
1759737466.51418,0.888249,-2.032378,-10.372579,-0.34695,0.175191,0.534892,1,WALK
1759737466.53503,1.15206,-1.998111,-11.281179,-0.555126,0.456758,0.67298,1,WALK
1759737466.55500,1.736245,-1.086668,-11.596016,-0.475371,0.293579,0.804656,1,WALK
1759737466.57501,1.578677,-0.564134,-11.533618,-0.190771,0.119802,0.777809,1,WALK
1759737466.59500,0.977134,-0.394445,-10.972776,0.192246,0.039597,0.566695,1,WALK
1759737466.61413,0.420631,-0.657208,-9.647735,0.565575,-0.12399,0.214141,1,WALK
1759737466.63498,0.36317,-1.231667,-8.30788,0.665299,-0.257885,-0.070585,1,WALK
1759737466.65496,0.773776,-1.66831,-7.971644,0.457301,-0.082703,-0.167272,1,WALK
1759737466.67493,1.307533,-1.983895,-8.325238,0.168983,0.200655,-0.053549,1,WALK
1759737466.69494,1.857452,-1.815852,-8.953267,0.003485,0.34758,0.236513,1,WALK
1759737466.71409,2.190395,-1.430087,-9.418041,-0.082925,0.265993,0.501408,1,WALK
1759737466.73491,1.906832,-1.268628,-9.565135,-0.128993,-0.022399,0.581037,1,WALK
1759737466.75481,1.181838,-1.186776,-9.364621,-0.098005,-0.297529,0.48468,1,WALK
1759737466.77488,0.6608,-1.268179,-9.210195,-0.039711,-0.292125,0.272201,1,WALK
1759737466.79488,0.620697,-1.603517,-8.98514,0.03113,-0.17891,0.096246,1,WALK
1759737466.81405,0.842759,-1.945738,-8.614786,0.065578,-0.160062,0.044026,1,WALK
1759737466.83485,1.110461,-2.167351,-8.444649,-0.014328,-0.139431,0.067623,1,WALK
1759737466.85481,1.138144,-2.353351,-8.576479,-0.09482,-0.123856,0.105029,1,WALK
1759737466.87483,1.336114,-2.320879,-8.974515,-0.082416,-0.183269,0.145149,1,WALK
1759737466.89482,1.287332,-2.197727,-9.031677,-0.012439,-0.257064,0.133959,1,WALK
1759737466.91400,1.099836,-2.371008,-8.911817,0.010079,-0.266615,0.081508,1,WALK
1759737466.93479,0.96217,-2.527978,-8.880094,-0.031358,-0.227307,0.065185,1,WALK
1759737466.95476,0.880019,-2.645742,-9.219023,-0.062815,-0.181091,0.09002,1,WALK
1759737466.97478,0.824204,-2.416049,-9.526678,-0.061659,-0.159141,0.110566,1,WALK
1759737466.99476,0.534506,-2.318934,-9.994595,-0.000696,-0.173378,0.038873,1,WALK
1759737467.01396,0.263961,-2.244564,-10.253318,0.165395,-0.202881,-0.122183,1,WALK
1759737467.03474,-0.223708,-2.776226,-9.994894,0.311821,-0.127672,-0.299458,1,WALK
1759737467.05470,0.462979,-2.805107,-9.985168,0.192329,0.45644,-0.268491,1,WALK
1759737467.07471,1.212214,-2.892944,-10.933421,-0.210943,0.950907,0.079803,1,WALK
1759737467.09389,1.616385,-2.268057,-11.673379,-0.46579,0.731104,0.421275,1,WALK
1759737467.11390,1.394323,-1.361403,-12.10254,-0.375607,0.199942,0.538555,1,WALK
1759737467.13467,0.571316,-0.647931,-11.434707,-0.030876,-0.293309,0.333642,1,WALK
1759737467.15464,-0.403124,-0.679055,-10.262745,0.273711,-0.451639,-0.12734,1,WALK
1759737467.17465,-0.710779,-1.118391,-9.01791,0.447131,-0.485912,-0.507017,1,WALK
1759737467.19463,-0.474351,-1.664419,-8.344691,0.440923,-0.3653,-0.648104,1,WALK
1759737467.21388,-0.38382,-1.837699,-8.286781,0.370696,-0.204705,-0.628377,1,WALK
1759737467.23466,-0.155773,-2.281525,-8.43567,0.121756,0.232573,-0.333537,1,WALK
1759737467.25458,0.174477,-1.97372,-8.78672,-0.015135,0.38469,-0.089545,1,WALK
1759737467.27459,0.276081,-1.520468,-9.08839,-0.091791,0.385954,-0.003268,1,WALK
1759737467.29443,0.261716,-1.331924,-9.359383,-0.125704,0.254662,0.003261,1,WALK
1759737467.31383,0.197971,-1.261595,-9.352051,-0.121277,0.152503,-0.015479,1,WALK
1759737467.33408,0.025139,-1.189619,-9.325116,-0.124434,0.028451,-0.064301,1,WALK
1759737467.35424,-0.186149,-1.353622,-9.257181,-0.102822,-0.043787,-0.134991,1,WALK
1759737467.37453,-0.143203,-1.419612,-9.113229,-0.022548,-0.074539,-0.208262,1,WALK
1759737467.39452,-0.061351,-1.667711,-8.967782,0.06525,-0.019866,-0.25513,1,WALK
1759737467.41378,0.14051,-1.916708,-8.912565,0.12717,0.056661,-0.256812,1,WALK
1759737467.43449,0.44188,-2.077568,-8.780136,0.131663,0.102086,-0.217289,1,WALK
1759737467.45447,0.551863,-2.36173,-8.804527,0.051277,0.095617,-0.140145,1,WALK
1759737467.47360,0.64,-2.42398,-8.981848,-0.028005,0.038817,-0.013828,1,WALK
1759737467.49447,0.727089,-2.329708,-9.412056,-0.069865,0.023571,0.120566,1,WALK
1759737467.51376,0.482881,-2.267908,-9.749488,-0.070725,-0.006123,0.226827,1,WALK
1759737467.53445,0.351648,-2.020856,-10.059388,-0.043856,0.027953,0.279943,1,WALK
1759737467.55442,0.263512,-1.822436,-10.150517,0.006792,0.064709,0.273786,1,WALK
1759737467.57442,0.348805,-1.819444,-10.108768,0.02977,0.040521,0.285737,1,WALK
1759737467.59442,0.216825,-2.042553,-10.019584,0.016862,0.002422,0.285352,1,WALK
1759737467.61372,0.396839,-2.360234,-10.006267,-0.093759,0.147035,0.25132,1,WALK
1759737467.63437,1.572542,-2.000954,-10.482563,-0.430828,0.444633,0.448653,1,WALK
1759737467.65436,1.760486,-1.938406,-11.011831,-0.625518,0.277011,0.656773,1,WALK
1759737467.67353,1.814356,-1.027861,-11.214141,-0.609673,-0.100199,0.793717,1,WALK
1759737467.69434,1.080982,-0.717961,-10.947637,-0.340652,-0.357813,0.625514,1,WALK
1759737467.71368,0.456993,-0.663792,-9.869199,0.045951,-0.535109,0.225194,1,WALK
1759737467.73431,0.047734,-1.15206,-8.722077,0.35327,-0.65739,-0.155288,1,WALK
1759737467.75430,0.156072,-1.685219,-7.865252,0.440521,-0.486477,-0.363671,1,WALK
1759737467.77430,0.61516,-2.088791,-8.029853,0.245774,0.049981,-0.330073,1,WALK
1759737467.79429,1.301548,-2.297685,-8.707412,0.058853,0.572115,-0.134647,1,WALK
1759737467.81364,2.32058,-1.755099,-9.403077,-0.065545,0.761803,0.241868,1,WALK
1759737467.83426,2.659958,-1.481861,-9.920674,-0.186266,0.557688,0.540246,1,WALK
1759737467.85424,2.239177,-1.185429,-9.946711,-0.221717,-0.024645,0.688023,1,WALK
1759737467.87426,1.228525,-0.966958,-9.553314,-0.166611,-0.446157,0.561189,1,WALK
1759737467.89425,0.312144,-1.113453,-8.986337,-0.077483,-0.451421,0.224523,1,WALK
1759737467.91360,0.159963,-1.56476,-8.611046,-0.022008,-0.256299,0.012582,1,WALK
1759737467.93426,0.439635,-2.010232,-8.482656,-0.033257,-0.074056,-0.052783,1,WALK
1759737467.95418,0.820912,-2.333598,-8.76188,-0.06786,0.014492,-0.023394,1,WALK
1759737467.97419,1.286434,-2.380136,-9.025691,-0.075589,-0.021112,0.0422,1,WALK
1759737467.99419,1.38729,-2.449268,-9.483283,-0.080852,-0.084308,0.104567,1,WALK
1759737468.01354,1.250821,-2.323872,-9.627384,-0.003383,-0.189516,0.109766,1,WALK
1759737468.03416,1.044171,-2.230648,-9.621099,0.081875,-0.246195,0.077105,1,WALK
1759737468.05413,0.749086,-2.278532,-9.682451,0.114976,-0.202186,0.021689,1,WALK
1759737468.07351,0.592715,-2.304569,-9.762657,0.138942,-0.130663,-0.028753,1,WALK
1759737468.09413,0.506224,-2.259378,-9.911696,0.151089,-0.104387,-0.077248,1,WALK
1759737468.11356,0.277428,-2.422932,-10.05864,0.187117,-0.14178,-0.173981,1,WALK
1759737468.13411,0.061351,-2.827253,-10.097695,0.201901,-0.016204,-0.276611,1,WALK
1759737468.15408,1.082927,-2.406771,-10.551845,-0.034558,0.549539,-0.105003,1,WALK
1759737468.17331,1.315165,-2.523339,-11.562198,-0.348757,0.768628,0.191529,1,WALK
1759737468.19407,1.540669,-1.600823,-12.213122,-0.428912,0.479464,0.411782,1,WALK
1759737468.21347,0.987159,-1.095796,-11.930905,-0.201369,-0.154947,0.371918,1,WALK
1759737468.23406,0.139612,-0.672022,-10.687118,0.067245,-0.53221,0.060246,1,WALK
1759737468.25402,-0.572364,-0.95798,-9.482535,0.204517,-0.510365,-0.325021,1,WALK
1759737468.27343,-0.597503,-1.386392,-8.536227,0.313143,-0.489515,-0.557731,1,WALK
1759737468.29401,-0.424223,-1.642422,-7.9691,0.363233,-0.408794,-0.634875,1,WALK
1759737468.31345,-0.492906,-2.033276,-7.973739,0.299401,-0.067997,-0.599692,1,WALK
1759737468.33400,-0.389058,-2.204461,-8.188768,0.223095,0.290952,-0.454436,1,WALK
1759737468.35396,-0.096816,-1.970129,-8.432229,0.150514,0.500995,-0.258903,1,WALK
1759737468.37401,0.083498,-1.667262,-8.598476,0.029598,0.500489,-0.169959,1,WALK
1759737468.39396,-0.00419,-1.451335,-8.916007,-0.133646,0.438614,-0.122116,1,WALK
1759737468.41340,0.011971,-1.291522,-9.375544,-0.24782,0.37941,-0.073789,1,WALK
1759737468.43390,0.006584,-1.148768,-10.035296,-0.280313,0.324669,-0.00129,1,WALK
1759737468.45391,-0.166547,-0.956334,-10.334422,-0.140763,0.145673,-0.00479,1,WALK
1759737468.47321,-0.391602,-0.889446,-10.187627,0.065522,-0.029889,-0.136754,1,WALK
1759737468.49392,-0.331747,-1.054047,-9.697564,0.183875,-0.056761,-0.314832,1,WALK
1759737468.51337,0.101903,-1.531391,-9.304167,0.202748,0.010398,-0.389075,1,WALK
1759737468.53389,0.661249,-1.838897,-9.048736,0.182539,-0.03092,-0.327496,1,WALK
1759737468.55386,0.867599,-2.095076,-9.103204,0.130574,-0.045058,-0.185453,1,WALK
1759737468.57387,0.880019,-2.252644,-9.177424,0.085343,-0.035754,-0.015347,1,WALK
1759737468.59386,0.750881,-2.330306,-9.384822,0.084295,-0.041333,0.13288,1,WALK
1759737468.61334,0.601992,-2.226308,-9.55885,0.113279,0.012237,0.201331,1,WALK
1759737468.63384,0.622343,-2.1057,-9.63726,0.097571,0.104864,0.235394,1,WALK
1759737468.65380,0.748487,-2.096872,-9.769989,0.032886,0.068323,0.289175,1,WALK
1759737468.67313,0.729783,-1.958607,-9.7242,-0.00737,-0.076702,0.325736,1,WALK
1759737468.69381,0.47914,-1.952471,-9.85214,-0.019883,-0.098813,0.338307,1,WALK
1759737468.71330,0.023643,-2.441936,-9.658658,0.010743,-0.229464,0.25366,1,WALK
1759737468.73379,0.329652,-2.318036,-9.580697,-0.113444,0.077361,0.229397,1,WALK
1759737468.75282,1.486799,-2.074875,-10.357466,-0.539882,0.666446,0.472065,1,WALK
1759737468.77378,1.750461,-1.697938,-11.303625,-0.765265,0.73696,0.760542,1,WALK
1759737468.79377,1.893065,-0.666935,-11.995848,-0.628105,0.282057,0.901993,1,WALK
1759737468.81327,1.217302,-0.186299,-11.3138,-0.148984,-0.324825,0.622933,1,WALK
1759737468.83374,0.349553,-0.401029,-9.820716,0.336697,-0.650763,0.043652,1,WALK
1759737468.85370,0.005986,-1.207276,-8.624812,0.537789,-0.512365,-0.341969,1,WALK
1759737468.87371,0.40447,-1.693449,-8.240543,0.399978,0.018306,-0.380804,1,WALK
1759737468.89371,1.295562,-2.051083,-8.768764,0.10966,0.549357,-0.09573,1,WALK
1759737468.91323,2.27105,-1.65559,-9.373898,-0.071675,0.584936,0.33837,1,WALK
1759737468.93368,2.540847,-1.065569,-9.927258,-0.14458,0.219421,0.613404,1,WALK
1759737468.95365,1.691653,-0.83423,-9.757419,-0.09443,-0.291276,0.644582,1,WALK
1759737468.97366,0.497994,-0.841263,-9.416395,-0.040644,-0.416584,0.416155,1,WALK
1759737468.99365,-0.045789,-1.017386,-8.997559,0.021273,-0.261878,0.092755,1,WALK
1759737469.01319,0.186598,-1.434276,-8.686762,0.044118,-0.1139,-0.061799,1,WALK
1759737469.03363,0.777517,-1.724873,-8.547001,-0.009716,-0.117482,-0.037658,1,WALK
1759737469.05360,0.902464,-1.917905,-8.788965,-0.095035,-0.124761,0.050515,1,WALK
1759737469.07360,0.822857,-1.950676,-8.92723,-0.10861,-0.160568,0.049679,1,WALK
1759737469.09359,0.76794,-1.885284,-9.024644,-0.073829,-0.172166,-0.033039,1,WALK
1759737469.11320,0.816572,-2.119766,-9.11697,-0.011013,-0.19823,-0.138537,1,WALK
1759737469.13357,0.992995,-2.255338,-9.178172,0.065599,-0.186372,-0.160715,1,WALK
1759737469.15285,1.072453,-2.451962,-9.248651,0.089398,-0.115253,-0.1061,1,WALK
1759737469.17293,1.122432,-2.552518,-9.258079,0.069201,-0.096946,0.009541,1,WALK
1759737469.19327,1.066766,-2.459893,-9.41445,0.005961,-0.049216,0.0831,1,WALK
1759737469.21311,1.020828,-2.265214,-9.669732,-0.042488,0.010237,0.089071,1,WALK
1759737469.23351,1.21805,-1.92823,-9.720908,-0.056024,-0.040615,0.10121,1,WALK
1759737469.25349,1.165976,-1.899649,-9.84376,-0.05132,-0.127252,0.115192,1,WALK
1759737469.27350,1.064971,-1.867028,-9.799767,-0.033833,-0.176812,0.117763,1,WALK
1759737469.29347,0.565181,-2.004545,-9.689184,0.020665,-0.215205,0.114375,1,WALK
1759737469.31309,0.35928,-2.064849,-9.729587,0.059956,-0.204847,0.09617,1,WALK
1759737469.33254,0.231789,-2.020856,-9.756821,0.176369,-0.13837,0.054939,1,WALK
1759737469.35294,-0.119112,-2.285116,-9.548226,0.328624,-0.158041,-0.011884,1,WALK
1759737469.37282,-0.509516,-2.986168,-9.132084,0.353459,-0.238142,-0.08446,1,WALK
1759737469.39344,-0.497096,-3.244742,-8.903288,0.173869,-0.116816,-0.1028,1,WALK
1759737469.41305,0.462231,-2.752284,-9.701006,-0.383156,0.498367,0.140968,1,WALK
1759737469.43342,0.962918,-2.316839,-10.830321,-0.810941,0.601713,0.420334,1,WALK
1759737469.45339,1.119888,-1.027561,-11.506533,-0.609017,0.020881,0.492239,1,WALK
1759737469.47341,0.360028,-0.341473,-10.671256,-0.106827,-0.683463,0.22581,1,WALK
1759737469.49339,-0.776021,-0.733823,-9.455151,0.171403,-0.799775,-0.254401,1,WALK
1759737469.51302,-1.463905,-1.581819,-8.73704,0.227078,-0.410644,-0.608659,1,WALK
1759737469.53337,-1.138443,-1.921496,-8.798242,0.129119,0.178413,-0.702734,1,WALK
1759737469.55334,-0.085443,-1.952471,-9.59626,0.065183,0.745404,-0.606171,1,WALK
1759737469.57271,1.504905,-1.548899,-10.625916,0.056994,1.053279,-0.298382,1,WALK
1759737469.59334,2.330007,-1.177498,-11.190199,0.060416,0.855597,0.123665,1,WALK
1759737469.61300,2.172588,-0.800412,-11.109395,0.124795,0.26927,0.429035,1,WALK
1759737469.63332,1.202488,-0.622941,-10.284742,0.168272,-0.276598,0.440792,1,WALK
1759737469.65329,0.575357,-0.61516,-9.492561,0.118184,-0.398434,0.262545,1,WALK
1759737469.67278,0.291943,-0.981323,-9.006987,0.107479,-0.234396,0.146344,1,WALK
1759737469.69329,0.591817,-1.22643,-8.72477,0.153357,-0.089704,0.182395,1,WALK
1759737469.71296,0.873584,-1.407192,-8.502409,0.222657,-0.057337,0.285388,1,WALK
1759737469.73327,1.108815,-1.502212,-8.257302,0.203536,0.00496,0.426944,1,WALK
1759737469.75324,0.983718,-1.791611,-8.34095,0.08968,0.128915,0.569205,1,WALK
1759737469.77325,0.974889,-1.830666,-8.423999,-0.027296,0.187907,0.684741,1,WALK
1759737469.79248,1.030405,-1.801487,-8.967033,-0.131072,0.266689,0.801425,1,WALK
1759737469.81293,0.961272,-1.675193,-9.522638,-0.121463,0.305381,0.903307,1,WALK
1759737469.83323,0.981473,-1.442656,-9.929951,-0.037373,0.301184,0.986512,1,WALK
1759737469.85319,1.035791,-1.359757,-10.01719,0.014006,0.255266,1.037924,1,WALK
1759737469.87320,0.994342,-1.401356,-9.827899,-0.042951,0.199794,1.111377,1,WALK
1759737469.89320,0.841412,-1.474379,-9.699958,-0.134933,0.131284,1.178497,1,WALK
1759737469.91289,0.317082,-1.826926,-9.649979,-0.16438,0.045087,1.18973,1,WALK
1759737469.93317,0.660051,-1.590049,-9.898079,-0.31303,0.272699,1.280302,1,WALK
1759737469.95314,1.248576,-1.436371,-10.168025,-0.492684,0.315534,1.432873,1,WALK
1759737469.97316,1.278504,-1.045668,-10.688315,-0.529884,0.118584,1.601295,1,WALK
1759737469.99314,0.930896,-0.725293,-10.584317,-0.471624,-0.131027,1.658318,1,WALK
1759737470.01286,0.419733,-0.583437,-10.263793,-0.390846,-0.21363,1.555172,1,WALK
1759737470.03313,0.089783,-0.634463,-9.893889,-0.279458,-0.178232,1.402474,1,WALK
1759737470.05309,0.039804,-0.828843,-9.575759,-0.103861,-0.074811,1.274785,1,WALK
1759737470.07246,0.350152,-0.956484,-9.186701,0.063689,0.080542,1.245899,1,WALK
1759737470.09311,0.686088,-1.192312,-9.185654,0.11304,0.342417,1.32084,1,WALK
1759737470.11283,0.994791,-1.209221,-9.418789,0.130739,0.525558,1.45001,1,WALK
1759737470.13308,1.254412,-1.095946,-9.296236,0.114091,0.392586,1.578219,1,WALK
1759737470.15305,1.266233,-1.133206,-9.250447,-0.029412,0.212982,1.65138,1,WALK
1759737470.17263,1.099836,-0.970549,-9.280075,-0.188563,0.172099,1.691227,1,WALK
1759737470.19305,0.84665,-0.876577,-9.81892,-0.293066,0.279135,1.706613,1,WALK
1759737470.21280,0.643891,-0.805798,-10.108768,-0.285649,0.205382,1.667637,1,WALK
1759737470.23305,0.38382,-0.898574,-10.275914,-0.207906,0.032984,1.557677,1,WALK
1759737470.25300,0.125546,-0.906804,-10.005219,-0.102263,-0.075615,1.376454,1,WALK
1759737470.27301,-0.092476,-1.198298,-9.634267,-0.038046,-0.023827,1.200759,1,WALK
1759737470.29258,0.045191,-1.454178,-9.442582,-0.04374,0.143574,1.085764,1,WALK
1759737470.31277,0.240617,-1.671901,-9.369559,-0.062641,0.203002,1.032614,1,WALK
1759737470.33298,0.431704,-1.66801,-9.498397,-0.065578,0.16087,1.013471,1,WALK
1759737470.35295,0.480935,-1.623718,-9.700707,-0.046373,0.127878,0.970311,1,WALK
1759737470.37296,0.483329,-1.584961,-9.879524,-0.000441,0.141231,0.90381,1,WALK
1759737470.39279,0.601543,-1.596035,-9.991004,0.0414,0.14103,0.831342,1,WALK
1759737470.41273,0.738162,-1.638083,-9.895834,0.06475,0.079484,0.785397,1,WALK
1759737470.43293,0.762254,-1.67624,-9.805603,0.05496,0.017814,0.774985,1,WALK
1759737470.45290,0.740706,-1.534234,-9.790938,0.042638,0.007452,0.768313,1,WALK
1759737470.47292,0.622642,-1.418116,-9.891644,0.049742,0.019373,0.743369,1,WALK
1759737470.49252,0.391901,-1.244835,-9.917831,0.125297,0.05311,0.678156,1,WALK
1759737470.51270,0.223858,-1.237204,-9.844957,0.20868,0.090309,0.580054,1,WALK
1759737470.53289,0.055366,-1.251719,-9.780015,0.255777,0.221157,0.474316,1,WALK
1759737470.55285,-0.001945,-1.448342,-9.717915,0.285766,0.256992,0.386296,1,WALK
1759737470.57287,0.177021,-1.617134,-9.538799,0.267186,0.203395,0.339333,1,WALK
1759737470.59286,0.274136,-1.837699,-9.473856,0.176784,0.247991,0.360052,1,WALK
1759737470.61268,0.543484,-1.790414,-9.596409,0.077877,0.35056,0.456601,1,WALK
1759737470.63284,0.744447,-1.609652,-9.932046,0.026271,0.408334,0.615274,1,WALK
1759737470.65280,0.577302,-1.341501,-10.069563,0.011526,0.318289,0.707458,1,WALK
1759737470.67247,0.213982,-1.248726,-9.899126,-0.035894,0.125417,0.711613,1,WALK
1759737470.69282,-0.034417,-1.173009,-9.780164,-0.100852,-0.009394,0.657901,1,WALK
1759737470.71265,-0.288202,-1.145775,-9.817723,-0.107008,-0.02118,0.599685,1,WALK
1759737470.73279,-0.530615,-1.116297,-9.887754,0.009395,0.033797,0.526122,1,WALK
1759737470.75276,-0.439037,-1.02801,-9.644293,0.175575,-0.00889,0.430776,1,WALK
1759737470.77278,-0.35913,-1.179893,-9.238775,0.237956,0.031894,0.350139,1,WALK
1759737470.79249,-0.113575,-1.418864,-9.035119,0.177336,0.151939,0.36769,1,WALK
1759737470.81262,0.074071,-1.540968,-9.039458,0.124458,0.173536,0.422635,1,WALK
1759737470.83274,0.113126,-1.49877,-9.079561,0.086428,0.136608,0.498565,1,WALK
1759737470.85263,0.11163,-1.487996,-9.345766,0.060918,0.136354,0.555948,1,WALK
1759737470.87273,0.081104,-1.373374,-9.347412,0.073385,0.142751,0.612698,1,WALK
1759737470.89272,0.100407,-1.46181,-9.42657,0.049956,0.249042,0.683106,1,WALK
1759737470.91259,0.390704,-1.311424,-9.46787,-0.030946,0.356534,0.814288,1,WALK
1759737470.93270,0.503231,-1.322796,-9.761759,-0.173883,0.34701,0.969514,1,WALK
1759737470.95267,0.486472,-1.054646,-10.150218,-0.21557,0.159213,1.057199,1,WALK
1759737470.97268,0.186,-0.897227,-10.258556,-0.147704,-0.005276,1.044669,1,WALK
1759737470.99268,-0.005836,-0.996437,-10.119991,-0.036609,-0.016189,0.97435,1,WALK
1759737471.01256,-0.013318,-1.274912,-9.804705,0.042737,0.056555,0.969807,1,WALK
1759737471.03265,0.217723,-1.507449,-9.512462,0.036251,0.108085,1.058834,1,WALK
1759737471.05262,0.175675,-1.633743,-9.444677,-0.012495,0.135089,1.158504,1,WALK
1759737471.07269,0.048183,-1.524508,-9.553164,-0.05477,0.190048,1.20594,1,WALK
1759737471.09256,0.014664,-1.499369,-9.725397,-0.051143,0.216702,1.197675,1,WALK
1759737471.11253,0.14859,-1.502212,-9.789292,-0.014917,0.198734,1.220482,1,WALK
1759737471.13261,0.174926,-1.5899,-9.777022,0.000421,0.226404,1.277406,1,WALK
1759737471.15258,0.203507,-1.627907,-9.787496,-0.003452,0.250385,1.354626,1,WALK
1759737471.17231,0.24346,-1.528249,-9.819668,-0.019374,0.257582,1.410546,1,WALK
1759737471.19264,0.214281,-1.454178,-9.850643,-0.048218,0.254219,1.449055,1,WALK
1759737471.21249,0.204854,-1.371878,-9.961226,-0.051675,0.223617,1.484813,1,WALK
1759737471.23254,0.028431,-1.256208,-10.089914,0.005208,0.228563,1.504995,1,WALK
1759737471.25253,-0.06599,-1.138293,-9.924564,0.08526,0.282382,1.506571,1,WALK
1759737471.27253,-0.024989,-1.187524,-9.800515,0.106149,0.379686,1.505919,1,WALK
1759737471.29256,-0.01631,-1.237353,-9.715521,0.113046,0.420323,1.523088,1,WALK
1759737471.31247,0.113126,-1.230919,-9.599701,0.111288,0.431096,1.545009,1,WALK
1759737471.33252,0.092775,-1.323545,-9.577405,0.125658,0.396507,1.577798,1,WALK
1759737471.35248,0.135572,-1.298256,-9.490316,0.14144,0.399465,1.623536,1,WALK
1759737471.37249,0.019154,-1.402853,-9.41026,0.147728,0.484681,1.661114,1,WALK
1759737471.39249,0.090231,-1.434426,-9.29444,0.114069,0.528217,1.735729,1,WALK
1759737471.41245,0.127042,-1.384148,-9.371504,0.034718,0.55462,1.824559,1,WALK
1759737471.43247,0.031723,-1.311873,-9.355044,-0.025567,0.439792,1.866717,1,WALK
1759737471.45221,-0.095918,-1.213262,-9.467272,-0.115818,0.437134,1.913838,1,WALK
1759737471.47245,0.1857,-1.045817,-9.703849,-0.228334,0.451339,1.956163,1,WALK
1759737471.49244,0.291344,-0.881964,-9.947758,-0.223705,0.293104,1.968158,1,WALK
1759737471.51242,0.18181,-0.78874,-9.877279,-0.149653,0.141781,1.916168,1,WALK
1759737471.53243,0.133626,-1.01978,-9.569923,-0.10613,0.10177,1.783285,1,WALK
1759737471.55240,0.21069,-1.28434,-9.266009,-0.098457,0.15483,1.730051,1,WALK
1759737471.57241,0.270844,-1.47408,-9.264513,-0.087549,0.257467,1.745814,1,WALK
1759737471.59240,0.233734,-1.479317,-9.29444,-0.044738,0.329369,1.750434,1,WALK
1759737471.61239,0.159214,-1.446696,-9.329306,-0.076815,0.356516,1.739701,1,WALK
1759737471.63238,0.218022,-1.419313,-9.56708,-0.192822,0.364469,1.65861,1,WALK
1759737471.65235,0.441431,-1.339406,-10.047866,-0.248415,0.314342,1.605193,1,WALK
1759737471.67219,0.525827,-1.272817,-10.294618,-0.17777,0.214909,1.585871,1,WALK
1759737471.69236,0.372149,-1.351976,-10.157849,-0.062787,0.117362,1.544818,1,WALK
1759737471.71187,0.209642,-1.509245,-9.794529,0.005599,0.115306,1.468782,1,WALK
1759737471.73234,0.092027,-1.822137,-9.378686,0.025978,0.146478,1.403789,1,WALK
1759737471.75231,0.162058,-1.910274,-9.140912,-0.001831,0.210735,1.38851,1,WALK
1759737471.77232,0.102352,-2.086547,-9.108441,-0.055008,0.228818,1.386891,1,WALK
1759737471.79232,0.093524,-1.975216,-9.142259,-0.081155,0.216582,1.368594,1,WALK
1759737471.81184,-0.00015,-1.954866,-9.268104,-0.117236,0.246407,1.331756,1,WALK
1759737471.83230,0.093374,-1.922544,-9.602694,-0.127965,0.223247,1.301044,1,WALK
1759737471.85227,0.124947,-1.755249,-9.79423,-0.059137,0.095567,1.284801,1,WALK
1759737471.87229,-0.097264,-1.745223,-9.84376,-0.01049,0.090302,1.226623,1,WALK
1759737471.89225,-0.098312,-1.780388,-9.858724,-0.00074,0.165819,1.120456,1,WALK
1759737471.91182,0.14036,-1.820042,-9.761759,0.006292,0.122141,1.050281,1,WALK
1759737471.93225,0.153229,-1.917606,-9.664045,-0.003218,0.062067,0.990548,1,WALK
1759737471.95222,0.265008,-1.997063,-9.573664,-0.007864,-0.003816,0.939186,1,WALK
1759737471.97225,0.220566,-2.10166,-9.590573,0.028668,-0.027517,0.883355,1,WALK
1759737471.99224,0.191686,-2.156727,-9.383026,0.036534,0.021928,0.840733,1,WALK
1759737472.01179,-0.027683,-2.302773,-9.38961,0.013916,0.155352,0.789518,1,WALK
1759737472.03221,0.047884,-2.212691,-9.650428,0.039134,0.25252,0.723267,1,WALK
1759737472.05218,0.174627,-2.168548,-10.00881,0.132808,0.274353,0.677119,1,WALK
1759737472.07220,0.190489,-2.12665,-9.996839,0.229092,0.261212,0.638668,1,WALK
1759737472.09185,-0.0205,-2.194735,-9.877279,0.263421,0.23463,0.562359,1,WALK
1759737472.11177,-0.183156,-2.420239,-9.449764,0.214063,0.096458,0.453308,1,WALK
1759737472.13217,-0.29733,-2.561347,-9.288156,0.059311,0.123472,0.394157,1,WALK
1759737472.15213,-0.198719,-2.526182,-9.600449,-0.094436,0.373561,0.402659,1,WALK
1759737472.17206,0.206799,-2.121712,-10.177901,-0.208059,0.582409,0.488054,1,WALK
1759737472.19212,0.304513,-1.743727,-10.394427,-0.202728,0.366351,0.491315,1,WALK
1759737472.21174,0.111779,-1.441609,-10.203489,-0.153539,0.054262,0.403863,1,WALK
1759737472.23213,-0.309301,-1.368586,-9.676465,-0.110396,-0.03307,0.285939,1,WALK
1759737472.25126,-0.737564,-1.558925,-9.56304,-0.112151,0.235516,0.246492,1,WALK
1759737472.27148,-0.806696,-1.628805,-9.738415,-0.06576,0.445682,0.223201,1,WALK
1759737472.29210,-0.513107,-1.489343,-9.823409,0.009974,0.403153,0.207482,1,WALK
1759737472.31171,-0.324564,-1.431583,-9.79423,0.048687,0.239325,0.196811,1,WALK
1759737472.33208,-0.361375,-1.44101,-9.563339,0.05917,0.105266,0.196831,1,WALK
1759737472.35205,-0.642544,-1.565509,-9.307309,0.078653,0.1078,0.19099,1,WALK
1759737472.37144,-0.741005,-1.708861,-9.024494,0.077673,0.204025,0.208772,1,WALK
1759737472.39179,-0.633865,-1.901146,-8.953566,0.019606,0.311645,0.270372,1,WALK
1759737472.41169,-0.451307,-1.833659,-9.192238,-0.054187,0.297757,0.38132,1,WALK
1759737472.43118,-0.439635,-1.616236,-9.427768,-0.059166,0.11264,0.442696,1,WALK
1759737472.45201,-0.686238,-1.436371,-9.560347,-0.025156,-0.003543,0.419912,1,WALK
1759737472.47201,-0.89588,-1.538574,-9.474903,-0.005712,0.020585,0.335892,1,WALK
1759737472.49201,-0.581192,-1.665766,-9.349806,-0.034154,0.025134,0.31055,1,WALK
1759737472.51167,-0.374992,-1.877653,-9.405172,-0.078211,-0.03387,0.353405,1,WALK
1759737472.53198,-0.40477,-1.832612,-9.517251,-0.061997,-0.099625,0.389482,1,WALK
1759737472.55139,-0.597353,-1.685069,-9.528324,0.012882,-0.095558,0.339532,1,WALK
1759737472.57197,-0.568473,-1.736395,-9.398888,0.064432,-0.045816,0.229729,1,WALK
1759737472.59196,-0.312743,-1.993622,-9.164405,0.081019,-0.046089,0.136538,1,WALK
1759737472.61164,-0.013168,-2.28347,-9.053674,0.048464,-0.008718,0.149649,1,WALK
1759737472.63196,0.165798,-2.466327,-9.253889,-0.016528,0.07515,0.232952,1,WALK
1759737472.65193,0.288052,-2.464531,-9.612869,-0.053341,0.137153,0.347859,1,WALK
1759737472.67191,0.190788,-2.26282,-10.060884,-0.042524,0.199842,0.412822,1,WALK
1759737472.69192,0.175226,-2.061557,-10.393529,-0.019635,0.186928,0.425217,1,WALK
1759737472.71160,0.245406,-1.924788,-10.446051,0.008611,0.041834,0.394191,1,WALK
1759737472.73192,0.200514,-1.884536,-10.313024,0.057515,-0.051294,0.371733,1,WALK
1759737472.75188,-0.084845,-2.226907,-9.995642,0.088933,-0.001341,0.354287,1,WALK
1759737472.77191,0.090531,-2.326865,-9.964368,-0.052506,0.18506,0.436661,1,WALK
1759737472.79189,0.439037,-2.25459,-10.219351,-0.196937,0.21082,0.493289,1,WALK
1759737472.81160,0.690428,-1.785925,-10.730961,-0.279007,0.198874,0.631129,1,WALK
1759737472.83187,0.717363,-1.326687,-11.003601,-0.270498,0.139494,0.705394,1,WALK
1759737472.85184,0.612616,-0.900818,-10.860398,-0.133194,-0.068191,0.635586,1,WALK
1759737472.87189,0.374693,-0.779762,-10.108619,0.088273,-0.309941,0.467698,1,WALK
1759737472.89173,-0.010175,-1.177199,-8.900594,0.31555,-0.441373,0.28107,1,WALK
1759737472.91157,-0.183905,-1.594389,-8.103624,0.430554,-0.266677,0.211397,1,WALK
1759737472.93184,-0.0413,-1.936161,-7.764845,0.35551,0.044805,0.269466,1,WALK
1759737472.95180,0.109235,-2.142062,-8.083124,0.194963,0.367433,0.39893,1,WALK
1759737472.97182,0.672022,-1.891569,-8.424747,0.051723,0.358102,0.531513,1,WALK
1759737472.99180,1.15221,-1.452682,-8.967033,-0.137945,0.251771,0.654965,1,WALK
1759737473.01155,1.014543,-1.324293,-9.474006,-0.347493,0.10169,0.768455,1,WALK
1759737473.03179,0.489315,-1.158195,-10.09964,-0.424009,-0.081832,0.774378,1,WALK
1759737473.05077,-0.125995,-0.96217,-10.45069,-0.234995,-0.223957,0.566268,1,WALK
1759737473.07184,-0.41285,-0.973692,-10.14109,0.031368,-0.269846,0.261423,1,WALK
1759737473.09175,-0.366762,-1.582867,-9.401581,0.150318,-0.240769,0.068666,1,WALK
1759737473.11156,-0.193332,-2.09343,-8.72492,0.152098,-0.199485,-0.016724,1,WALK
1759737473.13175,0.014664,-2.306813,-8.517672,0.08342,-0.067779,-0.019764,1,WALK
1759737473.15173,0.199617,-2.509273,-8.844779,0.036788,0.127807,-0.0098,1,WALK
1759737473.17144,0.545429,-2.485181,-9.157672,0.052437,0.163938,0.027399,1,WALK
1759737473.19109,0.638653,-2.46109,-9.341127,0.06119,0.153478,0.057705,1,WALK
1759737473.21150,0.694767,-2.414103,-9.44752,0.041495,0.065241,0.124905,1,WALK
1759737473.23170,0.422277,-2.293944,-9.66629,-0.0252,-0.139101,0.178823,1,WALK
1759737473.25169,0.036512,-2.109441,-9.855133,-0.024247,-0.160291,0.128427,1,WALK
1759737473.27169,-0.118812,-2.050185,-9.890447,-0.010266,-0.1385,0.076957,1,WALK
1759737473.29169,-0.333393,-2.078915,-9.979781,0.017988,-0.080876,-0.013207,1,WALK
1759737473.31147,-0.374094,-2.118569,-10.143484,0.038966,0.013096,-0.094239,1,WALK
1759737473.33169,-0.269198,-2.148646,-10.243891,0.051852,0.006084,-0.172872,1,WALK
1759737473.35151,-0.323516,-2.417695,-10.344747,0.041908,0.022783,-0.244304,1,WALK
1759737473.37166,0.058658,-2.277335,-10.590601,-0.0548,0.271431,-0.173732,1,WALK
1759737473.39164,0.010026,-2.335394,-10.958261,-0.13812,0.29673,-0.073728,1,WALK
1759737473.41145,0.112228,-1.749413,-10.95871,-0.167404,0.125553,-0.038421,1,WALK
1759737473.43163,-0.294487,-1.368586,-10.841095,-0.062705,0.033141,-0.152663,1,WALK
1759737473.45160,-0.357335,-1.103877,-10.218752,0.101649,-0.0858,-0.343063,1,WALK
1759737473.47162,-0.260968,-1.202937,-9.368212,0.189166,-0.18287,-0.485852,1,WALK
1759737473.49161,-0.404171,-1.542913,-8.476521,0.219461,-0.302964,-0.552994,1,WALK
1759737473.51143,-0.527173,-1.745373,-8.144176,0.192614,-0.2064,-0.577898,1,WALK
1759737473.53160,-0.847248,-1.917157,-8.177994,0.15569,0.14064,-0.563047,1,WALK
1759737473.55066,-0.808642,-1.94903,-8.341399,0.133425,0.465729,-0.508744,1,WALK
1759737473.57160,-0.349853,-1.808221,-8.672696,0.061362,0.594916,-0.460868,1,WALK
1759737473.59157,0.246603,-1.59364,-9.051429,-0.036657,0.506656,-0.365777,1,WALK
1759737473.61138,0.402974,-1.501464,-9.616311,-0.129183,0.347045,-0.206348,1,WALK
1759737473.63156,0.233734,-1.35003,-9.88102,-0.144108,0.157581,-0.12517,1,WALK
1759737473.65110,-0.156521,-1.299603,-9.803657,-0.068502,-0.049518,-0.154608,1,WALK
1759737473.67154,-0.370952,-1.356016,-9.519346,0.018686,-0.141936,-0.226019,1,WALK
1759737473.69141,-0.393098,-1.657087,-9.00549,0.063052,-0.158018,-0.286311,1,WALK
1759737473.71135,-0.048034,-1.94499,-8.832808,0.043849,-0.071074,-0.282045,1,WALK
1759737473.73152,0.23134,-2.147898,-8.689755,0.011873,-0.040855,-0.178708,1,WALK
1759737473.75149,0.282217,-2.304269,-8.838644,-0.021492,-0.055265,-0.067255,1,WALK
1759737473.77092,0.275333,-2.210746,-8.938004,-0.077502,-0.032349,0.000278,1,WALK
1759737473.79074,0.137816,-2.226159,-9.413851,-0.117638,0.091182,0.039812,1,WALK
1759737473.81137,0.260818,-2.097171,-9.895086,-0.07376,0.139804,0.069102,1,WALK
1759737473.83149,0.456095,-2.057218,-10.443059,-0.009475,0.203233,0.090018,1,WALK
1759737473.85145,0.724096,-2.018162,-10.686669,0.039557,0.230595,0.166094,1,WALK
1759737473.87147,0.89618,-1.94484,-10.803835,0.031663,0.133841,0.281885,1,WALK
1759737473.89146,0.65646,-1.985392,-10.705972,0.012818,-0.077335,0.316561,1,WALK
1759737473.91131,0.274585,-2.197877,-10.572645,-0.086484,-0.042102,0.338931,1,WALK
1759737473.93144,0.771831,-1.810316,-10.754006,-0.30258,0.218608,0.456111,1,WALK
1759737473.95141,0.81328,-1.492186,-11.071088,-0.392198,0.126372,0.548867,1,WALK
1759737473.97143,0.954239,-0.719907,-11.009287,-0.351288,-0.153945,0.562503,1,WALK
1759737473.99078,0.568473,-0.506074,-10.437821,-0.161644,-0.39606,0.321193,1,WALK
1759737474.01130,0.179864,-0.5782,-9.541043,0.066874,-0.51003,0.042752,1,WALK
1759737474.03141,-0.101005,-1.202189,-8.415619,0.285138,-0.602661,-0.196748,1,WALK
1759737474.05051,0.115969,-1.586458,-7.620145,0.336465,-0.447772,-0.294533,1,WALK
1759737474.07139,0.29748,-2.024597,-7.732224,0.189219,0.029756,-0.210933,1,WALK
1759737474.09138,0.600196,-2.125752,-8.257751,0.095175,0.449817,-0.024389,1,WALK
1759737474.11127,1.136498,-1.764826,-8.642619,0.066009,0.495791,0.166707,1,WALK
1759737474.13137,1.43293,-1.449539,-8.944588,-0.055074,0.361378,0.29156,1,WALK
1759737474.15048,1.284788,-1.390133,-9.17922,-0.236238,0.053297,0.364487,1,WALK
1759737474.17041,0.802506,-1.249474,-9.371205,-0.379578,-0.225438,0.368276,1,WALK
1759737474.19136,0.146944,-1.266682,-9.835231,-0.344921,-0.212154,0.232891,1,WALK
1759737474.21125,-0.118064,-1.366491,-9.909002,-0.121096,-0.19529,0.027561,1,WALK
1759737474.23133,0.209493,-1.702277,-9.591621,0.075527,-0.208406,-0.120627,1,WALK
1759737474.25130,0.504728,-2.136526,-9.342325,0.0739,-0.097078,-0.126684,1,WALK
1759737474.27132,0.684143,-2.390161,-9.388712,-0.001058,-0.037562,-0.082258,1,WALK
1759737474.29131,0.862062,-2.248006,-9.71178,0.011528,-0.066782,-0.075137,1,WALK
1759737474.31123,0.955885,-2.114978,-9.858425,0.075783,-0.096487,-0.093868,1,WALK
1759737474.33129,1.032948,-2.129044,-9.986664,0.122902,-0.067977,-0.081261,1,WALK
1759737474.35126,0.938527,-2.116025,-10.008062,0.219348,-0.064492,-0.033424,1,WALK
1759737474.37111,0.735618,-2.042553,-9.955091,0.266822,-0.075007,-0.007281,1,WALK
1759737474.39127,0.446968,-2.029385,-9.80261,0.236442,-0.109023,-0.093234,1,WALK
1759737474.41122,0.30975,-2.016816,-9.610625,0.17366,-0.2172,-0.180547,1,WALK
1759737474.43125,0.023343,-2.235137,-9.647136,0.091786,-0.245456,-0.257293,1,WALK
1759737474.45043,-0.199467,-2.377742,-10.059837,0.045532,0.092924,-0.293172,1,WALK
1759737474.47044,0.37993,-2.067094,-10.657789,-0.021037,0.453429,-0.169477,1,WALK
1759737474.49120,0.628328,-2.03163,-11.139322,-0.117279,0.39891,-0.038667,1,WALK
1759737474.51118,0.361973,-1.602619,-11.353155,-0.135063,0.159553,0.000696,1,WALK
1759737474.53125,-0.022595,-1.215506,-10.874614,-0.03287,-0.20808,-0.12239,1,WALK
1759737474.55045,-0.317232,-0.991349,-10.247333,0.057399,-0.334036,-0.331203,1,WALK
1759737474.57062,-0.463428,-1.195156,-9.320029,0.192092,-0.361568,-0.514701,1,WALK
1759737474.59020,-0.555156,-1.553089,-8.354417,0.322993,-0.360218,-0.612738,1,WALK
1759737474.61116,-0.620996,-1.907879,-7.779958,0.287106,-0.136887,-0.586568,1,WALK
1759737474.63117,-0.763152,-2.252495,-7.934983,0.106772,0.288909,-0.450998,1,WALK
1759737474.65039,-0.712574,-2.148497,-8.616582,-0.042378,0.637177,-0.313786,1,WALK
1759737474.67117,-0.253336,-1.578527,-9.19957,-0.099402,0.640214,-0.25292,1,WALK
1759737474.69115,0.028581,-1.390433,-9.646538,-0.127009,0.398667,-0.230146,1,WALK
1759737474.71114,0.083199,-1.236605,-9.755474,-0.126087,0.047073,-0.219371,1,WALK
1759737474.73114,-0.109235,-1.26758,-9.718364,-0.095405,-0.149928,-0.217655,1,WALK
1759737474.75111,-0.325312,-1.381155,-9.373748,-0.060401,-0.182777,-0.234017,1,WALK
1759737474.77114,-0.340426,-1.607706,-8.940697,-0.029717,-0.218969,-0.259878,1,WALK
1759737474.79113,-0.291793,-1.739836,-8.61329,-0.013011,-0.19113,-0.260995,1,WALK
1759737474.81111,-0.247201,-1.881992,-8.456769,-0.034596,-0.076702,-0.228957,1,WALK
1759737474.83113,-0.17747,-2.001104,-8.528446,-0.081656,0.037331,-0.207005,1,WALK
1759737474.85108,-0.047285,-2.051083,-8.885032,-0.11354,0.104776,-0.201048,1,WALK
1759737474.87109,0.082151,-2.143858,-9.21199,-0.08336,0.087743,-0.185583,1,WALK
1759737474.89108,0.230143,-2.230498,-9.555708,-0.041338,0.098621,-0.119639,1,WALK
1759737474.91107,0.38831,-2.206257,-9.62095,-0.013423,0.027002,-0.021907,1,WALK
1759737474.93089,0.384868,-2.165855,-9.837176,-0.071586,-0.003168,0.052779,1,WALK
1759737474.95104,0.399532,-1.988384,-10.022427,-0.134569,0.028782,0.11122,1,WALK
1759737474.97039,0.396839,-1.78383,-10.38051,-0.127107,0.029288,0.200933,1,WALK
1759737474.99105,0.226102,-1.695993,-10.483611,-0.047904,-0.016479,0.253417,1,WALK
1759737475.01104,-0.268899,-2.019659,-10.276662,-0.061009,0.058173,0.228055,1,WALK
1759737475.03108,0.245705,-1.736544,-10.554239,-0.379913,0.506229,0.328458,1,WALK
1759737475.05018,0.736367,-1.584812,-11.382633,-0.522984,0.644754,0.374626,1,WALK
1759737475.07102,1.21805,-0.716166,-11.744906,-0.557907,0.214306,0.574579,1,WALK
1759737475.09106,0.707936,-0.379631,-11.589133,-0.331509,-0.212273,0.433104,1,WALK
1759737475.11101,0.158616,-0.263063,-10.424354,0.023633,-0.509823,0.037972,1,WALK
1759737475.13100,-0.137816,-0.868646,-9.06759,0.319758,-0.586025,-0.307603,1,WALK
1759737475.15025,-0.142156,-1.318457,-8.609699,0.409015,-0.514187,-0.413662,1,WALK
1759737475.17097,0.442329,-2.054225,-7.915231,0.3222,0.085204,-0.254891,1,WALK
1759737475.19097,0.589123,-2.467674,-8.465149,0.095235,0.478796,0.067145,1,WALK
1759737475.21098,1.037288,-1.735198,-9.22875,0.016418,0.564281,0.203492,1,WALK
1759737475.23098,1.29227,-1.290475,-9.583091,-0.089242,0.487719,0.369745,1,WALK
1759737475.25094,1.275212,-0.942268,-10.233267,-0.145421,0.232481,0.384178,1,WALK
1759737475.27096,0.834828,-0.697162,-10.568605,-0.081839,-0.138231,0.299134,1,WALK
1759737475.29096,0.351648,-0.647033,-10.353575,0.053927,-0.379274,0.066489,1,WALK
1759737475.31095,0.115371,-0.976385,-9.818471,0.133804,-0.386518,-0.14016,1,WALK
1759737475.33094,0.240468,-1.396717,-9.254487,0.170214,-0.370556,-0.2092,1,WALK
1759737475.35091,0.277727,-1.590797,-8.777143,0.153206,-0.364305,-0.21459,1,WALK
1759737475.37092,0.117914,-1.808221,-8.666112,0.103073,-0.23647,-0.260661,1,WALK
1759737475.39092,0.278476,-1.888726,-8.935011,0.066684,-0.068809,-0.32716,1,WALK
1759737475.41090,0.587926,-1.931971,-9.159617,0.095003,-0.077458,-0.386029,1,WALK
1759737475.43090,0.917727,-2.022502,-9.433603,0.16479,-0.112452,-0.412071,1,WALK
1759737475.45087,1.105822,-2.182913,-9.300725,0.206218,-0.224738,-0.336475,1,WALK
1759737475.47089,1.02397,-2.33689,-9.335591,0.134447,-0.251262,-0.240712,1,WALK
1759737475.49088,0.807445,-2.185308,-9.578303,0.040146,-0.219371,-0.195437,1,WALK
1759737475.51088,0.430358,-2.040458,-9.88491,0.035178,-0.250672,-0.242987,1,WALK
1759737475.53086,0.240019,-1.929278,-10.249278,0.085169,-0.220573,-0.319719,1,WALK
1759737475.55084,0.251092,-1.913865,-10.337714,0.223048,-0.263747,-0.429729,1,WALK
1759737475.57085,0.040701,-2.38268,-9.932944,0.306998,-0.318251,-0.524478,1,WALK
1759737475.59085,-0.021548,-2.735675,-9.803208,0.244879,0.037069,-0.512755,1,WALK
1759737475.61084,0.675464,-2.681356,-9.975441,-0.053965,0.407664,-0.247148,1,WALK
1759737475.63083,0.71003,-2.554314,-10.761488,-0.347793,0.408059,0.008968,1,WALK
1759737475.65079,0.713472,-1.584961,-11.07019,-0.411743,-0.020267,0.090402,1,WALK
1759737475.67082,0.028431,-1.083975,-11.024999,-0.19221,-0.391967,-0.08936,1,WALK
1759737475.69082,-0.410007,-0.773177,-10.170868,0.060817,-0.541928,-0.361496,1,WALK
1759737475.71081,-0.658555,-1.186028,-9.04679,0.215207,-0.597492,-0.584065,1,WALK
1759737475.73081,-0.789488,-1.50281,-8.187571,0.274169,-0.518214,-0.704857,1,WALK
1759737475.75077,-0.970849,-1.858349,-7.950844,0.228797,-0.143404,-0.700954,1,WALK
1759737475.77079,-0.996437,-2.040159,-8.240244,0.1556,0.326045,-0.611162,1,WALK
1759737475.79078,-0.711826,-1.787272,-8.731653,0.126008,0.621413,-0.557191,1,WALK
1759737475.81077,0.051176,-1.293318,-9.076418,0.094113,0.579177,-0.551556,1,WALK
1759737475.83077,0.461183,-1.264138,-9.404125,0.005894,0.40993,-0.473981,1,WALK
1759737475.85074,0.548871,-1.259949,-9.570971,-0.063235,0.178337,-0.359068,1,WALK
1759737475.87076,0.402376,-1.170465,-9.582942,-0.064509,-0.025544,-0.269147,1,WALK
1759737475.89075,-0.129437,-1.32549,-9.433005,0.020142,-0.14982,-0.265924,1,WALK
1759737475.91076,-0.265607,-1.384148,-8.885182,0.113331,-0.191735,-0.303936,1,WALK
1759737475.93073,-0.159065,-1.756596,-8.538771,0.085176,-0.062611,-0.302633,1,WALK
1759737475.95070,0.098611,-2.049137,-8.48116,-0.003025,0.028174,-0.222494,1,WALK
1759737475.97071,0.302717,-2.202067,-8.593688,-0.047871,-0.058125,-0.113158,1,WALK
1759737475.99071,0.319925,-2.235137,-8.863335,-0.063731,-0.068646,-0.010833,1,WALK
1759737476.01042,0.209193,-2.302025,-9.292346,-0.075559,0.079737,0.099976,1,WALK
1759737476.03069,0.208744,-2.199822,-9.585785,-0.05319,0.115998,0.192524,1,WALK
1759737476.05066,0.19827,-2.1057,-9.974843,-0.059923,0.108999,0.251947,1,WALK
1759737476.07068,0.256778,-1.893365,-10.294169,-0.078943,0.118567,0.279619,1,WALK
1759737476.09065,0.376488,-1.7135,-10.43827,-0.057417,0.059322,0.311495,1,WALK
1759737476.11066,0.174029,-1.84174,-10.34355,-0.041677,-0.080614,0.320104,1,WALK
1759737476.13066,-0.046238,-2.265064,-10.222194,-0.185052,-0.039819,0.338252,1,WALK
1759737476.15062,0.612467,-1.84578,-10.732757,-0.4478,0.277685,0.467307,1,WALK
1759737476.17001,0.932841,-1.612196,-11.419444,-0.511486,0.177913,0.5756,1,WALK
1759737476.19064,1.114501,-0.903213,-11.611429,-0.450396,-0.060714,0.643161,1,WALK
1759737476.21064,0.705242,-0.631171,-11.258284,-0.256392,-0.259882,0.475608,1,WALK
1759737476.23062,0.282516,-0.654665,-10.199898,0.030801,-0.456788,0.169359,1,WALK
1759737476.25060,0.024391,-1.166126,-9.034221,0.273526,-0.508545,-0.078391,1,WALK
1759737476.26998,0.125546,-1.664419,-8.259248,0.416474,-0.306797,-0.189072,1,WALK
1759737476.29000,0.349553,-2.054075,-7.842956,0.392848,0.072604,-0.098979,1,WALK
1759737476.31060,0.62354,-2.398242,-8.270021,0.191856,0.53006,0.141063,1,WALK
1759737476.33059,1.413477,-1.991527,-8.93142,-0.000372,0.646852,0.389065,1,WALK
1759737476.35003,1.944092,-1.23451,-9.882666,-0.22713,0.591028,0.649403,1,WALK
1759737476.36991,1.590797,-0.99524,-10.54556,-0.334324,0.27267,0.759408,1,WALK
1759737476.39057,0.938228,-0.587178,-10.798747,-0.206142,-0.136931,0.65644,1,WALK
1759737476.41057,0.307655,-0.458789,-10.35178,-0.012273,-0.350946,0.362071,1,WALK
1759737476.43056,-0.047884,-0.951396,-9.714473,0.079786,-0.3036,0.1318,1,WALK
1759737476.45007,0.244358,-1.454478,-8.95611,0.106418,-0.291195,0.026225,1,WALK
1759737476.47055,0.510863,-1.737442,-8.742278,0.054218,-0.191771,0.024927,1,WALK
1759737476.49054,0.698658,-2.05617,-8.73315,0.007936,-0.087882,0.063141,1,WALK
1759737476.51055,0.900968,-2.176629,-8.953416,0.008329,-0.077765,0.11709,1,WALK
1759737476.52962,1.03654,-2.162712,-8.945336,0.041938,-0.170809,0.125336,1,WALK
1759737476.54959,0.912041,-2.278831,-8.837896,0.047701,-0.217256,0.137017,1,WALK
1759737476.56988,0.726341,-2.445228,-8.995465,0.023616,-0.134416,0.18522,1,WALK
1759737476.59051,0.50787,-2.435951,-9.328857,0.003067,-0.007029,0.245913,1,WALK
1759737476.61053,0.426467,-2.243966,-9.677513,0.000562,0.020977,0.229872,1,WALK
1759737476.63051,0.473154,-2.055871,-9.895086,-0.005371,-0.092825,0.152444,1,WALK
1759737476.65000,0.421978,-2.016367,-10.205285,0.009294,-0.134407,0.066035,1,WALK
1759737476.67049,0.34282,-1.97387,-10.475829,0.088462,-0.05668,0.008246,1,WALK
1759737476.69048,0.114173,-2.223914,-10.362853,0.176629,-0.053091,-0.049475,1,WALK
1759737476.71048,0.052373,-2.391957,-10.276063,0.145221,0.192779,-0.059155,1,WALK
1759737476.72946,0.249296,-2.431761,-10.576087,-0.002132,0.493202,0.041292,1,WALK
1759737476.75043,0.489764,-2.032677,-11.0039,-0.119383,0.484183,0.145426,1,WALK
1759737476.77046,0.416591,-1.56476,-11.406426,-0.167668,0.378401,0.150782,1,WALK
1759737476.79045,0.04968,-1.296759,-11.07019,0.080864,-0.014701,0.015912,1,WALK
1759737476.81044,-0.087239,-1.0117,-9.904214,0.309198,-0.403869,-0.166721,1,WALK
1759737476.82946,-0.711078,-1.623418,-8.574684,0.358954,-0.460689,-0.375328,1,WALK
1759737476.85040,-0.787243,-1.91611,-7.815722,0.311316,-0.264348,-0.457702,1,WALK
1759737476.87042,-0.783502,-2.28347,-7.847146,0.188695,0.137546,-0.369107,1,WALK
1759737476.89041,-0.865055,-2.490718,-8.197298,0.103341,0.475588,-0.206678,1,WALK
1759737476.91040,-0.691026,-2.111387,-8.794801,0.050358,0.605168,-0.100554,1,WALK
1759737476.92943,-0.319626,-1.629254,-9.18296,-0.054668,0.577823,-0.073572,1,WALK
1759737476.95037,0.090381,-1.309179,-9.722554,-0.24485,0.553549,0.002047,1,WALK
1759737476.97039,0.208894,-1.08173,-10.276362,-0.334308,0.298871,0.079628,1,WALK
1759737476.99038,0.015862,-0.808043,-10.554988,-0.235933,-0.100484,0.07248,1,WALK
1759737477.01037,-0.440234,-0.659004,-10.197354,-0.040708,-0.343088,-0.069569,1,WALK
1759737477.02945,-0.634164,-0.753575,-9.960029,0.028645,-0.31868,-0.153532,1,WALK
1759737477.04988,-0.530016,-1.467646,-8.897751,0.120804,-0.184526,-0.347303,1,WALK
1759737477.07034,-0.02888,-1.771709,-8.601469,0.085607,-0.128031,-0.352931,1,WALK
1759737477.09036,0.229993,-2.046444,-8.51004,0.031571,-0.106199,-0.286279,1,WALK
1759737477.11033,0.311845,-2.179472,-8.56361,0.021126,-0.062834,-0.198437,1,WALK
1759737477.12940,0.311994,-2.244714,-8.686463,0.023227,-0.011701,-0.163033,1,WALK
1759737477.14984,0.40866,-2.28347,-8.858247,0.000807,0.023737,-0.070838,1,WALK
1759737477.17032,0.419733,-2.238728,-9.370307,-0.026927,0.089021,-0.032283,1,WALK
1759737477.19031,0.568473,-2.081309,-9.79034,-0.011697,0.093571,0.032268,1,WALK
1759737477.21032,0.692822,-1.940949,-9.938331,0.034101,0.001564,0.102697,1,WALK
1759737477.22939,0.583138,-1.922843,-9.770288,0.051245,-0.133935,0.154826,1,WALK
1759737477.24981,0.326958,-1.936909,-9.537003,-0.005298,-0.194358,0.198287,1,WALK
1759737477.27032,-0.179266,-2.459893,-9.44752,-0.101245,-0.127467,0.173329,1,WALK
1759737477.29029,0.446219,-2.011279,-9.761759,-0.299855,0.333859,0.292288,1,WALK
1759737477.31028,1.086369,-1.958607,-10.968736,-0.542172,0.71774,0.510967,1,WALK
1759737477.32938,1.560271,-1.190966,-11.630433,-0.591987,0.469941,0.68684,1,WALK
1759737477.34978,1.307533,-0.55755,-11.897686,-0.443336,0.088319,0.659671,1,WALK
1759737477.37025,0.610073,-0.196175,-11.473014,-0.177685,-0.206495,0.403505,1,WALK
1759737477.39024,-0.114922,-0.44173,-10.307786,0.161422,-0.402415,-0.005785,1,WALK
1759737477.41024,-0.320224,-1.029507,-8.747216,0.456999,-0.525933,-0.324414,1,WALK
1759737477.42936,-0.161459,-1.655291,-7.818864,0.591064,-0.325673,-0.498989,1,WALK
1759737477.44991,0.23553,-2.146252,-7.459135,0.450265,0.232147,-0.393697,1,WALK
1759737477.47023,0.709432,-2.704251,-8.060529,0.136241,0.759158,-0.098955,1,WALK
1759737477.49022,1.63943,-2.272247,-8.67135,-0.112215,0.647364,0.207486,1,WALK
1759737477.51023,2.057218,-1.72607,-9.498247,-0.362321,0.250074,0.446922,1,WALK
1759737477.52934,1.558625,-1.412729,-10.181492,-0.507133,-0.156949,0.553306,1,WALK
1759737477.55018,0.666636,-1.062427,-10.757896,-0.452845,-0.349187,0.474005,1,WALK
1759737477.57020,0.147543,-0.827945,-10.647015,-0.228252,-0.495609,0.237053,1,WALK
1759737477.59019,-0.095768,-0.938377,-10.003423,-0.047446,-0.596783,0.006959,1,WALK
1759737477.61019,-0.208894,-1.310227,-9.302371,-0.001323,-0.545584,-0.185498,1,WALK
1759737477.62933,-0.0413,-1.532289,-8.961946,0.018177,-0.385459,-0.33491,1,WALK
1759737477.65015,0.263661,-1.756297,-8.94369,0.083496,-0.196864,-0.417065,1,WALK
1759737477.67017,0.738761,-1.878102,-8.996063,0.159826,-0.05605,-0.435237,1,WALK
1759737477.69017,1.140239,-2.063054,-9.011476,0.176839,0.006552,-0.391492,1,WALK
1759737477.71016,1.552341,-2.265364,-9.068039,0.134405,-0.103673,-0.289304,1,WALK
1759737477.72931,1.655441,-2.273145,-9.095572,0.052515,-0.230633,-0.143268,1,WALK
1759737477.75012,1.456423,-2.161665,-9.193585,-0.051882,-0.221076,-0.00703,1,WALK
1759737477.77014,1.105672,-1.949928,-9.645191,-0.107585,-0.128974,0.066367,1,WALK
1759737477.79014,1.005116,-1.586458,-10.136751,-0.036761,-0.11103,0.043142,1,WALK
1759737477.81014,0.924611,-1.434426,-10.46326,0.104953,-0.089612,-0.025009,1,WALK
1759737477.82937,1.158195,-1.409736,-10.476877,0.222525,-0.050429,-0.063041,1,WALK
1759737477.85009,1.594089,-1.463905,-10.477475,0.248724,-0.026522,-0.00027,1,WALK
1759737477.87011,1.734898,-1.594987,-10.361506,0.265525,-0.17892,0.098752,1,WALK
1759737477.89003,1.515829,-1.644966,-10.236559,0.306183,-0.205515,0.168598,1,WALK
1759737477.91010,1.116297,-2.020557,-9.904812,0.313416,-0.166329,0.229793,1,WALK
1759737477.92930,1.129465,-2.047491,-9.904064,0.168018,0.120338,0.339814,1,WALK
1759737477.94986,1.062277,-2.032677,-10.181193,0.02806,0.329999,0.459102,1,WALK
1759737477.97008,0.925808,-1.57314,-10.327987,-0.011351,0.2335,0.552559,1,WALK
1759737477.99008,0.765247,-1.44535,-10.215909,-0.092852,-0.050798,0.561953,1,WALK
1759737478.01007,0.517297,-1.097891,-10.018238,-0.147769,-0.271092,0.468024,1,WALK
1759737478.02929,-0.029928,-0.915782,-9.85618,-0.072578,-0.242775,0.344793,1,WALK
1759737478.05003,-0.434099,-0.906654,-9.640852,0.133828,-0.029708,0.239993,1,WALK
1759737478.07006,-0.437241,-0.90007,-9.335142,0.344258,0.193037,0.162415,1,WALK
1759737478.09006,-0.313042,-1.087267,-8.912416,0.48088,0.287343,0.083913,1,WALK
1759737478.11003,-0.1031,-1.246781,-8.681375,0.506746,0.424384,0.087434,1,WALK
1759737478.12928,0.223858,-1.466449,-8.763526,0.439387,0.617404,0.169413,1,WALK
1759737478.15001,0.565331,-1.604265,-8.995016,0.348493,0.713217,0.35767,1,WALK
1759737478.16981,1.122731,-1.485752,-9.110835,0.193067,0.689298,0.613596,1,WALK
1759737478.19002,1.430535,-1.384597,-9.481338,-0.085563,0.641457,0.937051,1,WALK
1759737478.21008,1.175553,-1.170166,-9.926061,-0.286204,0.357885,1.176667,1,WALK
1759737478.22927,0.782156,-0.660949,-10.091859,-0.29983,0.051442,1.248889,1,WALK
1759737478.24941,0.264559,-0.743699,-10.047716,-0.199825,-0.046604,1.17267,1,WALK
1759737478.26999,0.232238,-1.010503,-9.557653,-0.117836,-0.003262,1.158491,1,WALK
1759737478.28999,0.2891,-1.353023,-9.187599,-0.090894,0.083558,1.207599,1,WALK
1759737478.30998,0.314239,-1.468095,-9.062801,-0.08472,0.171127,1.271794,1,WALK
1759737478.32924,0.397288,-1.485303,-9.052327,-0.084761,0.210664,1.331781,1,WALK
1759737478.34994,0.334739,-1.422754,-9.064447,-0.026613,0.222888,1.321824,1,WALK
1759737478.36997,0.313491,-1.382502,-9.019556,0.124555,0.247283,1.252827,1,WALK
1759737478.38994,0.524929,-1.470189,-8.829068,0.24792,0.414933,1.186409,1,WALK
1759737478.40995,0.896479,-1.807772,-8.937405,0.204181,0.732312,1.21706,1,WALK
1759737478.42923,1.120935,-2.224962,-9.409512,0.074145,0.877289,1.372571,1,WALK
1759737478.44946,1.614141,-2.01921,-10.152911,-0.005943,0.778889,1.623725,1,WALK
1759737478.46994,1.623418,-1.799243,-10.681731,-0.05526,0.611546,1.884572,1,WALK
1759737478.48993,1.225981,-1.404349,-10.951527,-0.054451,0.474089,1.997778,1,WALK
1759737478.50992,1.029357,-0.908749,-11.049989,-0.008404,0.416739,2.047657,1,WALK
1759737478.52922,0.829591,-0.752677,-10.916362,0.037717,0.431768,2.09563,1,WALK
1759737478.54950,0.726341,-0.720505,-10.926987,0.087903,0.468983,2.15749,1,WALK
1759737478.56993,0.658854,-0.629226,-10.860548,0.233277,0.441304,2.220538,1,WALK
1759737478.58912,0.505326,-0.504578,-10.45503,0.366096,0.377689,2.226978,1,WALK
1759737478.60992,0.114622,-0.625036,-10.150068,0.404052,0.267736,2.100527,1,WALK
1759737478.62922,0.010624,-0.77617,-9.966613,0.34395,0.211857,2.01572,1,WALK
1759737478.64977,0.065541,-0.905756,-10.045472,0.190531,0.293657,2.105492,1,WALK
1759737478.66941,0.075417,-1.021426,-10.071658,0.117759,0.267463,2.279499,1,WALK
1759737478.68987,0.076764,-0.71003,-10.155755,0.185245,0.259441,2.45209,1,WALK
1759737478.70987,-0.223259,-0.703147,-10.033351,0.243078,0.335349,2.54882,1,WALK
1759737478.72919,-0.352845,-0.680552,-9.66644,0.142932,0.195342,2.645716,1,WALK
1759737478.74983,-0.655263,-0.752677,-9.767595,0.035629,0.120422,2.616678,1,WALK
1759737478.76968,-0.900669,-0.674866,-10.095899,0.103148,0.287105,2.482258,1,WALK
1759737478.78984,-0.921019,-0.819266,-10.444106,0.336531,0.708535,2.253393,1,WALK
1759737478.80983,-0.47914,-1.106121,-10.182839,0.54116,0.994066,2.101732,1,WALK
1759737478.82920,0.14051,-1.53184,-9.528324,0.473828,1.000961,2.094515,1,WALK
1759737478.84935,0.510713,-1.775899,-9.24102,0.219077,0.870365,2.158927,1,WALK
1759737478.86955,0.635661,-1.755399,-9.130887,-0.016493,0.695992,2.292644,1,WALK
1759737478.88981,0.240767,-1.694796,-9.333646,-0.164906,0.690547,2.415375,1,WALK
1759737478.90981,-0.161609,-1.56491,-9.458892,-0.192369,0.668454,2.480886,1,WALK
1759737478.92916,-0.463727,-1.395221,-9.364172,-0.159906,0.500814,2.468835,1,WALK
1759737478.94978,-0.724545,-1.381155,-9.389011,-0.201774,0.394585,2.408854,1,WALK
1759737478.96979,-0.961272,-1.40809,-9.350854,-0.215254,0.368653,2.286162,1,WALK
1759737478.98980,-1.066617,-1.475427,-9.304317,-0.173525,0.436487,2.145823,1,WALK
1759737479.00978,-0.849193,-1.623269,-9.790938,-0.022367,0.660026,2.017164,1,WALK
