SamplingTime,AccelerationX,AccelerationY,AccelerationZ,GyroX,GyroY,GyroZ,Subject,Activity
1759627918.34906,0.168043,-3.359663,-9.599402,-0.039644,-0.016508,0.013987,1,WALK
1759627918.36805,0.430507,-3.332579,-9.309853,-0.021721,0.177518,-0.000994,1,WALK
1759627918.38906,0.518045,-3.326294,-9.244462,-0.068593,0.154958,-0.022677,1,WALK
1759627918.40902,0.592116,-3.374478,-9.48882,-0.058626,-0.005415,-0.024583,1,WALK
1759627918.42907,0.629376,-3.302203,-9.398888,-0.004105,-0.189993,-0.004785,1,WALK
1759627918.44904,0.364517,-3.396325,-9.334394,0.036319,-0.155542,-0.011635,1,WALK
1759627918.46807,0.420781,-3.417424,-9.346514,0.104629,0.003723,0.012263,1,WALK
1759627918.48907,0.442628,-3.40231,-9.197775,0.171212,0.051143,0.050122,1,WALK
1759627918.50902,0.31394,-3.495834,-8.986486,0.134941,0.019019,0.069033,1,WALK
1759627918.52905,0.299425,-3.363853,-8.887576,0.052303,-0.100127,0.027751,1,WALK
1759627918.54904,0.260369,-3.380912,-9.033024,-0.008531,-0.127838,-0.018334,1,WALK
1759627918.56808,0.418237,-3.411887,-9.272444,-0.005077,-0.1008,-0.009292,1,WALK
1759627918.58903,0.406116,-3.378967,-9.26571,0.073283,-0.06787,0.003898,1,WALK
1759627918.60903,0.382773,-3.475483,-9.153033,0.101112,-0.021541,0.020662,1,WALK
1759627918.62883,0.518045,-3.478925,-8.986037,0.044982,-0.083907,0.049003,1,WALK
1759627918.64904,0.281319,-3.489699,-8.965537,0.004863,-0.158728,0.018516,1,WALK
1759627918.66810,0.185251,-3.469797,-9.054571,0.015855,-0.105079,-0.017846,1,WALK
1759627918.68905,0.305859,-3.483713,-8.954015,0.015309,-0.063964,-0.011941,1,WALK
1759627918.70902,0.353743,-3.449895,-8.993819,-0.00336,-0.029663,0.000264,1,WALK
1759627918.72893,0.279673,-3.350685,-9.146,0.028983,0.034069,0.0142,1,WALK
1759627918.74901,0.239121,-3.43119,-9.008483,0.048905,-0.026932,0.010977,1,WALK
1759627918.76811,0.398335,-3.429993,-8.929923,-0.011881,-0.098416,-0.020297,1,WALK
1759627918.78894,0.275932,-3.519925,-9.125799,-0.020632,-0.072543,-0.020804,1,WALK
1759627918.80902,0.254234,-3.543269,-9.131635,0.031652,-0.007234,-0.006463,1,WALK
1759627918.82903,0.353594,-3.503166,-8.932467,0.031156,-0.001235,0.019961,1,WALK
1759627918.84819,0.268001,-3.43523,-8.926332,0.000255,0.012953,0.019063,1,WALK
1759627918.86813,0.264709,-3.483115,-9.066243,-0.028749,0.040017,0.026034,1,WALK
1759627918.88904,0.277129,-3.425055,-9.184756,-0.019462,0.005848,0.010352,1,WALK
1759627918.90902,0.128838,-3.433584,-9.186701,0.020801,-0.0437,0.003888,1,WALK
1759627918.92904,0.094122,-3.439271,-8.967183,0.010296,-0.053461,-0.012446,1,WALK
1759627918.94903,0.130035,-3.376423,-8.926482,-0.023296,-0.012672,-0.023051,1,WALK
1759627918.96815,0.028282,-3.41084,-9.163059,-0.038522,0.050739,-0.029769,1,WALK
1759627918.98804,0.20665,-3.383007,-9.216928,-0.04891,0.023164,-0.043063,1,WALK
1759627919.00901,0.260369,-3.418172,-9.300276,-0.042604,-0.057205,-0.039058,1,WALK
1759627919.02903,0.207398,-3.378967,-9.334244,-0.009696,-0.079983,-0.017002,1,WALK
1759627919.04903,0.150835,-3.366397,-9.228001,0.036295,-0.015122,-0.015069,1,WALK
1759627919.06817,0.144999,-3.465308,-9.041703,0.036212,0.042911,-0.032403,1,WALK
1759627919.08906,0.325163,-3.546112,-8.913463,-0.003037,-0.005727,-0.055678,1,WALK
1759627919.10901,0.298976,-3.631854,-8.995913,-0.037968,-0.079312,-0.043253,1,WALK
1759627919.12904,0.322469,-3.510947,-9.063101,-0.043737,-0.069093,-0.009419,1,WALK
1759627919.14839,0.211438,-3.476979,-9.106047,-0.036189,0.013681,0.017396,1,WALK
1759627919.16819,0.133926,-3.332878,-9.229348,-0.031626,0.063099,0.015862,1,WALK
1759627919.18892,0.049829,-3.293673,-9.24491,-0.009592,0.014733,-0.019229,1,WALK
1759627919.20900,0.022745,-3.352481,-9.248801,0.000219,-0.064877,-0.064595,1,WALK
1759627919.22903,0.166846,-3.453187,-9.11727,0.007387,-0.084774,-0.101225,1,WALK
1759627919.24823,0.246603,-3.572149,-9.006538,0.012363,-0.044514,-0.075287,1,WALK
1759627919.26820,0.295684,-3.538181,-9.032425,-0.019663,0.052656,-0.021123,1,WALK
1759627919.28906,0.192733,-3.490447,-9.223812,-0.029634,0.099097,0.016962,1,WALK
1759627919.30903,0.118962,-3.377171,-9.264962,-0.000641,0.006101,0.006375,1,WALK
1759627919.32904,0.091578,-3.430292,-9.218724,0.0325,-0.068576,-0.047246,1,WALK
1759627919.34824,0.200215,-3.491793,-9.045743,0.030274,-0.070064,-0.059877,1,WALK
1759627919.36822,0.318279,-3.43119,-8.985888,0.011004,-0.007682,-0.020025,1,WALK
1759627919.38904,0.341922,-3.547758,-9.027038,-0.04048,0.049894,0.034236,1,WALK
1759627919.40902,0.201861,-3.412934,-9.206454,-0.044805,-0.023649,0.037069,1,WALK
1759627919.42810,-0.002394,-3.437325,-9.279028,0.004123,-0.108591,-0.010604,1,WALK
1759627919.44902,0.093374,-3.401712,-9.140613,0.052205,-0.092758,-0.06169,1,WALK
1759627919.46824,0.186149,-3.504513,-9.034221,0.043961,-0.013095,-0.05324,1,WALK
1759627919.48904,0.393697,-3.597587,-8.8982,-0.010099,0.036386,0.009364,1,WALK
1759627919.50902,0.262913,-3.529053,-9.085097,-0.077995,0.012804,0.078572,1,WALK
1759627919.52907,-0.033369,-3.334674,-9.341876,-0.061663,-0.015323,0.047369,1,WALK
1759627919.54837,0.022446,-3.375375,-9.441684,-0.023752,-0.035514,-0.015016,1,WALK
1759627919.56826,0.248997,-3.391536,-9.44333,0.040574,-0.088033,-0.025148,1,WALK
1759627919.58904,0.118214,-3.433136,-9.2286,0.098945,-0.101031,-0.005754,1,WALK
1759627919.60902,0.042647,-3.566762,-9.010728,0.088423,-0.008482,-0.00711,1,WALK
1759627919.62871,0.207248,-3.598485,-8.869919,0.006205,-0.017691,-0.003549,1,WALK
1759627919.64836,0.13632,-3.586813,-8.998308,-0.03595,-0.077525,-0.009128,1,WALK
1759627919.66829,0.138265,-3.547908,-9.152734,-0.040989,-0.039578,0.002452,1,WALK
1759627919.68904,0.070479,-3.499275,-9.243264,-0.03373,-0.014593,0.030147,1,WALK
1759627919.70904,-0.040552,-3.343802,-9.332897,0.029612,-0.003076,0.01013,1,WALK
1759627919.72904,0.11163,-3.374029,-9.164256,0.062487,0.003921,-0.029447,1,WALK
1759627919.74904,0.189292,-3.545364,-9.039907,0.02786,-0.030568,-0.019363,1,WALK
1759627919.76830,0.282217,-3.543568,-9.004742,-0.010811,-0.09746,-0.000766,1,WALK
1759627919.78905,0.109235,-3.456329,-9.026888,-0.004755,-0.107595,0.027027,1,WALK
1759627919.80903,-0.058059,-3.403807,-9.088988,0.006078,0.004047,0.02528,1,WALK
1759627919.82905,-0.074669,-3.333926,-9.058163,0.008158,0.043021,-0.015135,1,WALK
1759627919.84904,-0.038158,-3.376573,-9.06774,0.001666,0.011311,-0.056684,1,WALK
1759627919.86831,0.093075,-3.433435,-9.071032,-0.027916,-0.026702,-0.094885,1,WALK
1759627919.88905,0.220267,-3.429395,-9.160066,-0.009016,-0.019926,-0.089956,1,WALK
1759627919.90904,0.320823,-3.539378,-9.142259,0.02567,0.015496,-0.0259,1,WALK
1759627919.92906,0.282067,-3.569455,-9.095572,0.007494,0.030974,0.046456,1,WALK
1759627919.94879,0.010624,-3.464559,-9.103653,-0.021564,-0.010001,0.044959,1,WALK
1759627919.96835,-0.054318,-3.407996,-9.079262,-0.035789,-0.047421,0.019087,1,WALK
1759627919.98905,0.055665,-3.364302,-9.225158,-0.039094,-0.099185,-0.066011,1,WALK
1759627920.00905,0.057012,-3.404106,-9.331251,-0.023385,-0.04849,-0.056414,1,WALK
1759627920.02906,0.201861,-3.473388,-9.279926,0.023515,0.030105,-0.021012,1,WALK
1759627920.04903,0.159214,-3.494637,-9.037363,0.024208,0.008689,0.029854,1,WALK
1759627920.06835,0.104896,-3.465158,-8.993669,-0.004347,-0.015867,0.023155,1,WALK
1759627920.08906,0.060304,-3.336619,-9.117868,-0.054781,-0.073097,-0.031945,1,WALK
1759627920.10872,0.139762,-3.343802,-9.272893,-0.037127,-0.056647,-0.065088,1,WALK
1759627920.12907,0.165798,-3.480421,-9.31524,-0.000192,-0.005823,-0.022739,1,WALK
1759627920.14907,0.178069,-3.450793,-9.2078,0.034931,0.023302,0.017205,1,WALK
1759627920.16838,0.031424,-3.469647,-9.106047,0.022478,0.054164,0.026666,1,WALK
1759627920.18906,-0.033519,-3.396474,-9.147496,0.007219,0.005872,-0.010836,1,WALK
1759627920.20906,0.073921,-3.382259,-9.068488,0.01018,-0.091758,-0.076151,1,WALK
1759627920.22907,0.153229,-3.467552,-9.040505,0.012202,-0.046632,-0.06835,1,WALK
1759627920.24905,0.266056,-3.536086,-9.018209,-0.00879,0.049585,0.003775,1,WALK
1759627920.26839,0.129137,-3.427,-9.080459,-0.022604,0.042201,0.046977,1,WALK
1759627920.28907,0.0205,-3.415029,-9.05083,-0.020794,-0.029326,0.014151,1,WALK
1759627920.30906,-0.011821,-3.469946,-8.98484,-0.01952,-0.049426,-0.032637,1,WALK
1759627920.32907,0.025738,-3.487454,-9.091382,-0.015094,0.029055,-0.027823,1,WALK
1759627920.34906,0.13213,-3.410091,-9.11697,0.008922,0.061338,-0.025643,1,WALK
1759627920.36842,0.186149,-3.505111,-9.12101,-0.019192,0.033623,-0.011047,1,WALK
1759627920.38907,0.238822,-3.467253,-9.129839,-0.06292,-0.022101,-0.021494,1,WALK
1759627920.40843,0.228796,-3.556587,-9.298331,-0.065997,-0.030335,-0.006328,1,WALK
1759627920.42907,0.190189,-3.486706,-9.312846,0.00316,-0.005714,0.002377,1,WALK
1759627920.44906,0.093224,-3.56766,-9.206753,0.037735,0.031501,0.018023,1,WALK
1759627920.46844,0.185551,-3.520823,-9.090185,0.023542,-0.013894,-0.000306,1,WALK
1759627920.48907,0.175375,-3.521272,-9.081057,0.004916,-0.039282,0.004981,1,WALK
1759627920.50907,0.338929,-3.527258,-9.048885,-0.033927,-0.03498,0.056041,1,WALK
1759627920.52907,0.155324,-3.490147,-9.209297,-0.043692,-0.00392,0.09271,1,WALK
1759627920.54907,-0.116867,-3.367894,-9.380931,0.008971,0.04496,0.079221,1,WALK
1759627920.56845,-0.111031,-3.343054,-9.273641,0.046197,-0.021929,0.006954,1,WALK
1759627920.58907,0.013168,-3.397522,-9.094824,0.059881,-0.072501,-0.047595,1,WALK
1759627920.60908,0.217124,-3.518429,-8.953267,0.023774,-0.036489,-0.017513,1,WALK
1759627920.62908,0.210091,-3.549404,-8.894758,-0.023199,-0.013074,0.048618,1,WALK
1759627920.64908,0.040552,-3.452738,-9.039608,-0.038471,-0.010661,0.06785,1,WALK
1759627920.66847,-0.083797,-3.403956,-9.115324,-0.012364,-0.031032,0.004653,1,WALK
1759627920.68908,0.046238,-3.450494,-9.097517,0.011016,-0.023206,-0.017178,1,WALK
1759627920.70909,0.104148,-3.518279,-9.042002,0.003438,-0.022191,0.018964,1,WALK
1759627920.72908,-0.021997,-3.490746,-9.054571,-0.023594,-0.001806,0.041007,1,WALK
1759627920.74908,-0.093524,-3.410989,-9.132084,-0.031268,-0.000182,0.032199,1,WALK
1759627920.76850,-0.095768,-3.419369,-9.176526,-0.012811,-0.035858,-0.009048,1,WALK
1759627920.78907,0.051625,-3.519476,-9.110386,-0.001361,-0.015465,-0.024227,1,WALK
1759627920.80908,0.108487,-3.564667,-9.025991,-0.010353,-0.016372,0.001318,1,WALK
1759627920.82908,0.046687,-3.555539,-9.047838,-0.034904,-0.017813,0.018721,1,WALK
1759627920.84908,-0.006883,-3.449745,-9.140763,-0.036169,-0.034392,0.023229,1,WALK
1759627920.86852,0.03322,-3.43149,-9.116521,-0.013301,-0.001908,0.018724,1,WALK
1759627920.88908,0.005537,-3.467702,-9.112032,-0.033199,0.029762,0.016512,1,WALK
1759627920.90908,-0.005986,-3.383007,-9.064597,-0.033541,-0.047974,-0.011133,1,WALK
1759627920.92908,-0.030526,-3.419818,-9.109788,-0.026209,-0.068916,-0.038648,1,WALK
1759627920.94907,0.039504,-3.473388,-9.065345,-0.029387,-0.005362,-0.024673,1,WALK
1759627920.96854,0.031125,-3.504513,-9.14166,-0.041547,0.021302,0.003742,1,WALK
1759627920.98845,0.030825,-3.392584,-9.167847,-0.030194,-0.042954,0.005814,1,WALK
1759627921.00908,0.031125,-3.455132,-9.070583,-0.028655,-0.062256,-0.00937,1,WALK
1759627921.02908,0.095918,-3.516633,-8.941296,-0.070657,-0.043527,-0.002409,1,WALK
1759627921.04908,-0.025139,-3.505261,-9.054571,-0.071632,-0.028995,-0.011373,1,WALK
1759627921.06855,-0.028132,-3.491195,-8.984242,-0.046562,-0.014352,-0.024942,1,WALK
1759627921.08909,0.060753,-3.521871,-8.859294,-0.057486,-0.013674,-0.041771,1,WALK
1759627921.10908,0.221314,-3.570054,-8.862886,-0.11391,-0.039882,-0.033598,1,WALK
1759627921.12908,0.131382,-3.563919,-9.121908,-0.114385,-0.059597,-0.039736,1,WALK
1759627921.14907,0.085144,-3.58801,-9.070583,-0.0499,-0.080778,-0.060455,1,WALK
1759627921.16857,0.064643,-3.68722,-8.832509,-0.029708,-0.079855,-0.086963,1,WALK
1759627921.18909,0.231789,-3.789273,-8.746318,-0.090386,-0.020124,-0.08503,1,WALK
1759627921.20909,0.387711,-3.882348,-8.844779,-0.146408,0.013886,-0.032342,1,WALK
1759627921.22907,0.294337,-3.849876,-8.980351,-0.178096,-0.045341,-0.034109,1,WALK
1759627921.24907,0.199018,-3.6543,-9.175179,-0.170744,-0.099508,-0.059441,1,WALK
1759627921.26860,0.002993,-3.596241,-9.336489,-0.10886,-0.079093,-0.099968,1,WALK
1759627921.28908,0.038307,-3.55105,-9.121609,-0.040204,-0.08202,-0.121426,1,WALK
1759627921.30913,0.137068,-3.734506,-8.901043,-0.041091,-0.056396,-0.093812,1,WALK
1759627921.32825,0.145597,-3.816208,-8.847024,-0.0969,-0.004406,-0.045623,1,WALK
1759627921.34814,0.071527,-3.62557,-9.013571,-0.14811,0.016172,-0.016695,1,WALK
1759627921.36860,-0.080655,-3.388244,-9.348609,-0.122587,-0.00645,-0.050509,1,WALK
1759627921.38910,-0.109535,-3.315071,-9.339631,-0.046652,-0.071233,-0.090188,1,WALK
1759627921.40909,-0.04534,-3.466205,-9.084948,-0.029147,-0.073394,-0.112181,1,WALK
1759627921.42914,0.009876,-3.577386,-9.059809,-0.06314,0.048067,-0.088993,1,WALK
1759627921.44910,-0.013916,-3.56362,-9.106795,-0.067422,0.06523,-0.05836,1,WALK
1759627921.46864,0.000898,-3.459621,-9.221717,-0.090917,0.022805,-0.074437,1,WALK
1759627921.48871,0.00015,-3.437475,-9.219322,-0.099066,-0.030735,-0.100715,1,WALK
1759627921.50909,0.043694,-3.459472,-9.138368,-0.117332,-0.049278,-0.095453,1,WALK
1759627921.52909,0.058957,-3.523966,-9.206005,-0.116341,0.003185,-0.08364,1,WALK
1759627921.54910,0.037858,-3.586664,-9.180417,-0.096505,0.024439,-0.043186,1,WALK
1759627921.56866,-0.128539,-3.612551,-9.079262,-0.088888,0.038684,-0.027525,1,WALK
1759627921.58911,-0.228497,-3.566163,-9.054721,-0.082823,0.095882,-0.037067,1,WALK
1759627921.60908,-0.238522,-3.581277,-8.893112,-0.07949,0.111127,-0.017089,1,WALK
1759627921.62911,-0.382773,-3.549404,-8.969727,-0.114564,0.146008,0.018993,1,WALK
1759627921.64909,-0.563236,-3.49329,-9.106496,-0.071571,0.139848,-0.000974,1,WALK
1759627921.66868,-0.560393,-3.624821,-8.859294,0.006026,0.141748,-0.007982,1,WALK
1759627921.68911,-0.523283,-3.829376,-8.525453,-0.016772,0.147066,0.033388,1,WALK
1759627921.70912,-0.539444,-3.724779,-8.586355,-0.123239,0.211583,0.088941,1,WALK
1759627921.72850,-0.821959,-3.737498,-8.967931,-0.200451,0.273008,0.073425,1,WALK
1759627921.74911,-0.629226,-3.456778,-9.06355,-0.176466,0.154998,0.011537,1,WALK
1759627921.76870,-0.517596,-3.554043,-9.027637,-0.14272,0.050762,-0.052733,1,WALK
1759627921.78913,-0.418237,-3.582773,-8.899846,-0.150103,0.036062,-0.041917,1,WALK
1759627921.80891,-0.437391,-3.646668,-8.892664,-0.185157,0.054238,-0.019998,1,WALK
1759627921.82913,-0.349254,-3.623923,-9.019706,-0.198163,0.142202,0.01064,1,WALK
1759627921.84912,-0.303615,-3.58831,-8.921693,-0.271493,0.179959,-0.071293,1,WALK
1759627921.86872,-0.007632,-3.549105,-9.116222,-0.223488,0.185256,-0.057879,1,WALK
1759627921.88911,0.079308,-3.555838,-9.333646,-0.195861,0.12472,-0.028605,1,WALK
1759627921.90911,0.344017,-3.516933,-9.512911,-0.244251,0.112185,0.042225,1,WALK
1759627921.92911,0.226851,-3.527258,-9.733178,-0.223826,0.125138,0.13504,1,WALK
1759627921.94901,-0.118513,-3.500323,-9.786449,-0.110761,0.128637,0.1322,1,WALK
1759627921.96873,-0.1034,-3.499724,-9.85633,0.023837,0.133185,0.035409,1,WALK
1759627921.98910,0.130634,-3.572897,-9.919327,0.126249,0.122971,-0.024846,1,WALK
1759627922.00909,0.444124,-3.53848,-9.865308,0.172162,0.072088,-0.062936,1,WALK
1759627922.02910,0.530166,-3.618836,-9.921721,0.17594,0.000664,-0.079044,1,WALK
1759627922.04910,0.655113,-3.472191,-9.860669,0.179681,-0.145397,-0.067856,1,WALK
1759627922.06876,0.65661,-3.48102,-9.763554,0.173666,-0.221723,-0.062395,1,WALK
1759627922.08912,0.354192,-3.601179,-9.799168,0.168372,-0.265725,-0.03231,1,WALK
1759627922.10912,0.205602,-3.660585,-10.009559,0.248338,-0.189256,-0.03664,1,WALK
1759627922.12912,0.171185,-3.498976,-10.239851,0.393105,0.042286,-0.047714,1,WALK
1759627922.14916,0.554707,-3.239953,-9.99235,0.431499,0.10594,0.003033,1,WALK
1759627922.16878,0.839018,-3.10513,-9.64579,0.24628,-0.051677,0.050587,1,WALK
1759627922.18912,0.700304,-3.07206,-9.558551,-0.03097,-0.21657,0.084802,1,WALK
1759627922.20893,0.47076,-2.89055,-9.71567,-0.144924,-0.153059,0.030305,1,WALK
1759627922.22913,0.746093,-2.486528,-9.512014,-0.039448,-0.130272,-0.052531,1,WALK
1759627922.24917,0.87942,-2.551172,-9.160365,0.125407,-0.248411,-0.091883,1,WALK
1759627922.26880,0.832584,-2.669984,-8.977059,0.248948,-0.285858,-0.06045,1,WALK
1759627922.28913,0.725293,-2.699462,-8.728361,0.327493,-0.114123,0.021043,1,WALK
1759627922.30811,0.742053,-2.765901,-8.391527,0.289223,0.092165,0.122561,1,WALK
1759627922.32914,0.858022,-2.693327,-8.128015,0.134195,0.156252,0.219448,1,WALK
1759627922.34914,0.797718,-2.662053,-8.166921,-0.079754,0.157408,0.29137,1,WALK
1759627922.36882,0.85488,-2.670882,-8.583063,-0.215997,0.09392,0.341443,1,WALK
1759627922.38913,0.804901,-2.596362,-8.964639,-0.198995,-0.024378,0.366446,1,WALK
1759627922.40913,0.705242,-2.54758,-8.892514,-0.10193,-0.11784,0.354631,1,WALK
1759627922.42914,0.539294,-2.780566,-8.650251,-0.019463,-0.102695,0.339063,1,WALK
1759627922.44913,0.51221,-2.923171,-8.147019,0.030214,-0.114628,0.304452,1,WALK
1759627922.46884,0.390853,-3.067421,-7.797017,-0.011996,-0.072156,0.292983,1,WALK
1759627922.48913,0.249596,-3.177405,-7.581988,-0.100437,-0.042721,0.295698,1,WALK
1759627922.50913,0.240617,-3.107674,-7.544728,-0.240454,-0.093542,0.274595,1,WALK
1759627922.52914,0.093673,-3.27452,-7.733122,-0.362149,-0.131067,0.187842,1,WALK
1759627922.54913,0.011073,-3.350087,-8.136694,-0.403695,-0.11797,0.158429,1,WALK
1759627922.56886,0.040402,-3.271677,-8.536676,-0.344773,-0.022252,0.162619,1,WALK
1759627922.58914,0.002245,-3.173963,-8.984541,-0.268364,0.17023,0.194915,1,WALK
1759627922.60915,-0.059556,-3.164835,-9.302072,-0.213665,0.181813,0.095888,1,WALK
1759627922.62915,-0.07422,-3.145831,-9.445425,-0.23116,0.015891,-0.068598,1,WALK
1759627922.64915,-0.122852,-3.45199,-9.874585,-0.191092,-0.140002,-0.196591,1,WALK
1759627922.66888,-0.048183,-3.655647,-10.339958,-0.113297,-0.119152,-0.21051,1,WALK
1759627922.68915,0.021697,-3.729418,-10.554539,-0.046828,0.030049,-0.157185,1,WALK
1759627922.70915,0.191536,-3.740641,-10.788422,-0.115676,0.18181,-0.000299,1,WALK
1759627922.72905,0.124199,-3.517082,-11.336694,-0.281189,0.184447,0.181956,1,WALK
1759627922.74896,-0.129287,-2.852991,-11.679065,-0.300304,-0.088092,0.215317,1,WALK
1759627922.76891,-0.546327,-2.541146,-11.799524,-0.207899,-0.294012,0.06786,1,WALK
1759627922.78914,-0.734571,-2.653374,-11.66051,-0.040014,-0.324719,-0.175634,1,WALK
1759627922.80914,-0.525078,-2.556708,-11.424981,0.122253,-0.230613,-0.275267,1,WALK
1759627922.82914,-0.314239,-2.428469,-10.708965,0.333692,-0.235155,-0.349297,1,WALK
1759627922.84915,-0.454599,-2.429815,-9.850494,0.537602,-0.283142,-0.400796,1,WALK
1759627922.86893,-0.753575,-2.70051,-8.852261,0.697079,-0.287088,-0.453485,1,WALK
1759627922.88914,-1.043872,-2.99769,-7.91119,0.715881,-0.186451,-0.46284,1,WALK
1759627922.90885,-1.184531,-3.430143,-7.484723,0.482517,0.134964,-0.398453,1,WALK
1759627922.92915,-0.872238,-3.488651,-7.529315,0.082807,0.486623,-0.296943,1,WALK
1759627922.94916,-0.339228,-3.114407,-8.129362,-0.335359,0.655613,-0.173664,1,WALK
1759627922.96894,0.000748,-2.76665,-9.046042,-0.575004,0.568022,-0.089058,1,WALK
1759627922.98916,0.207098,-2.35365,-9.706542,-0.571953,0.286587,-0.018738,1,WALK
1759627923.00915,-0.003891,-2.168099,-9.997887,-0.402534,0.041992,0.013785,1,WALK
1759627923.02915,-0.284311,-2.090587,-9.801263,-0.121946,-0.138948,-0.076068,1,WALK
1759627923.04915,-0.368408,-2.139219,-9.242367,0.177024,-0.164249,-0.193352,1,WALK
1759627923.06896,-0.442927,-2.419939,-8.68347,0.341365,0.012994,-0.248297,1,WALK
1759627923.08915,-0.226701,-2.80376,-8.190115,0.378231,0.114631,-0.31116,1,WALK
1759627923.10916,0.247052,-2.895039,-7.670424,0.336322,-0.04026,-0.327811,1,WALK
1759627923.12917,0.247201,-3.122338,-7.612813,0.220183,-0.148115,-0.230562,1,WALK
1759627923.14916,0.18989,-3.126079,-7.542633,0.148003,-0.191933,-0.101516,1,WALK
1759627923.16898,-0.239719,-3.353079,-7.903858,0.085456,0.027135,-0.0173,1,WALK
1759627923.18916,-0.188394,-3.340061,-8.282441,0.027173,0.249205,0.033581,1,WALK
1759627923.20916,-0.019752,-3.142689,-8.371027,0.025103,0.049401,0.086718,1,WALK
1759627923.22917,-0.203507,-3.239056,-8.883985,-0.047403,-0.067014,0.105767,1,WALK
1759627923.24917,-0.234931,-3.157653,-9.506178,-0.12143,0.0204,0.091012,1,WALK
1759627923.26900,-0.181361,-3.058742,-10.16159,-0.135579,0.149719,0.084956,1,WALK
1759627923.28916,0.013617,-3.274819,-10.463858,-0.151338,0.073725,0.05517,1,WALK
1759627923.30916,0.285209,-3.396025,-10.841394,-0.276388,0.04508,0.065278,1,WALK
1759627923.32916,0.688333,-3.187431,-11.580305,-0.463707,0.227012,0.136368,1,WALK
1759627923.34821,1.072004,-2.748244,-12.099846,-0.563172,0.268755,0.228158,1,WALK
1759627923.36903,1.397765,-2.089839,-12.407052,-0.614477,0.219717,0.314534,1,WALK
1759627923.38864,1.171513,-1.668759,-12.588413,-0.589586,0.150666,0.356567,1,WALK
1759627923.40917,0.804302,-1.334767,-12.322806,-0.290302,-0.039075,0.221548,1,WALK
1759627923.42916,0.641496,-1.134702,-11.167155,0.17172,-0.273269,-0.061061,1,WALK
1759627923.44916,0.423474,-1.619079,-9.999533,0.510601,-0.309287,-0.308236,1,WALK
1759627923.46905,0.658705,-2.032827,-9.024345,0.579692,0.005773,-0.375128,1,WALK
1759627923.48898,1.16867,-2.231546,-8.400505,0.429486,0.249165,-0.229797,1,WALK
1759627923.50907,1.447295,-2.137424,-8.120982,0.239077,0.182046,0.010687,1,WALK
1759627923.52917,1.243488,-1.976413,-8.172158,0.114865,0.041366,0.17675,1,WALK
1759627923.54924,0.744597,-2.058714,-8.519916,0.066329,0.051384,0.244132,1,WALK
1759627923.56907,0.550966,-2.036717,-8.746318,0.106144,0.111732,0.242682,1,WALK
1759627923.58918,0.75148,-1.967286,-8.641123,0.163885,-0.002808,0.267128,1,WALK
1759627923.60917,0.743849,-2.212991,-8.459313,0.171484,-0.155678,0.355404,1,WALK
1759627923.62894,0.590021,-2.228403,-7.986009,0.169649,-0.279253,0.392846,1,WALK
1759627923.64919,0.257676,-2.550872,-7.65127,0.128318,-0.24927,0.372185,1,WALK
1759627923.66909,0.07856,-2.822614,-7.581838,0.074486,-0.136617,0.323236,1,WALK
1759627923.68917,0.180762,-2.900126,-7.724592,0.030177,0.004436,0.296485,1,WALK
1759627923.70918,0.311695,-3.02238,-7.921964,-0.002557,0.060109,0.292721,1,WALK
1759627923.72909,0.366762,-3.064428,-8.138191,0.015735,-0.045808,0.27924,1,WALK
1759627923.74918,0.238073,-3.18339,-8.29112,-0.001109,-0.175208,0.271042,1,WALK
1759627923.76911,-0.149338,-3.413533,-8.609848,-0.064399,-0.263632,0.197639,1,WALK
1759627923.78918,-0.381576,-3.601627,-8.959402,-0.067941,-0.207288,0.049545,1,WALK
1759627923.80900,-0.178218,-3.861249,-9.601646,-0.114843,-0.037878,-0.018849,1,WALK
1759627923.82919,-0.091279,-4.026149,-10.451738,-0.175218,0.032267,0.016619,1,WALK
1759627923.84918,-0.18974,-3.930082,-11.25185,-0.105302,-0.052939,0.05021,1,WALK
1759627923.86913,-0.478092,-3.82339,-11.40463,0.032183,-0.180334,0.011847,1,WALK
1759627923.88918,-0.545429,-3.717447,-10.911724,0.039379,-0.32821,-0.076775,1,WALK
1759627923.90918,-0.972944,-3.816657,-10.794408,-0.102426,-0.226226,-0.101952,1,WALK
1759627923.92918,-1.129315,-3.606416,-11.134833,-0.175876,0.062592,-0.126907,1,WALK
1759627923.94919,-0.864157,-3.144335,-11.706599,-0.18251,0.384467,-0.149152,1,WALK
1759627923.96914,-0.367211,-2.434005,-11.857733,-0.07866,0.35315,-0.206747,1,WALK
1759627923.98917,-0.159663,-2.007089,-11.517307,0.163629,-0.027174,-0.316384,1,WALK
1759627924.00917,-0.626982,-1.919102,-10.289979,0.494442,-0.496472,-0.485198,1,WALK
1759627924.02918,-1.244386,-2.567632,-9.293543,0.662417,-0.382803,-0.634563,1,WALK
1759627924.04864,-1.320402,-2.90671,-8.682123,0.655091,-0.217897,-0.685573,1,WALK
1759627924.06917,-0.595707,-3.149423,-7.691074,0.337856,0.309584,-0.542662,1,WALK
1759627924.08918,0.018555,-2.879327,-7.891289,0.002387,0.538434,-0.29666,1,WALK
1759627924.10916,0.195127,-2.588731,-8.258649,-0.145945,0.597503,-0.193927,1,WALK
1759627924.12919,0.237774,-2.108394,-8.978107,-0.333892,0.532479,-0.043276,1,WALK
1759627924.14919,0.140809,-1.657386,-9.534609,-0.206266,0.134273,-0.075565,1,WALK
1759627924.16868,0.1652,-1.401955,-9.379135,-0.065775,-0.074239,-0.155312,1,WALK
1759627924.18918,-0.043694,-1.711256,-8.618827,0.229315,-0.490471,-0.327512,1,WALK
1759627924.20882,-0.133776,-2.116774,-7.885004,0.365783,-0.512786,-0.361399,1,WALK
1759627924.22920,-0.099958,-2.577508,-7.197868,0.375001,-0.272182,-0.353216,1,WALK
1759627924.24919,0.064195,-2.932149,-6.623709,0.323322,-0.146228,-0.306537,1,WALK
1759627924.26870,0.253486,-2.974347,-6.41661,0.258708,-0.147301,-0.242442,1,WALK
1759627924.28920,0.310648,-3.209577,-6.503849,0.190845,-0.021897,-0.240157,1,WALK
1759627924.30919,0.36736,-3.562722,-6.783521,0.094833,0.198532,-0.230117,1,WALK
1759627924.32919,0.502184,-3.80723,-7.355885,0.005033,0.325022,-0.102115,1,WALK
1759627924.34920,0.663792,-3.888782,-7.677008,-0.083251,0.22738,0.075799,1,WALK
1759627924.36872,0.726491,-4.005649,-8.385242,-0.252298,0.257995,0.214886,1,WALK
1759627924.38920,0.815974,-3.711761,-9.390358,-0.394466,0.351563,0.342928,1,WALK
1759627924.40920,0.802806,-3.295319,-10.487351,-0.444383,0.439957,0.422481,1,WALK
1759627924.42921,0.562787,-3.275866,-11.110592,-0.390634,0.309256,0.430318,1,WALK
1759627924.44919,0.246154,-3.367594,-11.597363,-0.289664,0.069474,0.366814,1,WALK
1759627924.46875,-0.008679,-3.654001,-11.710938,-0.274143,0.032394,0.255341,1,WALK
1759627924.48846,0.201562,-3.744831,-11.852196,-0.384776,0.254811,0.170767,1,WALK
1759627924.50920,1.133206,-3.355474,-12.23048,-0.563581,0.528614,0.23354,1,WALK
1759627924.52920,1.582418,-2.693178,-12.653505,-0.632405,0.494742,0.409315,1,WALK
1759627924.54920,1.598878,-1.76737,-12.413786,-0.400586,-0.085646,0.434965,1,WALK
1759627924.56876,0.881515,-1.456423,-11.524789,0.049071,-0.706014,0.243611,1,WALK
1759627924.58920,0.162806,-1.945438,-10.255114,0.413852,-0.831985,-0.021619,1,WALK
1759627924.60921,0.084994,-2.544139,-9.201516,0.458137,-0.418875,-0.187752,1,WALK
1759627924.62921,0.695516,-2.646042,-8.628852,0.252459,0.167299,-0.15228,1,WALK
1759627924.64921,1.568052,-2.251747,-8.536975,0.061112,0.247604,0.060143,1,WALK
1759627924.66878,1.58571,-1.920748,-8.51438,0.054723,-0.093774,0.20803,1,WALK
1759627924.68920,1.076044,-1.756596,-8.417414,0.156423,-0.320739,0.251045,1,WALK
1759627924.70909,0.449362,-2.085799,-8.123077,0.250679,-0.263831,0.196588,1,WALK
1759627924.72922,0.300622,-2.176928,-7.589769,0.261642,-0.124545,0.173353,1,WALK
1759627924.74921,0.153528,-2.461838,-7.391349,0.131873,0.037026,0.182628,1,WALK
1759627924.76880,0.332644,-2.405424,-7.354838,-0.008751,0.060558,0.181832,1,WALK
1759627924.78921,0.361973,-2.521543,-7.518541,-0.032718,-0.003353,0.120498,1,WALK
1759627924.80921,0.408062,-2.775029,-7.58124,-0.003975,-0.040844,0.060721,1,WALK
1759627924.82921,0.501885,-3.008913,-7.441478,0.003649,-0.058424,0.039225,1,WALK
1759627924.84921,0.44592,-3.300557,-7.329848,-0.065706,-0.029998,0.053629,1,WALK
1759627924.86882,0.417788,-3.532345,-7.757513,-0.198582,0.061714,0.091794,1,WALK
1759627924.88921,0.547823,-3.487454,-8.461258,-0.36266,0.125014,0.197628,1,WALK
1759627924.90887,0.422876,-3.470545,-9.258378,-0.50775,0.074285,0.264796,1,WALK
1759627924.92922,-0.079607,-3.479822,-10.195708,-0.526147,-0.14338,0.250471,1,WALK
1759627924.94922,-0.563386,-3.350685,-10.971279,-0.386961,-0.202227,0.162206,1,WALK
1759627924.96884,-0.981323,-3.615394,-11.630134,-0.158515,-0.115729,0.041009,1,WALK
1759627924.98925,-0.782605,-3.592949,-11.803265,0.122274,-0.099477,-0.08193,1,WALK
1759627925.00875,-0.543783,-3.598036,-11.152491,0.306197,-0.242936,-0.180488,1,WALK
1759627925.02922,-0.584036,-4.082862,-10.56621,0.176784,-0.227266,-0.201532,1,WALK
1759627925.04919,-0.404171,-4.003853,-10.559178,-0.135657,-0.027869,-0.129159,1,WALK
1759627925.06887,-0.00015,-3.062184,-11.85474,-0.427955,0.397041,0.015014,1,WALK
1759627925.08838,0.055216,-2.199523,-12.560132,-0.360097,0.364512,0.071028,1,WALK
1759627925.10923,-0.250793,-1.572542,-12.437578,0.091103,0.085379,-0.072236,1,WALK
1759627925.12921,-0.863259,-1.691503,-11.099369,0.655427,-0.192002,-0.449618,1,WALK
1759627925.14921,-1.062427,-2.377592,-9.57531,0.8641,-0.113752,-0.705879,1,WALK
1759627925.16889,-0.66903,-3.000234,-8.432378,0.607856,0.280742,-0.713009,1,WALK
1759627925.18921,0.162506,-3.025523,-8.08477,0.102982,0.580904,-0.51825,1,WALK
1759627925.20869,0.602591,-2.501791,-8.527398,-0.208361,0.404895,-0.286918,1,WALK
1759627925.22922,0.363021,-1.836652,-9.025691,-0.173762,0.192272,-0.206333,1,WALK
1759627925.24922,0.257676,-1.570746,-9.133879,0.041601,0.304176,-0.25144,1,WALK
1759627925.26890,0.2478,-1.789815,-8.630498,0.199238,0.354116,-0.294504,1,WALK
1759627925.28905,0.387711,-1.893514,-7.997082,0.26359,0.123801,-0.311205,1,WALK
1759627925.30922,0.523432,-1.993472,-7.42831,0.30401,-0.224077,-0.327893,1,WALK
1759627925.32923,0.406715,-2.264615,-6.947674,0.306136,-0.376654,-0.310119,1,WALK
1759627925.34923,0.138714,-2.813037,-6.733243,0.236634,-0.229832,-0.308825,1,WALK
1759627925.36892,0.506523,-3.011008,-6.710049,0.145316,0.007639,-0.291261,1,WALK
1759627925.38923,0.834828,-3.158251,-6.909516,0.034672,0.105628,-0.149254,1,WALK
1759627925.40923,0.903362,-3.341707,-7.503578,-0.076687,0.075473,0.012263,1,WALK
1759627925.42830,0.927753,-3.426551,-8.31207,-0.161361,-0.015075,0.128352,1,WALK
1759627925.44924,0.787094,-3.328389,-9.069236,-0.169099,-0.056935,0.182827,1,WALK
1759627925.46894,0.530765,-3.353379,-9.935787,-0.145776,0.000781,0.231089,1,WALK
1759627925.48923,0.553809,-3.314174,-10.305093,-0.119742,-0.015024,0.255634,1,WALK
1759627925.50923,0.576554,-3.364302,-10.578481,-0.182358,0.007246,0.289595,1,WALK
1759627925.52925,0.377685,-3.360112,-10.886136,-0.167197,0.035032,0.241402,1,WALK
1759627925.54924,0.216376,-3.517681,-10.927585,-0.129882,0.101987,0.184576,1,WALK
1759627925.56896,0.300921,-3.899706,-10.67799,-0.243009,0.147536,0.150449,1,WALK
1759627925.58923,0.839766,-3.675399,-10.708665,-0.481205,0.208852,0.183442,1,WALK
1759627925.60924,1.666813,-2.636166,-11.471518,-0.804023,0.405686,0.376089,1,WALK
1759627925.62924,1.425897,-1.896956,-12.128876,-0.869856,0.189437,0.476843,1,WALK
1759627925.64924,0.891541,-1.145326,-12.147581,-0.410895,-0.279501,0.355733,1,WALK
1759627925.66898,0.244508,-1.101782,-10.807726,0.255639,-0.628684,-0.027386,1,WALK
1759627925.68924,-0.010175,-1.975067,-9.594763,0.631424,-0.400762,-0.389871,1,WALK
1759627925.70924,0.741754,-2.540248,-8.478167,0.528978,0.153227,-0.400817,1,WALK
1759627925.72924,1.655142,-2.596811,-7.857022,0.148702,0.273236,-0.088169,1,WALK
1759627925.74926,1.653795,-2.323573,-8.091205,-0.128956,0.040234,0.218452,1,WALK
1759627925.76900,0.931943,-1.952023,-8.578275,-0.166146,-0.21099,0.310014,1,WALK
1759627925.78924,0.38382,-1.880645,-8.843433,-0.066924,-0.131099,0.217329,1,WALK
1759627925.80924,0.314688,-1.96564,-8.784924,0.046868,-0.011187,0.143823,1,WALK
1759627925.82924,0.362572,-2.018911,-8.613589,0.144638,0.010429,0.135162,1,WALK
1759627925.84927,0.377536,-2.120963,-8.285883,0.16533,-0.032291,0.147516,1,WALK
1759627925.86902,0.277727,-2.249801,-8.009951,0.118041,-0.077068,0.09316,1,WALK
1759627925.88924,0.418985,-2.552219,-7.948001,0.064652,-0.083976,-0.030247,1,WALK
1759627925.90925,0.781856,-2.809296,-7.979276,0.060438,-0.111498,-0.098814,1,WALK
1759627925.92923,0.981922,-3.015796,-7.9486,0.069587,-0.118306,-0.052756,1,WALK
1759627925.94925,0.836025,-3.429544,-8.106468,0.006059,-0.065467,0.05381,1,WALK
1759627925.96904,0.849642,-3.426851,-8.47727,-0.068735,0.002391,0.112204,1,WALK
1759627925.98928,0.868048,-3.364901,-9.314193,-0.114165,0.048768,0.126791,1,WALK
1759627926.00924,0.726341,-3.337367,-10.042778,0.030627,-0.139883,0.089778,1,WALK
1759627926.02925,0.429011,-3.533243,-10.324246,0.227026,-0.378891,0.073125,1,WALK
1759627926.04924,0.068684,-3.90614,-10.305841,0.282846,-0.372725,0.030358,1,WALK
1759627926.06906,-0.137367,-4.150797,-10.717494,0.257764,-0.139509,-0.010729,1,WALK
1759627926.08924,0.109684,-3.70787,-10.708217,0.343438,-0.085681,-0.025385,1,WALK
1759627926.10923,-0.051924,-3.610905,-10.460566,0.3914,-0.15665,-0.011177,1,WALK
1759627926.12929,-0.333542,-3.735703,-10.520721,0.292414,-0.168931,-0.065154,1,WALK
1759627926.14923,-0.5366,-3.834164,-11.336694,0.067224,0.128509,-0.161286,1,WALK
1759627926.16908,-0.379631,-3.794061,-11.741614,-0.054734,0.343909,-0.216942,1,WALK
1759627926.18925,0.0205,-3.096301,-12.454338,-0.09928,0.509936,-0.266965,1,WALK
1759627926.20925,0.419883,-2.102109,-11.670985,0.260611,0.02782,-0.32754,1,WALK
1759627926.22926,0.092326,-1.884835,-10.094702,0.683356,-0.646747,-0.462898,1,WALK
1759627926.24931,-0.380977,-2.137424,-8.482806,0.876478,-0.83381,-0.532961,1,WALK
1759627926.26910,-1.14802,-3.279458,-7.483526,0.814957,-0.624596,-0.511617,1,WALK
1759627926.28925,-1.573739,-4.23639,-7.217171,0.514088,-0.164276,-0.530572,1,WALK
1759627926.30926,-1.332822,-4.344429,-7.21762,0.089905,0.295597,-0.568213,1,WALK
1759627926.32926,-0.648679,-3.522619,-7.574207,-0.255449,0.537569,-0.530278,1,WALK
1759627926.34926,0.053121,-2.315941,-7.842058,-0.288736,0.395182,-0.407261,1,WALK
1759627926.36913,0.209343,-2.135478,-7.943961,-0.12206,0.178862,-0.309857,1,WALK
1759627926.38926,0.17762,-2.25025,-8.170961,-0.085717,0.319584,-0.21925,1,WALK
1759627926.40925,0.001496,-2.452111,-8.343643,-0.138032,0.49384,-0.175584,1,WALK
1759627926.42927,-0.194379,-2.378939,-8.100632,-0.034425,0.167646,-0.203565,1,WALK
1759627926.44927,-0.348057,-2.468871,-7.400328,0.061411,-0.32363,-0.34603,1,WALK
1759627926.46915,-0.076465,-2.957587,-6.815993,-0.044993,-0.442616,-0.501448,1,WALK
1759627926.48926,0.165948,-3.763386,-6.893655,-0.301957,-0.172543,-0.456911,1,WALK
1759627926.50926,0.313192,-4.205116,-7.538144,-0.473078,0.077744,-0.324835,1,WALK
1759627926.52933,0.823456,-3.98889,-8.374319,-0.491312,-0.008889,-0.1774,1,WALK
1759627926.54928,1.031452,-3.702783,-9.102605,-0.483353,-0.208317,-0.031657,1,WALK
1759627926.56917,0.676811,-3.646519,-9.929802,-0.437436,-0.200283,0.017369,1,WALK
1759627926.58926,0.779313,-3.69545,-10.649259,-0.398833,-0.039999,0.036254,1,WALK
1759627926.60927,0.996437,-3.675848,-11.317391,-0.415624,-0.023619,0.151689,1,WALK
1759627926.62925,0.841712,-3.250428,-11.774534,-0.284386,-0.196435,0.168165,1,WALK
1759627926.64927,0.62743,-3.177555,-11.405378,-0.057082,-0.343294,0.049569,1,WALK
1759627926.66918,0.361375,-3.652654,-10.95467,0.029941,-0.120093,-0.076034,1,WALK
1759627926.68925,0.686837,-3.911078,-10.404153,-0.06881,0.126205,-0.127238,1,WALK
1759627926.70927,1.856404,-3.489549,-10.542717,-0.366031,0.34927,-0.011421,1,WALK
1759627926.72917,2.659659,-2.806453,-11.310658,-0.784391,0.459567,0.314311,1,WALK
1759627926.74926,2.380285,-2.104503,-12.220155,-0.851629,-0.006751,0.557995,1,WALK
1759627926.76921,1.487099,-1.110161,-12.626421,-0.381658,-0.402467,0.561276,1,WALK
1759627926.78927,0.415394,-1.286135,-11.696124,0.287982,-0.339327,0.352909,1,WALK
1759627926.80835,0.135572,-1.994669,-9.990405,0.666914,-0.099124,0.133437,1,WALK
1759627926.82931,0.65242,-2.309656,-8.542661,0.551387,0.074461,0.103796,1,WALK
1759627926.84929,1.033547,-2.303671,-7.669077,0.271443,-0.143897,0.157403,1,WALK
1759627926.86922,0.71437,-2.217629,-7.603386,0.150875,-0.375839,0.147776,1,WALK
1759627926.88927,0.342969,-2.385672,-7.515998,0.235536,-0.341259,0.079467,1,WALK
1759627926.90926,0.247201,-2.620903,-7.380426,0.342401,-0.06661,0.065527,1,WALK
1759627926.92928,0.2891,-2.893842,-7.310844,0.372414,0.250116,0.148585,1,WALK
1759627926.94928,0.549619,-2.82441,-7.193529,0.342162,0.23587,0.291966,1,WALK
1759627926.96924,0.506972,-2.810194,-7.321618,0.185347,0.120195,0.355788,1,WALK
1759627926.98927,0.092626,-2.978985,-7.538593,-0.03347,-0.082272,0.220412,1,WALK
1759627927.00928,0.281618,-2.594566,-7.712172,-0.254074,-0.178102,0.068928,1,WALK
1759627927.02928,0.638504,-2.600103,-7.863157,-0.341241,-0.28867,0.053557,1,WALK
1759627927.04927,0.763301,-3.051111,-8.335712,-0.341602,-0.261114,0.133139,1,WALK
1759627927.06925,0.445471,-3.498078,-8.818294,-0.319006,-0.149236,0.235971,1,WALK
1759627927.08928,0.27668,-3.424307,-9.416395,-0.351773,-0.059216,0.321746,1,WALK
1759627927.10926,-0.340276,-3.20015,-10.002226,-0.320969,-0.186781,0.293629,1,WALK
1759627927.12928,-0.845602,-3.004274,-10.364499,-0.13788,-0.367937,0.112365,1,WALK
1759627927.14928,-1.035492,-3.496283,-10.321104,-0.048579,-0.402205,-0.047664,1,WALK
1759627927.16925,-1.302446,-3.8813,-10.418817,-0.0082,-0.280617,-0.174274,1,WALK
1759627927.18927,-1.221192,-3.871274,-10.4881,0.004732,-0.228073,-0.18362,1,WALK
1759627927.20906,-1.228525,-3.790171,-11.026047,-0.037814,-0.058004,-0.136692,1,WALK
1759627927.22929,-1.1148,-3.593996,-11.497106,-0.006722,0.015283,-0.113723,1,WALK
1759627927.24929,-0.924311,-3.244891,-11.701062,0.102419,0.162715,-0.12088,1,WALK
1759627927.26926,-0.60693,-2.9522,-11.905766,0.193371,0.476306,-0.139466,1,WALK
1759627927.28929,-0.278924,-2.730886,-11.438747,0.29581,0.439055,-0.129662,1,WALK
1759627927.30928,-0.102801,-2.445527,-10.383503,0.395353,0.140496,-0.132338,1,WALK
1759627927.32929,-0.356287,-2.590676,-9.560047,0.384426,-0.028705,-0.169085,1,WALK
1759627927.34932,-0.729334,-2.836381,-9.105448,0.299464,0.148684,-0.206291,1,WALK
1759627927.36899,-0.684442,-2.83683,-8.633042,0.192529,0.360628,-0.181987,1,WALK
1759627927.38929,-0.441431,-2.657564,-8.345289,0.057195,0.436652,-0.097547,1,WALK
1759627927.40928,-0.310498,-2.459893,-8.232163,-0.051753,0.447125,-0.028973,1,WALK
1759627927.42929,-0.075268,-2.228553,-8.703821,-0.064541,0.553177,0.018619,1,WALK
1759627927.44929,0.306607,-1.837699,-8.682872,0.071576,0.581336,0.068226,1,WALK
1759627927.46926,0.409408,-1.960402,-8.180389,0.180544,0.464438,0.126678,1,WALK
1759627927.48929,0.374992,-2.223914,-7.540837,0.220538,0.166128,0.155203,1,WALK
1759627927.50929,0.075118,-2.15972,-7.13921,0.198362,-0.065918,0.147518,1,WALK
1759627927.52929,-0.467169,-2.499696,-6.981941,0.161814,-0.074179,0.053413,1,WALK
1759627927.54929,-0.568174,-2.724751,-6.996755,0.12799,0.017086,-0.058751,1,WALK
1759627927.56927,-0.193033,-2.82426,-7.079954,0.045416,0.192815,-0.076732,1,WALK
1759627927.58929,0.192883,-2.989161,-7.534852,-0.095561,0.305577,-0.030284,1,WALK
1759627927.60930,0.67307,-3.190124,-7.961618,-0.188018,0.136503,0.038042,1,WALK
1759627927.62931,0.76405,-3.269731,-8.678233,-0.189088,0.033302,0.086264,1,WALK
1759627927.64929,0.581492,-3.218106,-9.347711,-0.144082,0.2103,0.112689,1,WALK
1759627927.66838,0.590769,-3.294721,-9.607333,-0.168547,0.277534,0.096197,1,WALK
1759627927.68929,0.878522,-3.05126,-10.216358,-0.309084,0.265661,0.042276,1,WALK
1759627927.70930,1.146074,-2.969109,-10.609905,-0.358124,0.049882,-0.051866,1,WALK
1759627927.72919,1.063175,-3.215263,-10.550798,-0.233916,-0.378543,-0.103311,1,WALK
1759627927.74929,0.765546,-3.728371,-10.572795,-0.165346,-0.328378,-0.130358,1,WALK
1759627927.76927,0.711676,-4.032883,-10.253169,-0.174298,-0.07546,-0.118412,1,WALK
1759627927.78930,1.725621,-3.232023,-10.523414,-0.437675,0.466816,0.115263,1,WALK
1759627927.80929,2.343026,-2.476951,-11.508778,-0.774209,0.84418,0.477003,1,WALK
1759627927.82930,2.074127,-1.78772,-11.793987,-0.607922,0.258703,0.559184,1,WALK
1759627927.84931,1.29227,-1.398363,-11.399093,-0.165911,-0.354885,0.419981,1,WALK
1759627927.86927,0.538396,-2.114978,-10.701034,0.070119,-0.254945,0.27615,1,WALK
1759627927.88930,0.620098,-2.476203,-9.869199,-0.062648,0.164217,0.266328,1,WALK
1759627927.90930,1.126771,-1.849072,-9.519346,-0.296077,0.281183,0.343251,1,WALK
1759627927.92930,0.851438,-1.416021,-9.556606,-0.278913,-0.048826,0.308119,1,WALK
1759627927.94931,0.361973,-1.44116,-9.180417,-0.022457,-0.412038,0.073803,1,WALK
1759627927.96928,0.422427,-1.671901,-8.504204,0.176516,-0.388976,-0.148782,1,WALK
1759627927.98930,0.67307,-2.201917,-7.769484,0.236349,-0.162347,-0.177009,1,WALK
1759627928.00931,0.935983,-2.48982,-7.192481,0.182008,-0.047246,-0.078634,1,WALK
1759627928.02931,1.170465,-2.645892,-7.343316,0.009502,0.013506,0.127278,1,WALK
1759627928.04929,0.992397,-2.404527,-7.724443,-0.082589,-0.069393,0.207961,1,WALK
1759627928.06928,0.796671,-2.124106,-7.972243,-0.051184,-0.180219,0.157315,1,WALK
1759627928.08934,0.659752,-2.520346,-8.101679,0.01416,-0.260793,0.078111,1,WALK
1759627928.10928,0.804452,-2.784008,-8.062474,0.055402,-0.239934,0.019269,1,WALK
1759627928.12930,1.051503,-3.098995,-8.239944,-0.040958,-0.089785,0.078007,1,WALK
1759627928.14929,1.252317,-3.321656,-8.675839,-0.216108,-0.033552,0.242534,1,WALK
1759627928.16887,1.1561,-3.2826,-9.006987,-0.292383,-0.028285,0.311627,1,WALK
1759627928.18934,0.663194,-3.15466,-10.163386,-0.261854,-0.370833,0.354823,1,WALK
1759627928.20931,0.455198,-3.041534,-10.515633,-0.165431,-0.482617,0.309849,1,WALK
1759627928.22931,-0.100257,-2.977639,-11.084106,0.050549,-0.392661,0.203722,1,WALK
1759627928.24931,-0.634613,-3.316568,-11.348217,0.217066,-0.199432,0.138057,1,WALK
1759627928.26928,-0.688333,-3.304298,-11.038167,0.379833,-0.165339,-0.010789,1,WALK
1759627928.28931,-0.312892,-3.178303,-10.654197,0.359803,-0.057799,-0.086553,1,WALK
1759627928.30931,-0.066738,-3.303549,-10.142437,0.111352,-0.090871,-0.002146,1,WALK
1759627928.32932,-0.512808,-3.271527,-10.918308,-0.250972,0.018664,0.057536,1,WALK
1759627928.34932,-0.576105,-2.507777,-11.918336,-0.424352,0.328802,0.028128,1,WALK
1759627928.36880,-0.680103,-1.89531,-12.764387,-0.242515,0.461592,-0.050722,1,WALK
1759627928.38931,-0.450708,-1.403002,-12.14354,0.249468,0.149621,-0.248787,1,WALK
1759627928.40931,-0.378134,-1.426196,-10.62846,0.608392,-0.164709,-0.411344,1,WALK
1759627928.42933,-0.720505,-2.410811,-9.163807,0.581966,-0.105048,-0.493817,1,WALK
1759627928.44931,-0.551564,-2.690634,-8.137143,0.264841,0.069265,-0.461358,1,WALK
1759627928.46929,-0.307356,-2.513164,-7.907898,-0.125465,0.227513,-0.324942,1,WALK
1759627928.48931,-0.300921,-2.226009,-8.672696,-0.283538,0.422523,-0.267677,1,WALK
1759627928.50932,0.187047,-1.66397,-9.08824,-0.16538,0.496065,-0.273374,1,WALK
1759627928.52935,0.51206,-1.590797,-9.118616,-0.030964,0.408029,-0.220544,1,WALK
1759627928.54932,0.517896,-1.578976,-8.768165,0.097556,0.192361,-0.183731,1,WALK
1759627928.56929,0.322768,-1.648857,-8.005013,0.206149,-0.020444,-0.195192,1,WALK
1759627928.58932,0.189441,-1.875707,-7.708432,0.184479,0.009475,-0.231116,1,WALK
1759627928.60932,0.062399,-2.343624,-7.299173,0.152735,-0.016538,-0.312133,1,WALK
1759627928.62908,0.31783,-2.532916,-6.868366,0.181184,-0.153569,-0.351312,1,WALK
1759627928.64932,0.459986,-2.821866,-6.785916,0.140313,-0.054345,-0.261645,1,WALK
1759627928.66930,0.525827,-3.18354,-7.275829,0.011896,0.220414,-0.129045,1,WALK
1759627928.68931,0.782605,-3.201197,-7.648726,-0.045918,0.208937,-0.025541,1,WALK
1759627928.70932,0.928651,-3.040786,-8.194604,-0.097806,0.07514,0.049505,1,WALK
1759627928.72933,0.454898,-3.266439,-8.662072,-0.134264,-0.026659,0.08003,1,WALK
1759627928.74933,0.178518,-3.282151,-9.352051,-0.108263,-0.006564,0.059865,1,WALK
1759627928.76930,0.61935,-3.148076,-10.319907,-0.082393,0.193111,0.009951,1,WALK
1759627928.78932,1.095497,-3.006519,-11.042657,-0.063481,0.293291,0.020788,1,WALK
1759627928.80932,1.201889,-3.057994,-11.139472,0.016854,0.10918,0.034749,1,WALK
1759627928.82932,1.072303,-3.053505,-11.037419,0.084508,-0.073034,0.036009,1,WALK
1759627928.84932,0.958578,-3.151518,-10.922647,0.07178,-0.013537,0.005942,1,WALK
1759627928.86844,0.993743,-3.26629,-10.569652,-0.049478,0.112668,-0.019139,1,WALK
1759627928.88930,2.016217,-2.466028,-10.579229,-0.439372,0.413468,0.112373,1,WALK
1759627928.90931,2.559701,-1.819294,-11.066599,-0.851337,0.401206,0.345572,1,WALK
1759627928.92931,2.065149,-1.022923,-11.385027,-0.694434,-0.174553,0.393227,1,WALK
1759627928.94932,1.083526,-0.857274,-10.821492,-0.190838,-0.5226,0.29088,1,WALK
1759627928.96888,0.486472,-1.568651,-9.751883,0.078287,-0.403084,0.184294,1,WALK
1759627928.98931,0.365116,-2.032677,-9.516652,-0.056703,0.156631,0.113972,1,WALK
1759627929.00932,1.195904,-1.569998,-9.324518,-0.23859,0.393685,0.120213,1,WALK
1759627929.02931,1.533935,-1.342549,-9.512911,-0.254567,0.02992,0.171013,1,WALK
1759627929.04865,1.258452,-1.58975,-9.307309,-0.12325,-0.429498,0.169512,1,WALK
1759627929.06864,0.65242,-1.851915,-8.839542,0.036765,-0.524308,0.122572,1,WALK
1759627929.08938,0.368557,-2.078466,-8.289325,0.07182,-0.277975,0.097914,1,WALK
1759627929.10933,0.253935,-2.394202,-8.032397,-0.004859,-0.076472,0.111882,1,WALK
1759627929.12936,0.617255,-2.304569,-7.935731,-0.051327,-0.147698,0.16038,1,WALK
1759627929.14938,0.616956,-2.116774,-7.934684,-0.022118,-0.303864,0.166024,1,WALK
1759627929.16931,0.210091,-2.22137,-7.745841,0.073247,-0.324596,0.086175,1,WALK
1759627929.18934,0.245855,-2.491316,-7.530063,0.147599,-0.260619,0.028541,1,WALK
1759627929.20931,0.324714,-2.669385,-7.423671,0.12814,-0.197358,0.011554,1,WALK
1759627929.22934,0.49141,-2.79972,-7.737312,-0.035949,-0.050597,0.05665,1,WALK
1759627929.24934,0.725892,-2.801964,-8.921544,-0.308281,-0.013618,0.134565,1,WALK
1759627929.26932,0.645836,-2.624793,-9.963171,-0.331491,-0.292626,0.189906,1,WALK
1759627929.28934,0.006135,-2.623446,-10.427197,-0.150634,-0.73205,0.129662,1,WALK
1759627929.30934,-0.666336,-2.90701,-10.424204,0.041185,-0.873991,-0.101177,1,WALK
1759627929.32935,-0.879719,-3.162142,-10.47568,0.13559,-0.52743,-0.284197,1,WALK
1759627929.34934,-0.657059,-3.645621,-10.43827,0.153355,-0.229324,-0.365025,1,WALK
1759627929.36932,-0.389207,-3.848978,-10.504709,0.154294,-0.158988,-0.390426,1,WALK
1759627929.38934,-0.006434,-3.800496,-10.756699,-0.012784,-0.086564,-0.312383,1,WALK
1759627929.40934,0.550068,-3.250129,-11.443236,-0.365606,0.070132,-0.135314,1,WALK
1759627929.42935,0.896329,-2.185756,-12.939313,-0.622896,0.389473,0.121717,1,WALK
1759627929.44932,0.374842,-1.289727,-13.959991,-0.437879,0.358302,0.260677,1,WALK
1759627929.46926,-0.293888,-0.738761,-13.288418,0.243167,-0.071355,0.077018,1,WALK
1759627929.48934,-0.868197,-0.935684,-11.329961,0.841764,-0.494371,-0.28958,1,WALK
1759627929.50934,-1.160889,-1.958607,-9.702502,0.845772,-0.238597,-0.458448,1,WALK
1759627929.52938,-1.058237,-2.64679,-8.511537,0.413913,0.142682,-0.408291,1,WALK
1759627929.54895,-0.724396,-2.404676,-8.498069,0.04455,0.332796,-0.309887,1,WALK
1759627929.56890,-0.422876,-1.972822,-9.177125,-0.062441,0.367736,-0.250309,1,WALK
1759627929.58934,-0.150685,-1.896507,-9.452458,0.016159,0.351972,-0.218092,1,WALK
1759627929.60934,0.062698,-1.521964,-9.296835,0.153355,0.317241,-0.140688,1,WALK
1759627929.62939,-0.120458,-1.373673,-8.714595,0.29426,0.255068,-0.120519,1,WALK
1759627929.64934,-0.071527,-1.255908,-8.099435,0.351907,0.174195,-0.15013,1,WALK
1759627929.66901,-0.143353,-1.45747,-7.577199,0.271554,0.083494,-0.142863,1,WALK
1759627929.68934,-0.45819,-1.661576,-7.451204,0.203611,-0.02479,-0.156258,1,WALK
1759627929.70933,-0.42542,-1.748066,-7.204602,0.173866,-0.149993,-0.197202,1,WALK
1759627929.72895,-0.208595,-1.929128,-7.053318,0.106055,-0.253944,-0.230674,1,WALK
1759627929.74934,0.044742,-2.051382,-7.114071,0.046322,-0.277673,-0.201467,1,WALK
1759627929.76843,0.059406,-2.479196,-7.548768,0.023135,-0.152164,-0.148872,1,WALK
1759627929.78934,0.127491,-2.554464,-7.957279,0.088,-0.095089,-0.082756,1,WALK
1759627929.80935,0.018256,-2.661604,-7.822455,0.141724,-0.313714,-0.042081,1,WALK
1759627929.82935,-0.234781,-2.955941,-8.39452,0.015914,-0.221348,-0.054267,1,WALK
1759627929.84936,-0.068384,-3.106177,-9.595212,-0.154668,0.28356,-0.062832,1,WALK
1759627929.86933,0.599748,-2.764405,-10.513837,-0.191231,0.466578,0.01888,1,WALK
1759627929.88935,1.260996,-2.675371,-10.646267,-0.099624,0.220443,0.105269,1,WALK
1759627929.90935,1.115548,-2.873192,-10.298509,-0.089961,-0.212415,0.220697,1,WALK
1759627929.92935,-0.032471,-3.383755,-10.636989,-0.157144,-0.164615,0.224154,1,WALK
1759627929.94935,-0.138714,-3.089867,-10.563966,-0.252289,0.215959,0.132008,1,WALK
1759627929.96933,0.240468,-3.239654,-10.548703,-0.430473,0.479189,0.022574,1,WALK
1759627929.98935,1.676839,-2.674623,-10.931925,-0.787547,0.670895,0.180224,1,WALK
1759627930.00936,1.660528,-2.261024,-11.745654,-1.06335,0.617612,0.43883,1,WALK
1759627930.02935,1.26339,-1.198298,-12.287641,-0.857993,-0.012365,0.46589,1,WALK
1759627930.04841,0.770783,-0.899771,-12.162993,-0.594357,-0.353753,0.365694,1,WALK
1759627930.06906,-0.497395,-1.479766,-10.197055,0.358775,-0.671978,-0.244603,1,WALK
1759627930.08894,-0.207697,-2.37834,-9.102156,0.518066,-0.038898,-0.407604,1,WALK
1759627930.10933,0.837971,-2.719813,-7.983316,0.212281,0.50621,-0.22831,1,WALK
1759627930.12934,1.410634,-2.438644,-8.014889,-0.158661,0.389606,0.078597,1,WALK
1759627930.14934,1.140239,-1.821838,-8.566454,-0.273288,-0.028117,0.232871,1,WALK
1759627930.16891,0.712874,-1.651101,-8.836849,-0.226843,-0.161248,0.239918,1,WALK
1759627930.18934,0.011522,-1.725471,-8.995764,0.158616,0.091056,0.083928,1,WALK
1759627930.20933,0.407014,-1.979406,-8.587552,0.27366,0.305108,0.091066,1,WALK
1759627930.22936,0.515053,-2.061557,-8.28319,0.267699,0.3016,0.121117,1,WALK
1759627930.24936,0.605434,-2.091934,-7.951892,0.130675,0.14648,0.195821,1,WALK
1759627930.26934,0.345214,-2.054075,-7.938275,-0.071037,-0.118042,0.179881,1,WALK
1759627930.28936,0.331896,-2.073828,-8.55538,-0.121562,-0.17021,0.022172,1,WALK
1759627930.30938,0.792481,-2.231546,-8.85675,0.076288,-0.10004,-0.098308,1,WALK
1759627930.32937,1.041627,-2.596512,-8.709657,0.298948,-0.0064,-0.062666,1,WALK
1759627930.34936,1.06931,-2.909105,-8.299949,0.302242,-0.009391,0.09464,1,WALK
1759627930.36934,0.775123,-3.08044,-8.290821,0.060921,-0.123953,0.205173,1,WALK
1759627930.38937,0.378433,-2.780416,-8.823531,-0.18505,-0.30442,0.150563,1,WALK
1759627930.40937,-0.122254,-2.756025,-9.971551,-0.278858,-0.355115,0.011313,1,WALK
1759627930.42940,-0.184653,-2.661454,-10.939706,-0.165342,-0.382829,-0.123748,1,WALK
1759627930.44939,-0.105345,-2.581249,-11.403134,0.064949,-0.43466,-0.147867,1,WALK
1759627930.46933,-0.404919,-2.935591,-11.476306,0.292649,-0.293786,-0.155275,1,WALK
1759627930.48936,-0.288501,-2.872593,-11.085603,0.422949,-0.092459,-0.251037,1,WALK
1759627930.50936,-0.241515,-3.123685,-10.420613,0.42337,-0.043418,-0.355375,1,WALK
1759627930.52925,0.052373,-3.228581,-9.86456,0.221599,-0.290628,-0.343007,1,WALK
1759627930.54936,-0.225803,-4.11683,-11.311256,-0.174235,-0.057827,-0.300127,1,WALK
1759627930.56893,0.003292,-3.031807,-14.129381,-0.403372,0.950343,-0.260329,1,WALK
1759627930.58936,0.606032,-1.671901,-14.665233,-0.081553,1.654998,-0.120171,1,WALK
1759627930.60936,1.047314,-1.196951,-11.924621,0.453266,1.136137,-0.096464,1,WALK
1759627930.62937,1.302745,-1.177498,-9.098565,0.849777,-0.055402,-0.079469,1,WALK
1759627930.64937,0.574758,-2.186355,-7.66773,0.989124,-1.231397,-0.163004,1,WALK
1759627930.66934,-0.233584,-3.011906,-8.298153,0.735163,-1.393533,-0.160455,1,WALK
1759627930.68936,-0.800112,-3.411438,-8.345888,0.196491,-0.740083,-0.112593,1,WALK
1759627930.70935,-1.017087,-2.755726,-8.624962,-0.236147,-0.049693,-0.1847,1,WALK
1759627930.72937,-0.429759,-1.745972,-9.24521,-0.245644,0.400209,-0.299465,1,WALK
1759627930.74937,0.066738,-1.57329,-9.137471,0.05759,0.404308,-0.359512,1,WALK
1759627930.76934,0.354491,-1.863886,-8.167071,0.301777,0.07068,-0.322502,1,WALK
1759627930.78840,0.258125,-2.115427,-7.339575,0.28353,-0.274121,-0.226931,1,WALK
1759627930.80873,-0.289848,-2.267309,-7.041646,0.148406,-0.372924,-0.194572,1,WALK
1759627930.82937,-0.699257,-2.330905,-7.158663,0.042949,-0.104792,-0.276248,1,WALK
1759627930.84937,-0.101155,-2.410213,-6.918345,-0.028774,0.149906,-0.306801,1,WALK
1759627930.86934,0.460585,-2.46528,-7.20131,-0.071329,0.088775,-0.206832,1,WALK
1759627930.88937,0.630124,-2.449867,-7.369951,-0.009621,-0.066955,-0.102545,1,WALK
1759627930.90937,0.550217,-2.480393,-7.464223,0.000653,-0.128096,0.001939,1,WALK
1759627930.92937,0.490811,-2.608932,-7.833977,-0.043763,0.027914,0.118295,1,WALK
1759627930.94937,0.209642,-2.812588,-8.114099,-0.017837,0.207521,0.168817,1,WALK
1759627930.96935,0.339528,-3.068768,-8.426692,-0.04245,0.283659,0.134658,1,WALK
1759627930.98937,0.942268,-2.979883,-9.21633,-0.228191,0.297718,0.099016,1,WALK
1759627931.00938,1.264887,-2.946215,-9.880272,-0.373877,0.199068,0.087671,1,WALK
1759627931.02940,1.29242,-3.013252,-9.705046,-0.396365,-0.201506,0.134266,1,WALK
1759627931.04937,0.87553,-3.187131,-10.325593,-0.364271,-0.301745,0.14155,1,WALK
1759627931.06935,0.773477,-3.286191,-9.722105,-0.306906,-0.208708,0.086373,1,WALK
1759627931.08940,1.329979,-3.399766,-10.081385,-0.574122,0.205186,0.155713,1,WALK
1759627931.10937,1.832462,-3.019088,-11.538107,-1.025597,0.851187,0.426982,1,WALK
1759627931.12937,2.009184,-1.979855,-12.334029,-1.038978,0.593303,0.694802,1,WALK
1759627931.14938,1.509694,-0.815525,-12.786683,-0.657831,0.006228,0.781058,1,WALK
1759627931.16935,0.698359,-0.922665,-12.167931,-0.177905,-0.133979,0.544585,1,WALK
1759627931.18919,0.217723,-1.622969,-11.295993,0.156622,-0.044922,0.181457,1,WALK
1759627931.20936,0.457143,-1.971924,-10.613795,0.140907,0.302576,0.106555,1,WALK
1759627931.22938,0.998382,-1.980304,-10.104578,-0.010154,0.322779,0.232008,1,WALK
1759627931.24939,1.147122,-1.650652,-9.837475,-0.058463,-0.042465,0.378291,1,WALK
1759627931.26935,0.791882,-1.468244,-9.504232,0.053431,-0.346553,0.389222,1,WALK
1759627931.28937,0.301969,-1.705569,-8.968081,0.207524,-0.403643,0.247683,1,WALK
1759627931.30938,0.087239,-2.011279,-8.508245,0.2976,-0.259661,0.119065,1,WALK
1759627931.32938,0.05372,-2.236933,-7.984214,0.324297,-0.175009,0.121293,1,WALK
1759627931.34939,0.24795,-2.248904,-7.631069,0.294077,-0.279396,0.161138,1,WALK
1759627931.36936,0.469114,-2.088941,-7.716063,0.199935,-0.353002,0.186266,1,WALK
1759627931.38867,0.406416,-2.061408,-7.748235,0.177854,-0.461321,0.162566,1,WALK
1759627931.40938,0.204854,-2.202666,-7.685088,0.227886,-0.580362,0.067972,1,WALK
1759627931.42932,0.254833,-2.462885,-7.666832,0.197028,-0.648632,-0.003769,1,WALK
1759627931.44929,0.20635,-2.875735,-7.884854,0.038091,-0.549256,0.023193,1,WALK
1759627931.46935,-0.120758,-3.145682,-8.413524,-0.194826,-0.338052,0.120232,1,WALK
1759627931.48850,-0.30571,-2.944419,-9.320777,-0.274894,-0.238133,0.182972,1,WALK
1759627931.50938,-0.7226,-2.631677,-10.221296,-0.129633,-0.307129,0.067534,1,WALK
1759627931.52867,-1.19351,-2.63033,-10.560225,0.197585,-0.589428,-0.288112,1,WALK
1759627931.54885,-0.968903,-3.229479,-10.495881,0.459248,-0.641546,-0.490189,1,WALK
1759627931.56936,-0.714669,-4.044405,-10.113257,0.511152,-0.535635,-0.386885,1,WALK
1759627931.58927,-0.612467,-4.231153,-9.77373,0.424235,-0.223551,-0.192011,1,WALK
1759627931.60938,-0.471807,-4.247164,-9.972748,0.158863,0.214729,0.060685,1,WALK
1759627931.62937,0.20216,-3.953276,-11.024401,-0.229141,0.516361,0.60355,1,WALK
1759627931.64938,-1.587954,-3.716848,-12.33358,-0.458378,0.591494,0.565286,1,WALK
1759627931.66895,-1.371578,-2.284368,-12.750471,-0.408921,0.342057,0.197335,1,WALK
1759627931.68860,-0.920122,-2.103157,-12.279112,-0.109385,0.170002,-0.132332,1,WALK
1759627931.70936,-0.511012,-1.99452,-11.050438,0.159327,-0.08419,-0.304306,1,WALK
1759627931.72939,-0.402675,-2.218527,-9.744999,0.289385,-0.175897,-0.314165,1,WALK
1759627931.74939,-0.81777,-2.608183,-8.989778,0.306194,-0.029573,-0.235629,1,WALK
1759627931.76936,-1.139939,-2.605939,-8.617779,0.310313,0.205857,-0.139613,1,WALK
1759627931.78882,-1.534683,-2.688838,-8.358158,0.233574,0.436929,-0.110867,1,WALK
1759627931.80939,-1.390283,-2.485032,-8.32,0.045558,0.675162,-0.106613,1,WALK
1759627931.82843,-1.054496,-2.277933,-8.655189,-0.196047,0.831983,-0.044857,1,WALK
1759627931.84939,-0.757765,-2.16346,-9.312098,-0.237314,0.716679,-0.059693,1,WALK
1759627931.86900,-0.444573,-1.70512,-9.527426,-0.033977,0.356635,-0.061023,1,WALK
1759627931.88939,-0.556053,-1.616535,-8.786421,0.212649,-0.045488,-0.058983,1,WALK
1759627931.90939,-0.75971,-1.744475,-7.972692,0.290562,-0.220718,-0.088421,1,WALK
1759627931.92942,-1.109114,-2.124405,-7.485471,0.264392,-0.224482,-0.187837,1,WALK
1759627931.94938,-1.030704,-2.46513,-7.128287,0.251937,-0.1251,-0.343628,1,WALK
1759627931.96936,-0.449062,-2.631228,-6.970419,0.199968,-0.054747,-0.382075,1,WALK
1759627931.98840,-0.067187,-2.864363,-6.960692,0.115323,-0.014474,-0.281108,1,WALK
1759627932.00939,0.013168,-3.017592,-7.393444,0.067131,-0.071949,-0.152196,1,WALK
1759627932.02939,-0.101454,-3.033753,-7.674165,0.094657,-0.272519,-0.06413,1,WALK
1759627932.04939,-0.159214,-3.163339,-8.162881,0.01153,-0.33548,0.00115,1,WALK
1759627932.06936,0.013168,-3.313276,-9.142259,-0.158025,-0.132561,0.023193,1,WALK
1759627932.08858,0.130035,-3.326145,-9.947609,-0.222827,0.066904,0.057921,1,WALK
1759627932.10944,0.74729,-2.770091,-11.284022,-0.103972,0.408176,0.282488,1,WALK
1759627932.12938,0.846201,-2.604293,-11.184214,0.08878,0.050702,0.404947,1,WALK
1759627932.14937,0.56982,-2.640505,-10.704476,0.216966,-0.487804,0.318436,1,WALK
1759627932.16937,-0.054917,-3.192818,-10.326341,0.115381,-0.529925,0.079421,1,WALK
1759627932.18938,-0.134524,-3.987393,-9.791088,-0.20873,-0.386042,-0.087742,1,WALK
1759627932.20937,0.244209,-3.861997,-9.688287,-0.470851,-0.246458,-0.059915,1,WALK
1759627932.22939,1.16029,-3.01011,-10.824635,-1.425243,0.495422,0.580538,1,WALK
1759627932.24939,1.3421,-1.970578,-12.327744,-1.477188,0.535656,0.747978,1,WALK
1759627932.26937,0.805649,-0.764798,-12.866739,-0.965675,0.335645,0.831131,1,WALK
1759627932.28939,0.223559,-0.124498,-12.139351,-0.067943,0.057882,0.581622,1,WALK
1759627932.30837,-0.076465,-0.512359,-10.863241,0.611463,0.072248,0.053091,1,WALK
1759627932.32940,0.34686,-1.425298,-9.76969,0.678146,0.268631,-0.313706,1,WALK
1759627932.34940,1.310376,-1.971775,-8.866178,0.333583,0.277197,-0.287926,1,WALK
1759627932.36895,1.747917,-1.864634,-8.399757,0.05296,-0.152703,-0.034724,1,WALK
1759627932.38855,1.45343,-1.663821,-8.166622,0.015363,-0.467684,0.241406,1,WALK
1759627932.40909,0.58239,-1.893065,-8.217648,0.095123,-0.313643,0.363981,1,WALK
1759627932.42940,0.121356,-2.073678,-7.884555,0.185305,0.069197,0.381978,1,WALK
1759627932.44942,0.176273,-2.141314,-7.780706,0.171041,0.281888,0.425557,1,WALK
1759627932.46938,0.416142,-2.13488,-7.632266,0.162921,0.273718,0.397944,1,WALK
1759627932.48886,0.704943,-2.063353,-7.252486,0.100247,0.05152,0.453227,1,WALK
1759627932.50940,0.584634,-2.42368,-7.177218,-0.022361,-0.166649,0.515792,1,WALK
1759627932.52942,0.337283,-2.661903,-7.343914,-0.176952,-0.208553,0.57133,1,WALK
1759627932.54942,-0.1034,-2.929306,-7.817966,-0.299189,0.04396,0.61621,1,WALK
1759627932.56937,-0.085892,-2.972701,-8.3616,-0.360089,0.293051,0.657206,1,WALK
1759627932.58852,0.120009,-2.744952,-8.951471,-0.33,0.34914,0.681147,1,WALK
1759627932.60938,0.143951,-2.707393,-9.533861,-0.232818,0.270727,0.655587,1,WALK
1759627932.62939,-0.179864,-2.943072,-9.999683,-0.102518,0.139567,0.57377,1,WALK
1759627932.64939,-0.698957,-3.198953,-10.072855,0.016126,-0.040029,0.424929,1,WALK
1759627932.66938,-1.12303,-3.412934,-10.272322,0.09424,-0.075775,0.232994,1,WALK
1759627932.68860,-1.360655,-3.821445,-10.385149,0.146919,0.044758,0.05881,1,WALK
1759627932.70938,-1.337311,-4.083909,-10.717793,0.099833,0.224495,-0.014302,1,WALK
1759627932.72940,-0.91668,-3.873818,-11.154137,-0.018111,0.334788,0.034789,1,WALK
1759627932.74946,-0.815525,-3.449296,-11.691186,-0.127205,0.210122,0.130389,1,WALK
1759627932.76938,-1.171214,-3.035848,-12.16015,-0.100082,-0.027308,0.109451,1,WALK
1759627932.78848,-1.74268,-2.839523,-12.63091,0.044026,-0.002331,-0.066429,1,WALK
1759627932.80940,-1.842937,-2.795679,-12.452542,0.241716,0.186769,-0.346829,1,WALK
1759627932.82941,-1.093552,-2.422782,-11.985673,0.406491,0.268209,-0.580081,1,WALK
1759627932.84940,-0.493505,-2.332102,-11.285219,0.541451,0.029113,-0.665882,1,WALK
1759627932.86938,-0.5161,-2.323722,-10.247183,0.671784,-0.359179,-0.698166,1,WALK
1759627932.88862,-1.069011,-2.802862,-9.361777,0.691482,-0.386582,-0.701173,1,WALK
1759627932.90941,-1.283142,-3.148375,-8.354267,0.572469,-0.209518,-0.7146,1,WALK
1759627932.92943,-0.856975,-3.04333,-7.934684,0.341045,0.094215,-0.639476,1,WALK
1759627932.94941,-0.215029,-2.817526,-8.134899,0.079708,0.429399,-0.461151,1,WALK
1759627932.96938,0.168193,-2.375198,-8.442703,-0.065112,0.528727,-0.290343,1,WALK
1759627932.98884,0.35105,-1.912069,-8.517073,-0.104159,0.258434,-0.14391,1,WALK
1759627933.00941,-0.028132,-1.604714,-8.239346,0.009511,-0.16133,-0.142982,1,WALK
1759627933.02944,-0.459238,-1.511639,-7.633613,0.186371,-0.375399,-0.303682,1,WALK
1759627933.04941,-0.413898,-1.793107,-6.803723,0.258753,-0.549397,-0.481039,1,WALK
1759627933.06938,-0.344316,-2.215983,-6.551284,0.171259,-0.535888,-0.556449,1,WALK
1759627933.08883,-0.300323,-2.486827,-6.360496,0.056241,-0.360791,-0.522579,1,WALK
1759627933.10941,-0.113725,-2.640655,-6.655581,-0.016629,-0.104495,-0.418598,1,WALK
1759627933.12941,0.242413,-2.718017,-7.305009,-0.063475,0.124812,-0.29845,1,WALK
1759627933.14941,0.45415,-2.749741,-7.864952,-0.099375,0.107859,-0.183796,1,WALK
1759627933.16938,0.408062,-2.646191,-8.710704,-0.128428,-0.048359,-0.054104,1,WALK
1759627933.18882,0.300472,-2.715923,-9.368511,-0.108206,-0.166885,0.007043,1,WALK
1759627933.20939,0.24346,-2.932298,-10.184036,-0.092331,-0.069889,0.032325,1,WALK
1759627933.22930,0.019004,-3.136404,-10.761488,-0.047369,0.076753,0.019391,1,WALK
1759627933.24942,0.164152,-3.16723,-10.619781,0.094874,0.010403,-0.071365,1,WALK
1759627933.26858,0.52867,-3.278859,-10.153211,0.172011,-0.180835,-0.145133,1,WALK
1759627933.28865,0.549469,-3.841646,-9.96751,0.055705,-0.14241,-0.154501,1,WALK
1759627933.30941,0.546327,-4.308067,-10.182839,-0.174402,0.139093,-0.116129,1,WALK
1759627933.32941,0.845752,-4.168305,-10.677242,-0.327439,0.426394,-0.028056,1,WALK
1759627933.34941,1.729362,-3.745429,-10.848128,-0.411746,0.472579,0.119784,1,WALK
1759627933.36939,2.350358,-3.097349,-11.509676,-0.634303,0.561624,0.487038,1,WALK
1759627933.38942,1.770362,-2.53127,-11.68969,-0.646119,0.352572,0.739689,1,WALK
1759627933.40942,0.928352,-1.698686,-11.795633,-0.295349,0.089615,0.698875,1,WALK
1759627933.42945,0.13198,-1.466897,-10.619781,0.211783,-0.19345,0.32467,1,WALK
1759627933.44941,-0.26411,-2.049586,-9.572916,0.46745,-0.199675,-0.059061,1,WALK
1759627933.46876,-0.004639,-2.555511,-8.900894,0.293225,0.186845,-0.196327,1,WALK
1759627933.48912,0.943914,-2.472312,-8.857648,-0.095097,0.459181,-0.027194,1,WALK
1759627933.50941,1.185279,-2.086397,-9.05936,-0.194805,0.203463,0.19039,1,WALK
1759627933.52945,0.812233,-1.665915,-9.032874,0.029528,-0.149174,0.281049,1,WALK
1759627933.54886,0.142904,-1.86239,-8.396615,0.322133,-0.259728,0.190601,1,WALK
1759627933.56940,-0.224905,-2.330007,-7.840562,0.38651,-0.029578,0.11401,1,WALK
1759627933.58877,-0.076016,-2.572121,-7.458686,0.252964,0.220984,0.078225,1,WALK
1759627933.60871,0.440982,-2.602647,-7.366659,0.048844,0.240208,0.076421,1,WALK
1759627933.62918,0.71856,-2.548628,-7.289746,-0.015912,-0.094373,0.098224,1,WALK
1759627933.64891,0.668282,-2.623446,-7.233781,0.028623,-0.365246,0.083734,1,WALK
1759627933.66940,0.678457,-2.872892,-7.206996,0.054588,-0.375919,0.059572,1,WALK
1759627933.68942,0.668282,-3.108422,-7.579743,0.058954,-0.083016,0.080132,1,WALK
1759627933.70940,0.588225,-3.358915,-8.448389,0.039013,0.376121,0.172141,1,WALK
1759627933.72942,0.616657,-3.565116,-9.081057,0.006973,0.534885,0.303771,1,WALK
1759627933.74940,0.750283,-3.350984,-9.618556,0.006893,0.229763,0.367904,1,WALK
1759627933.76941,0.565331,-3.330634,-9.984719,-0.009777,-0.286505,0.350671,1,WALK
1759627933.78942,0.021697,-3.476231,-10.493337,-0.047911,-0.607356,0.245047,1,WALK
1759627933.80942,-0.597653,-3.702034,-10.99986,-0.029477,-0.491064,0.110428,1,WALK
1759627933.82943,-0.915184,-3.829226,-11.339837,0.096529,-0.210307,-0.014439,1,WALK
1759627933.84942,-0.607529,-3.659388,-10.945093,0.200508,-0.123928,-0.113871,1,WALK
1759627933.86939,-0.485873,-3.829825,-10.867581,0.098876,-0.093138,-0.162175,1,WALK
1759627933.88881,-0.310348,-3.796306,-11.062558,-0.092981,-0.085292,-0.16971,1,WALK
1759627933.90905,-0.303166,-3.549254,-12.069919,-0.254662,0.190671,-0.112251,1,WALK
1759627933.92913,-0.199018,-2.991106,-12.582577,-0.12845,0.282383,-0.128735,1,WALK
1759627933.94942,0.052523,-2.274492,-12.013056,0.299755,-0.068961,-0.242338,1,WALK
1759627933.96940,-0.178218,-2.179023,-10.227281,0.733523,-0.579836,-0.48719,1,WALK
1759627933.98942,-0.713173,-3.02672,-8.6917,0.791834,-0.628151,-0.722284,1,WALK
1759627934.00943,-0.897227,-3.841197,-7.517644,0.440961,-0.275072,-0.805783,1,WALK
1759627934.02942,-0.579397,-3.967491,-7.37878,-0.037941,0.192574,-0.639589,1,WALK
1759627934.04946,0.2478,-3.37777,-7.969998,-0.295399,0.472375,-0.320934,1,WALK
1759627934.06940,0.662146,-2.830545,-8.723124,-0.316901,0.539272,-0.042354,1,WALK
1759627934.08943,0.601094,-2.403928,-9.07567,-0.247756,0.441391,0.145323,1,WALK
1759627934.10943,0.228646,-2.208801,-8.727763,-0.088447,0.119202,0.173033,1,WALK
1759627934.12947,0.034117,-1.937657,-8.380304,0.01498,-0.178916,0.105172,1,WALK
1759627934.14916,-0.096816,-1.961001,-7.720851,0.102465,-0.414095,-0.087587,1,WALK
1759627934.16899,-0.054917,-1.917456,-7.505673,0.108749,-0.397206,-0.202475,1,WALK
1759627934.18875,-0.243909,-2.47336,-7.483975,0.093087,-0.295466,-0.227951,1,WALK
1759627934.20941,-0.028431,-2.841468,-7.344363,0.150778,-0.076975,-0.223261,1,WALK
1759627934.22888,0.194828,-2.832041,-7.24261,0.174925,-0.096902,-0.162195,1,WALK
1759627934.24941,0.212036,-3.211672,-7.185897,0.042306,-0.257282,0.069959,1,WALK
1759627934.26940,0.034716,-3.359364,-7.223606,-0.031868,-0.30397,0.102858,1,WALK
1759627934.28887,-0.261267,-3.435081,-7.516297,-0.18021,-0.249661,0.145473,1,WALK
1759627934.30943,-0.525527,-3.645771,-8.249371,-0.325719,-0.000325,0.178613,1,WALK
1759627934.32943,-0.51221,-3.813065,-9.096171,-0.38214,0.230808,0.194374,1,WALK
1759627934.34942,-0.192135,-3.5099,-9.477298,-0.330449,0.163905,0.228214,1,WALK
1759627934.36940,0.00419,-3.601179,-9.688736,-0.226816,0.005325,0.174034,1,WALK
1759627934.38878,0.294337,-3.642778,-9.751583,-0.175355,0.025524,0.090927,1,WALK
1759627934.40860,0.450858,-3.898808,-10.365995,-0.319843,0.335907,0.173076,1,WALK
1759627934.42944,0.401478,-4.009091,-11.399393,-0.513656,0.664374,0.263938,1,WALK
1759627934.44873,0.771382,-3.52232,-12.350639,-0.553404,0.8107,0.260026,1,WALK
1759627934.46851,1.246631,-3.0969,-12.460922,-0.377085,0.556148,0.187084,1,WALK
1759627934.48942,1.694796,-2.50239,-12.228684,-0.342979,0.335426,0.246098,1,WALK
1759627934.50943,1.272817,-2.538303,-12.603078,-0.405963,0.419826,0.307138,1,WALK
1759627934.52943,1.080982,-1.890521,-12.168979,-0.082857,0.244101,0.198796,1,WALK
1759627934.54942,1.089212,-1.377564,-10.549601,0.476073,-0.169521,-0.019989,1,WALK
1759627934.56941,0.753874,-1.918204,-8.883536,0.791576,-0.383905,-0.193865,1,WALK
1759627934.58943,0.617554,-2.752135,-7.540987,0.599209,-0.208084,-0.224688,1,WALK
1759627934.60943,0.903512,-3.136255,-7.303961,-0.005042,0.166649,0.003326,1,WALK
1759627934.62946,1.172261,-2.875735,-8.05185,-0.488569,0.297647,0.389245,1,WALK
1759627934.64944,1.056292,-1.988384,-9.012224,-0.468868,0.111715,0.630334,1,WALK
1759627934.66940,0.432902,-1.584513,-9.324518,-0.164096,-0.012577,0.637623,1,WALK
1759627934.68902,-0.300622,-1.869273,-9.117868,0.119025,0.044276,0.455415,1,WALK
1759627934.70941,-0.343568,-2.045097,-8.376863,0.18209,0.062279,0.261896,1,WALK
1759627934.72944,0.017657,-2.397643,-8.130709,0.062385,0.018386,0.147905,1,WALK
1759627934.74943,0.448165,-2.391059,-7.869591,-0.017747,-0.124963,0.084543,1,WALK
1759627934.76941,0.638204,-2.60115,-7.772626,-0.01534,-0.274365,0.047347,1,WALK
1759627934.78945,0.599299,-2.936638,-7.624335,0.06413,-0.394403,0.014846,1,WALK
1759627934.80943,0.216526,-3.404405,-7.280767,0.159398,-0.40864,-0.017248,1,WALK
1759627934.82944,-0.015862,-3.806481,-7.33763,0.100462,-0.189042,-0.015085,1,WALK
1759627934.84943,-0.038756,-4.182521,-8.202385,-0.10226,0.192929,0.024919,1,WALK
1759627934.86941,0.35509,-3.730316,-9.087641,-0.1803,0.229251,0.094379,1,WALK
1759627934.88900,0.259472,-3.308338,-9.778219,-0.080642,-0.001585,0.085977,1,WALK
1759627934.90943,-0.268899,-3.175609,-10.077494,0.110901,-0.187126,-0.119994,1,WALK
1759627934.92944,-0.521637,-3.346645,-10.118495,0.209268,-0.0973,-0.363743,1,WALK
1759627934.94944,-0.416292,-3.738097,-10.157849,0.188725,0.036976,-0.514879,1,WALK
1759627934.96941,0.192883,-3.677943,-10.253318,0.090317,0.186149,-0.502799,1,WALK
1759627934.98944,0.468515,-3.653851,-10.848128,-0.138508,0.368588,-0.273191,1,WALK
1759627935.00944,0.269946,-3.58412,-11.82182,-0.386945,0.55823,-0.038017,1,WALK
1759627935.02944,0.732476,-2.544438,-12.694506,-0.538283,0.645382,0.121726,1,WALK
1759627935.04944,0.841562,-1.815703,-13.054833,-0.384241,0.430381,0.13495,1,WALK
1759627935.06941,0.764199,-1.046266,-11.848904,0.089017,-0.237396,-0.094072,1,WALK
1759627935.08943,0.277278,-1.046865,-9.724649,0.45879,-0.873623,-0.404555,1,WALK
1759627935.10944,-0.362273,-2.136675,-8.484602,0.414452,-0.853966,-0.600542,1,WALK
1759627935.12944,-0.736666,-3.188628,-7.708432,0.058278,-0.477277,-0.674834,1,WALK
1759627935.14944,-0.154276,-3.214515,-7.927651,-0.321801,0.005721,-0.558466,1,WALK
1759627935.16941,0.615609,-2.831742,-8.74527,-0.504608,0.376255,-0.24158,1,WALK
1759627935.18944,0.575207,-2.51481,-9.691878,-0.433966,0.505576,0.052507,1,WALK
1759627935.20944,0.481833,-2.091485,-9.735123,-0.270947,0.297739,0.191102,1,WALK
1759627935.22944,0.178518,-1.90773,-9.701155,-0.163739,0.034617,0.157571,1,WALK
1759627935.24943,-0.246004,-1.751059,-9.187749,-0.076422,-0.221943,-0.021301,1,WALK
1759627935.26874,-0.460285,-1.612644,-8.383147,0.036724,-0.440551,-0.253806,1,WALK
1759627935.28915,-0.423923,-1.759289,-7.919121,0.156054,-0.444208,-0.439781,1,WALK
1759627935.30944,-0.113874,-2.127697,-7.60997,0.268392,-0.258694,-0.536077,1,WALK
1759627935.32945,0.267402,-2.410512,-7.490709,0.333786,-0.080133,-0.521955,1,WALK
1759627935.34944,0.592415,-2.649483,-7.322965,0.295116,-0.041101,-0.404301,1,WALK
1759627935.36874,0.66499,-2.974347,-7.292888,0.152487,-0.163447,-0.259476,1,WALK
1759627935.38919,0.532261,-3.12159,-7.699603,-0.029185,-0.150971,-0.146385,1,WALK
1759627935.40931,0.279523,-3.404405,-8.65459,-0.170668,0.131508,-0.050444,1,WALK
1759627935.42945,0.2891,-3.433734,-9.591321,-0.179039,0.32393,0.034859,1,WALK
1759627935.44868,0.605733,-3.226785,-10.420314,-0.129934,0.29131,0.13257,1,WALK
1759627935.46928,0.793379,-3.061436,-11.373356,-0.083117,0.282239,0.186889,1,WALK
1759627935.48915,1.013047,-2.891597,-11.471967,0.053161,0.060322,0.177108,1,WALK
1759627935.50942,0.499939,-3.182193,-11.362432,0.167169,-0.249508,0.198013,1,WALK
1759627935.52945,0.166547,-3.5512,-11.225065,0.142041,-0.163513,0.1916,1,WALK
1759627935.54925,0.661847,-3.496283,-10.988189,0.006733,-0.037915,0.147014,1,WALK
1759627935.56871,1.651101,-2.927959,-10.875062,-0.258715,-0.01867,0.260637,1,WALK
1759627935.58918,1.784877,-2.48563,-11.49965,-0.655196,0.059725,0.552617,1,WALK
1759627935.60925,1.154753,-1.856554,-11.670087,-0.661455,-0.190591,0.665407,1,WALK
1759627935.62943,0.370054,-0.886752,-11.175086,-0.245723,-0.499325,0.530405,1,WALK
1759627935.64945,-0.468066,-1.026963,-9.983522,0.258916,-0.556038,0.098141,1,WALK
1759627935.66870,-0.402525,-1.534983,-8.764274,0.526042,-0.278673,-0.311438,1,WALK
1759627935.68945,0.14874,-2.202516,-8.104373,0.436591,0.134727,-0.414944,1,WALK
1759627935.70945,0.999729,-2.365771,-7.831134,0.17194,0.320107,-0.275328,1,WALK
1759627935.72916,1.241394,-2.3125,-7.753472,-0.056956,0.066409,0.007608,1,WALK
1759627935.74945,0.871938,-2.099715,-8.235904,-0.202109,-0.087454,0.218974,1,WALK
1759627935.76871,0.258574,-1.987636,-8.81156,-0.24769,0.064925,0.258467,1,WALK
1759627935.78945,0.00823,-1.778443,-9.407267,-0.12348,0.22278,0.210249,1,WALK
1759627935.80947,0.176273,-1.663222,-9.617957,0.118403,0.182628,0.133294,1,WALK
1759627935.82949,0.578798,-1.624167,-8.944139,0.344365,-0.098858,0.052008,1,WALK
1759627935.84952,0.539892,-1.957709,-8.085668,0.355692,-0.307412,0.017613,1,WALK
1759627935.86871,0.299425,-2.534262,-7.538742,0.190339,-0.226662,-0.033076,1,WALK
1759627935.88945,0.397437,-2.876184,-7.383718,0.02394,0.008303,-0.09837,1,WALK
1759627935.90874,0.754323,-3.112013,-7.451953,-0.045979,0.116683,-0.047498,1,WALK
1759627935.92948,1.039832,-3.302951,-7.909245,-0.122052,0.030989,0.136661,1,WALK
1759627935.94945,1.104026,-3.335273,-8.580669,-0.211559,-0.054411,0.308119,1,WALK
1759627935.96871,1.01589,-3.118148,-9.214085,-0.298806,-0.08927,0.397714,1,WALK
1759627935.98932,0.305261,-3.261501,-9.691878,-0.288272,-0.134557,0.357577,1,WALK
1759627936.00945,-0.020201,-3.288436,-9.99654,-0.144532,-0.344485,0.256411,1,WALK
1759627936.02943,-0.368408,-3.413982,-10.530746,-0.012363,-0.443415,0.158794,1,WALK
1759627936.04945,-0.508618,-3.561225,-10.581324,0.112858,-0.331263,-0.008689,1,WALK
1759627936.06942,-0.546028,-3.75755,-10.574291,0.133408,-0.060225,-0.091599,1,WALK
1759627936.08898,-0.232986,-3.729568,-10.923246,0.063506,0.192315,-0.097132,1,WALK
1759627936.10945,-0.119411,-3.461417,-10.96275,0.064051,0.200998,-0.106861,1,WALK
1759627936.12944,-0.201263,-3.244443,-10.736648,0.046251,0.033649,-0.085474,1,WALK
1759627936.14945,-0.431405,-3.189376,-10.677092,-0.141566,0.005196,-0.098987,1,WALK
1759627936.16871,-0.480337,-2.974197,-10.777349,-0.253884,0.094475,-0.122173,1,WALK
1759627936.18944,-0.225803,-1.918803,-11.849353,-0.271426,0.560065,-0.134323,1,WALK
1759627936.20944,0.181211,-1.382951,-11.537359,0.131795,0.235788,-0.201974,1,WALK
1759627936.22885,0.158915,-1.192013,-10.838252,0.34393,-0.083364,-0.268483,1,WALK
1759627936.24949,-0.614711,-1.675343,-9.420286,0.559074,-0.474539,-0.495278,1,WALK
1759627936.26857,-1.154454,-2.635866,-8.306832,0.455243,-0.304493,-0.692408,1,WALK
1759627936.28925,-0.915184,-3.2,-8.00217,0.162154,0.11944,-0.743348,1,WALK
1759627936.30945,0.087538,-3.088969,-8.645612,-0.101322,0.576602,-0.534452,1,WALK
1759627936.32946,0.928801,-2.697667,-9.288305,-0.156246,0.682473,-0.151346,1,WALK
1759627936.34901,0.927304,-2.08505,-9.489418,-0.037328,0.428828,0.189195,1,WALK
1759627936.36925,0.282516,-1.915511,-9.010578,0.189565,0.092297,0.272711,1,WALK
1759627936.38944,-0.085293,-1.80852,-8.267328,0.30907,-0.019974,0.144116,1,WALK
1759627936.40944,-0.154127,-2.282722,-7.655161,0.217197,0.026551,0.026286,1,WALK
1759627936.42945,-0.148889,-2.81618,-7.299023,0.091534,-0.012679,0.013828,1,WALK
1759627936.44944,-0.029179,-3.082535,-7.400028,0.020521,0.03752,0.103129,1,WALK
1759627936.46872,0.177171,-2.934393,-7.88231,0.006757,0.238996,0.183453,1,WALK
1759627936.48926,0.397138,-2.860772,-8.38629,0.002898,0.409532,0.213633,1,WALK
1759627936.50945,0.37559,-3.040636,-8.727464,0.033799,0.256556,0.244529,1,WALK
1759627936.52946,0.443077,-2.90282,-8.938303,0.142701,0.00653,0.236299,1,WALK
1759627936.54941,0.734272,-2.948609,-9.375095,0.1808,0.045876,0.230786,1,WALK
1759627936.56861,0.734272,-3.202095,-9.949704,0.179579,0.121543,0.258805,1,WALK
1759627936.58945,0.804152,-2.92347,-9.965415,0.243972,0.004426,0.315305,1,WALK
1759627936.60945,0.830339,-2.681207,-9.685144,0.243789,-0.131352,0.324581,1,WALK
1759627936.62945,0.647183,-2.847155,-9.909601,0.123625,-0.049967,0.235717,1,WALK
1759627936.64946,0.570269,-2.914342,-9.932495,0.088462,-0.011987,0.139535,1,WALK
1759627936.66872,0.461033,-3.230526,-9.881319,0.129232,-0.05412,0.068996,1,WALK
1759627936.68931,0.507421,-3.32405,-9.677662,0.056179,0.089402,0.06222,1,WALK
1759627936.70878,0.798167,-3.222296,-9.45575,-0.213146,0.311143,0.189848,1,WALK
1759627936.72947,1.38744,-2.423231,-10.369587,-0.616182,0.678738,0.471541,1,WALK
1759627936.74946,1.154604,-2.028038,-11.165808,-0.685094,0.582978,0.5221,1,WALK
1759627936.76943,0.994492,-1.231069,-11.020061,-0.279076,0.099125,0.358259,1,WALK
1759627936.78946,0.597653,-1.20563,-9.953893,0.177312,-0.267455,0.101746,1,WALK
1759627936.80947,0.293439,-2.228702,-9.498546,0.24656,-0.133219,-0.057323,1,WALK
1759627936.82946,0.363021,-2.858826,-8.925135,0.025147,0.172489,-0.040317,1,WALK
1759627936.84946,0.869544,-2.587533,-8.912865,-0.248034,0.297728,0.148331,1,WALK
1759627936.86866,1.018733,-2.2091,-9.216779,-0.33102,0.143258,0.240924,1,WALK
1759627936.88909,0.752976,-2.026093,-9.469068,-0.233489,-0.01842,0.22347,1,WALK
1759627936.90946,0.561141,-2.042254,-9.3317,-0.069306,-0.095016,0.168495,1,WALK
1759627936.92950,0.584335,-2.202366,-8.898649,0.0368,-0.099021,0.122262,1,WALK
1759627936.94946,0.609025,-2.564789,-8.435371,0.026201,-0.101503,0.128989,1,WALK
1759627936.96943,0.7021,-2.654721,-8.06008,-0.032125,-0.182296,0.156395,1,WALK
1759627936.98938,0.646434,-2.611625,-7.931392,-0.068696,-0.190178,0.161526,1,WALK
1759627937.00946,0.540042,-2.777124,-7.946804,-0.07071,-0.161649,0.126611,1,WALK
1759627937.02947,0.606032,-3.014898,-8.137891,0.001884,-0.096121,0.024164,1,WALK
1759627937.04921,0.953491,-3.151966,-7.981071,0.102368,-0.07119,-0.019973,1,WALK
1759627937.06936,1.134253,-3.4686,-8.169016,0.056641,0.018798,0.042323,1,WALK
1759627937.08947,1.103428,-3.84404,-8.732701,-0.101327,0.098103,0.153532,1,WALK
1759627937.10946,1.063026,-3.640384,-9.367314,-0.171581,-0.000366,0.215889,1,WALK
1759627937.12900,0.665887,-3.454683,-9.774029,-0.076325,-0.217974,0.185961,1,WALK
1759627937.14908,0.282665,-3.527856,-9.99639,0.091509,-0.352621,0.061554,1,WALK
1759627937.16944,0.188693,-3.700388,-9.872939,0.15872,-0.290267,-0.003896,1,WALK
1759627937.18942,-0.040103,-4.183867,-10.043975,0.174258,-0.224628,0.013259,1,WALK
1759627937.20946,-0.165499,-3.976919,-10.03395,0.259447,-0.290026,0.028058,1,WALK
1759627937.22937,-0.130634,-3.548656,-9.841964,0.230055,-0.238076,0.039411,1,WALK
1759627937.24946,-0.503531,-3.597138,-10.002376,0.055218,-0.209924,-0.025896,1,WALK
1759627937.26913,-0.855029,-3.363105,-10.042329,-0.100636,-0.298529,-0.103318,1,WALK
1759627937.28947,-1.234061,-3.214515,-10.726472,-0.202178,-0.066459,-0.173857,1,WALK
1759627937.30899,-0.845303,-2.746748,-11.201272,-0.239277,0.317885,-0.206304,1,WALK
1759627937.32946,-0.220117,-1.93242,-11.536311,-0.205748,0.511197,-0.112353,1,WALK
1759627937.34919,0.055067,-1.391031,-11.285219,-0.030237,0.171893,-0.031798,1,WALK
1759627937.36944,-0.217274,-1.289577,-10.423755,0.275502,-0.319428,-0.211833,1,WALK
1759627937.38947,-0.785448,-1.967884,-9.246407,0.436136,-0.514233,-0.578522,1,WALK
1759627937.40946,-0.98686,-3.094506,-8.24982,0.31302,-0.321939,-0.778912,1,WALK
1759627937.42946,-0.580145,-3.575142,-7.752874,-0.013292,-0.0374,-0.700349,1,WALK
1759627937.44945,0.271293,-3.24534,-8.275558,-0.363618,0.353254,-0.351449,1,WALK
1759627937.46944,0.537648,-2.744204,-9.208548,-0.425576,0.593723,-0.049136,1,WALK
1759627937.48934,0.558298,-2.110339,-9.632322,-0.228729,0.514016,0.031564,1,WALK
1759627937.50880,0.292093,-1.987636,-9.382278,0.116331,0.293729,-0.07318,1,WALK
1759627937.52947,0.166846,-1.985242,-8.439411,0.296803,-0.042196,-0.192346,1,WALK
1759627937.54947,-0.256628,-2.447173,-7.652467,0.227674,-0.204324,-0.296762,1,WALK
1759627937.56944,-0.696563,-2.626738,-7.508965,0.131532,-0.025794,-0.367648,1,WALK
1759627937.58937,-0.638055,-2.561048,-7.627178,0.165033,0.164901,-0.466048,1,WALK
1759627937.60921,0.148291,-2.399439,-7.970297,0.247476,0.225671,-0.536669,1,WALK
1759627937.62947,0.810138,-2.726846,-8.164976,0.287391,0.087211,-0.524832,1,WALK
1759627937.64947,0.832733,-3.114557,-8.207623,0.272994,-0.113322,-0.366495,1,WALK
1759627937.66845,0.185551,-3.561375,-8.577377,0.206519,-0.046043,-0.178354,1,WALK
1759627937.68937,0.07033,-3.778349,-9.140763,0.164185,0.185724,-0.106836,1,WALK
1759627937.70947,0.758214,-3.562722,-9.705944,0.082407,0.278428,-0.032129,1,WALK
1759627937.72938,1.066018,-3.578583,-10.21965,-0.020195,0.090881,0.077767,1,WALK
1759627937.74946,0.88795,-3.308936,-10.359711,-0.044738,-0.254901,0.133567,1,WALK
1759627937.76944,0.357185,-3.329287,-10.460267,-0.005664,-0.334065,0.052431,1,WALK
1759627937.78939,0.19408,-3.707721,-10.515334,0.020058,-0.087965,-0.053061,1,WALK
1759627937.80931,0.634463,-3.67495,-10.284742,0.004469,0.182267,-0.075972,1,WALK
1759627937.82947,1.248427,-3.630208,-10.001478,-0.164797,0.264032,-0.01809,1,WALK
1759627937.84952,2.329259,-2.888754,-10.474932,-0.597182,0.415338,0.230007,1,WALK
1759627937.86933,2.165705,-2.145803,-11.120618,-0.891747,0.301108,0.460238,1,WALK
1759627937.88868,1.59798,-1.200692,-11.151742,-0.668522,-0.208626,0.512481,1,WALK
1759627937.90947,0.649128,-1.069909,-10.490643,-0.102425,-0.480049,0.219214,1,WALK
1759627937.92949,0.270994,-1.625364,-9.437494,0.356796,-0.326154,-0.216855,1,WALK
1759627937.94948,0.51625,-2.662652,-8.598027,0.408193,0.053531,-0.392609,1,WALK
1759627937.96944,1.425597,-3.12563,-8.394819,0.070071,0.376376,-0.271629,1,WALK
1759627937.98943,1.983297,-2.829348,-8.704868,-0.326813,0.376199,0.07541,1,WALK
1759627938.00947,1.579724,-2.322226,-9.400085,-0.401804,0.109444,0.290209,1,WALK
1759627938.02947,0.862362,-2.023849,-9.639206,-0.189557,-0.083439,0.27216,1,WALK
1759627938.04948,0.406565,-2.030882,-9.211541,0.117041,-0.138979,0.123587,1,WALK
1759627938.06945,0.629376,-2.135628,-8.486397,0.253867,-0.060798,0.054983,1,WALK
1759627938.08850,0.820014,-2.364125,-8.219145,0.227464,-0.029964,0.057072,1,WALK
1759627938.10946,0.905906,-2.550872,-7.743447,0.052967,-0.211748,0.133983,1,WALK
1759627938.12946,0.59466,-2.595913,-7.73372,-0.00731,-0.287374,0.13537,1,WALK
1759627938.14946,0.456694,-2.854786,-7.865102,-0.019623,-0.169843,0.009359,1,WALK
1759627938.16945,0.798766,-3.007417,-7.965958,-0.012498,-0.042923,-0.046364,1,WALK
1759627938.18852,1.013495,-3.058742,-7.949947,-0.021131,-0.06328,-0.035454,1,WALK
1759627938.20945,1.219546,-3.215114,-8.408436,-0.08584,-0.192414,0.07994,1,WALK
1759627938.22939,1.100285,-3.239654,-8.554333,-0.089854,-0.259185,0.109595,1,WALK
1759627938.24948,0.621146,-3.129222,-9.209297,-0.011635,-0.298573,0.081345,1,WALK
1759627938.26896,0.487669,-3.181445,-9.428366,0.039432,-0.257937,0.024161,1,WALK
1759627938.28853,0.475848,-3.281852,-9.560047,0.158578,-0.259325,-0.094229,1,WALK
1759627938.30947,0.690129,-3.40635,-9.512462,0.214582,-0.350777,-0.100786,1,WALK
1759627938.32948,0.591817,-3.596839,-9.748142,0.191212,-0.335727,-0.051054,1,WALK
1759627938.34948,0.174029,-3.555988,-9.75293,0.163812,-0.289453,0.003088,1,WALK
1759627938.36945,-0.283264,-3.549254,-9.903017,0.177071,-0.198773,-0.055332,1,WALK
1759627938.38854,-0.583886,-3.626767,-9.494506,0.097241,-0.223832,-0.127498,1,WALK
1759627938.40948,-0.538246,-3.882797,-9.709535,-0.197656,-0.157,-0.155037,1,WALK
1759627938.42948,-0.250793,-3.58412,-11.03712,-0.568908,0.342208,-0.07252,1,WALK
1759627938.44949,0.263512,-2.677765,-11.798027,-0.724449,0.485514,0.077571,1,WALK
1759627938.46886,0.082001,-1.865682,-12.078747,-0.471693,0.023282,0.073898,1,WALK
1759627938.48856,-0.38801,-1.384148,-11.094132,0.03378,-0.472738,-0.201891,1,WALK
1759627938.50949,-0.86311,-1.702726,-9.487623,0.361086,-0.612973,-0.546558,1,WALK
1759627938.52948,-1.177648,-2.814384,-8.375965,0.277667,-0.401153,-0.754988,1,WALK
1759627938.54947,-0.956633,-3.317915,-7.986159,-0.094954,0.044928,-0.803983,1,WALK
1759627938.56896,0.016161,-3.040187,-8.6507,-0.489069,0.427752,-0.58745,1,WALK
1759627938.58857,0.509815,-2.460042,-9.977686,-0.539426,0.626608,-0.281922,1,WALK
1759627938.60948,0.488567,-1.843835,-10.341305,-0.216065,0.535586,-0.111009,1,WALK
1759627938.62926,0.291793,-1.564162,-9.553463,0.137104,0.194148,-0.079166,1,WALK
1759627938.64948,0.09487,-1.599177,-8.801833,0.175633,0.052403,-0.106721,1,WALK
1759627938.66945,-0.284311,-1.904737,-8.173206,-0.016707,0.029495,-0.185921,1,WALK
1759627938.68860,-0.400879,-2.042553,-7.790882,-0.114456,-0.151489,-0.295349,1,WALK
1759627938.70941,-0.290147,-2.132934,-7.672668,-0.066123,-0.32504,-0.33882,1,WALK
1759627938.72939,-0.042647,-2.302474,-7.777414,0.015793,-0.313955,-0.307135,1,WALK
1759627938.74948,0.127791,-2.600103,-7.980024,0.039737,-0.151982,-0.248783,1,WALK
1759627938.76946,0.248398,-2.732832,-8.343643,0.064021,0.155637,-0.176676,1,WALK
1759627938.78861,0.530016,-2.788048,-8.444499,0.090243,0.232956,-0.042135,1,WALK
1759627938.80946,0.630872,-2.86167,-9.040805,0.094303,0.093615,0.056225,1,WALK
1759627938.82879,0.757765,-2.880524,-9.491064,0.053946,-0.063582,0.089391,1,WALK
1759627938.84948,0.701351,-2.862867,-10.692205,-0.065306,0.133519,0.126152,1,WALK
1759627938.86902,1.000627,-2.999785,-12.112416,-0.04622,0.407958,0.17669,1,WALK
1759627938.88863,1.118691,-2.523339,-12.377574,0.29816,0.245322,0.296145,1,WALK
1759627938.90948,1.000028,-2.259827,-11.286566,0.644144,-0.232945,0.363734,1,WALK
1759627938.92949,0.517148,-2.827552,-10.453084,0.610116,-0.445573,0.21978,1,WALK
1759627938.94950,0.154426,-3.498976,-10.06268,0.334743,-0.316589,0.000074,1,WALK
1759627938.96899,0.475099,-3.714754,-9.875184,0.047411,-0.129503,-0.119207,1,WALK
1759627938.98864,1.46166,-3.05126,-10.110863,-0.42946,0.1469,0.119237,1,WALK
1759627939.00948,1.730709,-2.656217,-11.206809,-0.914271,0.417474,0.51357,1,WALK
1759627939.02949,1.367388,-1.490091,-11.567885,-0.815984,0.01801,0.630145,1,WALK
1759627939.04848,0.243011,-0.921917,-10.887632,-0.240495,-0.460793,0.419671,1,WALK
1759627939.06906,-0.593612,-1.35033,-9.728838,0.312852,-0.528774,-0.070541,1,WALK
1759627939.08865,-0.343119,-2.15119,-8.625261,0.454126,-0.070597,-0.407385,1,WALK
1759627939.10949,0.631471,-2.498499,-7.757962,0.208204,0.283292,-0.418617,1,WALK
1759627939.12948,1.332672,-2.350807,-7.518392,-0.124772,0.204008,-0.166474,1,WALK
1759627939.14950,1.276109,-2.190246,-7.933786,-0.254603,0.01908,0.08081,1,WALK
1759627939.16946,1.029207,-2.10989,-8.419061,-0.14284,0.069675,0.206635,1,WALK
1759627939.18868,0.864157,-2.225859,-8.157494,0.020199,0.19061,0.326928,1,WALK
1759627939.20949,0.533009,-2.309357,-8.088212,0.0782,0.410611,0.441713,1,WALK
1759627939.22939,0.509666,-2.172439,-8.056638,0.023031,0.533874,0.459122,1,WALK
1759627939.24924,0.661847,-2.004096,-8.127566,-0.074085,0.387494,0.38979,1,WALK
1759627939.26905,0.633117,-2.095974,-8.233809,-0.125197,0.044585,0.25368,1,WALK
1759627939.28870,0.78859,-2.235287,-8.315661,-0.104666,-0.368984,0.131294,1,WALK
1759627939.30949,0.838419,-2.370858,-8.354118,-0.02049,-0.522883,0.132048,1,WALK
1759627939.32948,0.425869,-2.699911,-8.317157,0.075679,-0.408656,0.193643,1,WALK
1759627939.34948,0.431555,-2.85329,-8.288577,0.040685,-0.203746,0.228053,1,WALK
1759627939.36946,0.497844,-2.921674,-8.893561,-0.091846,0.04884,0.225828,1,WALK
1759627939.38871,0.48303,-3.032705,-9.29444,-0.110815,0.005344,0.12772,1,WALK
1759627939.40928,0.63596,-3.078046,-9.256283,-0.076716,-0.340461,0.038329,1,WALK
1759627939.42949,0.446369,-3.429395,-9.593267,-0.208508,-0.478521,0.023893,1,WALK
1759627939.44949,-0.044891,-3.696348,-10.506505,-0.274758,-0.23063,-0.038966,1,WALK
1759627939.46946,-0.081552,-3.364302,-10.698789,-0.166274,-0.055279,-0.076693,1,WALK
1759627939.48873,-0.12794,-3.401562,-10.670658,-0.087351,0.053991,-0.142746,1,WALK
1759627939.50949,0.291793,-3.41907,-11.160421,-0.270497,0.36412,-0.157244,1,WALK
1759627939.52949,0.625336,-3.42311,-11.998991,-0.506865,0.5259,-0.115202,1,WALK
1759627939.54948,0.634763,-2.972401,-12.790723,-0.549651,0.444309,-0.027669,1,WALK
1759627939.56946,0.423624,-2.475754,-13.483994,-0.361434,0.38984,0.001875,1,WALK
1759627939.58875,0.362871,-1.818695,-13.200281,0.048839,0.234456,-0.057869,1,WALK
1759627939.60949,0.085593,-1.326837,-11.835287,0.558777,-0.083452,-0.233908,1,WALK
1759627939.62949,-0.46672,-1.411681,-10.034698,0.894404,-0.285528,-0.468575,1,WALK
1759627939.64922,-0.822558,-2.011129,-8.435521,0.990645,-0.335257,-0.708172,1,WALK
1759627939.66921,-0.882413,-2.472761,-7.476344,0.874685,-0.218811,-0.860413,1,WALK
1759627939.68875,-0.745046,-2.85733,-7.142352,0.585307,0.173518,-0.831858,1,WALK
1759627939.70879,-0.215927,-2.979734,-7.226748,0.234301,0.527366,-0.634358,1,WALK
1759627939.72912,0.605434,-2.747646,-8.135497,-0.123384,0.751961,-0.250947,1,WALK
1759627939.74949,0.861913,-2.283171,-8.987085,-0.276138,0.671918,0.072371,1,WALK
1759627939.76947,0.704494,-1.587655,-9.119364,-0.19833,0.260288,0.260781,1,WALK
1759627939.78878,0.034566,-1.453879,-8.77445,-0.02815,-0.20236,0.258471,1,WALK
1759627939.80950,-0.660201,-1.471536,-8.246678,0.103236,-0.335897,0.054806,1,WALK
1759627939.82953,-0.84665,-1.725322,-7.762301,0.17354,-0.214473,-0.217084,1,WALK
1759627939.84949,-0.451756,-2.231396,-7.238121,0.199818,-0.138819,-0.403829,1,WALK
1759627939.86947,0.063297,-2.592172,-7.047033,0.140446,-0.19252,-0.398488,1,WALK
1759627939.88880,0.325462,-2.847753,-7.124246,0.039929,-0.122578,-0.304629,1,WALK
1759627939.90949,0.651073,-2.980631,-7.666383,-0.097017,0.125642,-0.108979,1,WALK
1759627939.92953,0.664541,-3.060538,-8.387337,-0.167062,0.253122,0.093517,1,WALK
1759627939.94950,0.613514,-2.903718,-8.870218,-0.124251,0.180646,0.16707,1,WALK
1759627939.96946,0.549619,-2.950554,-9.560047,-0.110958,0.092248,0.137779,1,WALK
1759627939.98880,0.563386,-2.974347,-10.164583,-0.143823,0.090456,0.060123,1,WALK
1759627940.00949,0.804452,-2.756474,-10.757896,-0.192553,0.131968,0.026531,1,WALK
1759627940.02920,0.922217,-2.87813,-10.98759,-0.149387,-0.058388,0.011575,1,WALK
1759627940.04948,0.988057,-2.80765,-10.928483,-0.025303,-0.310493,-0.021682,1,WALK
1759627940.06946,0.699107,-3.333178,-10.657489,0.008113,-0.25371,-0.054009,1,WALK
1759627940.08880,0.711826,-3.680187,-10.377218,-0.082637,-0.046054,-0.091973,1,WALK
1759627940.10949,2.029535,-3.077297,-10.580875,-0.374069,0.387906,0.023098,1,WALK
1759627940.12949,2.84102,-2.814683,-11.35076,-0.837409,0.626455,0.372671,1,WALK
1759627940.14950,2.582595,-1.872116,-11.91265,-0.919062,0.186754,0.655985,1,WALK
1759627940.16947,1.804929,-1.02412,-11.551125,-0.544009,-0.477926,0.689277,1,WALK
1759627940.18885,1.25935,-0.863409,-11.006893,-0.28663,-0.712792,0.562466,1,WALK
1759627940.20946,0.316334,-1.44116,-9.679159,0.166807,-0.421198,0.053167,1,WALK
1759627940.22950,0.371251,-1.793107,-9.493159,0.173352,-0.117829,-0.04286,1,WALK
1759627940.24947,1.617582,-1.873463,-8.940996,-0.010122,0.332653,0.077288,1,WALK
1759627940.26928,1.79206,-1.763629,-8.917503,-0.04738,0.199907,0.20574,1,WALK
1759627940.28886,1.337162,-1.583615,-8.766669,-0.022953,-0.183435,0.373333,1,WALK
1759627940.30949,0.469114,-1.539023,-8.614637,0.053771,-0.274229,0.340423,1,WALK
1759627940.32950,0.091279,-1.761235,-8.556577,0.102954,0.041316,0.212635,1,WALK
1759627940.34950,0.335637,-1.962796,-8.299799,0.104898,0.203275,0.157807,1,WALK
1759627940.36947,0.799663,-1.961599,-8.523208,0.07946,0.206988,0.183698,1,WALK
1759627940.38888,1.026065,-1.901295,-8.518719,0.073297,0.000221,0.217108,1,WALK
1759627940.40893,0.768838,-2.045097,-8.440758,0.102335,-0.17275,0.211953,1,WALK
1759627940.42950,0.609624,-2.231246,-8.099135,0.143165,-0.25461,0.145706,1,WALK
1759627940.44951,0.682796,-2.492663,-8.025663,0.144874,-0.201802,0.105285,1,WALK
1759627940.46935,0.74744,-2.670882,-8.198195,0.093222,-0.048858,0.173944,1,WALK
1759627940.48889,0.615459,-2.884115,-8.703522,0.044918,0.056813,0.282564,1,WALK
1759627940.50950,0.442927,-2.862867,-9.177873,0.051336,-0.03866,0.306871,1,WALK
1759627940.52875,0.087388,-2.978237,-9.70744,0.094267,-0.175258,0.239845,1,WALK
1759627940.54949,-0.104148,-3.093608,-9.940426,0.188489,-0.393888,0.117231,1,WALK
1759627940.56947,-0.336984,-3.185635,-10.227581,0.24051,-0.408271,0.026142,1,WALK
1759627940.58896,-0.455796,-3.468001,-10.425551,0.308458,-0.213814,-0.119951,1,WALK
1759627940.60950,-0.275932,-3.417124,-10.42615,0.399044,-0.050813,-0.230176,1,WALK
1759627940.62950,0.09502,-3.478925,-10.19062,0.41482,0.00159,-0.296875,1,WALK
1759627940.64950,0.354043,-3.481468,-9.59207,0.241611,-0.132235,-0.279955,1,WALK
1759627940.66947,0.023493,-3.552097,-9.740361,-0.090529,-0.13999,-0.240746,1,WALK
1759627940.68898,0.240318,-3.012654,-10.16608,-0.390249,0.024965,-0.208481,1,WALK
1759627940.70950,0.217274,-2.488174,-11.468974,-0.514046,0.387246,-0.17727,1,WALK
1759627940.72950,0.252289,-1.88708,-12.231378,-0.221754,0.607963,-0.244523,1,WALK
1759627940.74949,0.521337,-1.520168,-11.362283,0.301124,0.275715,-0.427751,1,WALK
1759627940.76906,0.4543,-1.775749,-9.812785,0.617305,-0.190663,-0.629778,1,WALK
1759627940.78895,0.101305,-2.746299,-8.644564,0.516874,-0.164041,-0.720031,1,WALK
1759627940.80861,0.296282,-3.197007,-7.947852,0.096774,0.021723,-0.634062,1,WALK
1759627940.82954,0.620697,-3.102736,-8.105869,-0.300234,0.211123,-0.416172,1,WALK
1759627940.84955,0.877625,-2.619556,-8.679131,-0.429406,0.201611,-0.131754,1,WALK
1759627940.86947,0.863858,-2.125303,-9.110985,-0.33684,0.118771,0.063337,1,WALK
1759627940.88897,0.735469,-1.698985,-9.124901,-0.19625,0.108257,0.124997,1,WALK
1759627940.90951,0.611569,-1.44101,-8.8156,-0.116898,0.147601,0.137614,1,WALK
1759627940.92949,0.054019,-1.641375,-8.859145,-0.105382,0.143292,0.158045,1,WALK
1759627940.94954,-0.341772,-1.61863,-8.213608,0.01995,-0.223705,0.066631,1,WALK
1759627940.96939,-0.390255,-1.541716,-7.693019,0.0677,-0.55073,-0.058262,1,WALK
1759627940.98899,-0.592415,-2.211345,-7.625682,0.015147,-0.461545,-0.267887,1,WALK
1759627941.00950,-0.193781,-2.656067,-8.070555,0.010906,0.040308,-0.389784,1,WALK
1759627941.02954,0.753725,-2.876633,-8.160487,0.081976,0.252329,-0.28014,1,WALK
1759627941.04950,1.356315,-3.029713,-8.893412,0.072366,0.254781,0.057029,1,WALK
1759627941.06948,0.95364,-3.243395,-9.324218,0.074896,0.108752,0.326872,1,WALK
1759627941.08899,0.54109,-2.895488,-9.887155,0.100509,0.038018,0.442916,1,WALK
1759627941.10951,0.054917,-2.905962,-10.27741,0.079731,0.071825,0.39318,1,WALK
1759627941.12951,0.040851,-2.947262,-10.76882,0.056465,0.235555,0.228049,1,WALK
1759627941.14927,0.509815,-2.929755,-10.670658,0.103866,0.14271,0.088643,1,WALK
1759627941.16942,0.850241,-3.206435,-10.375123,0.039054,-0.016111,0.106254,1,WALK
1759627941.18901,0.651223,-3.697246,-10.653,-0.136604,-0.045391,0.157598,1,WALK
1759627941.20951,0.547973,-3.523816,-11.133487,-0.187247,0.083929,0.162829,1,WALK
1759627941.22951,0.632967,-3.229628,-11.019164,-0.113224,0.138156,0.113922,1,WALK
1759627941.24951,0.951097,-3.071312,-10.733655,-0.173961,0.212952,0.080901,1,WALK
1759627941.26948,1.541118,-2.512116,-10.828974,-0.387212,0.255811,0.187275,1,WALK
1759627941.28903,1.236007,-1.976563,-10.95048,-0.382488,-0.039001,0.2377,1,WALK
1759627941.30951,0.694019,-1.310227,-10.268731,-0.06778,-0.500642,0.135431,1,WALK
1759627941.32950,-0.096666,-1.523012,-9.506178,0.273897,-0.54688,-0.147675,1,WALK
1759627941.34951,-0.186448,-2.032228,-8.647557,0.458465,-0.212074,-0.481306,1,WALK
1759627941.36928,0.601693,-2.143259,-7.651719,0.356115,0.16186,-0.579241,1,WALK
1759627941.38905,1.654543,-2.217929,-7.784298,-0.067627,0.469284,-0.356096,1,WALK
1759627941.40950,1.576283,-2.285714,-8.31207,-0.418866,0.401611,-0.069866,1,WALK
1759627941.42950,1.36245,-1.63913,-9.300276,-0.379251,0.137223,0.05627,1,WALK
1759627941.44950,1.059135,-1.401057,-9.549722,-0.061795,-0.050355,0.001906,1,WALK
1759627941.46948,0.832434,-1.507449,-9.097817,0.210918,-0.107073,-0.050435,1,WALK
1759627941.48906,0.651971,-1.960253,-8.298902,0.214142,-0.145793,-0.026566,1,WALK
1759627941.50920,0.690727,-2.084153,-7.744195,0.051966,-0.19017,-0.019212,1,WALK
1759627941.52950,0.807893,-2.193687,-7.40751,-0.086057,-0.306654,-0.055383,1,WALK
1759627941.54950,0.951396,-2.353201,-7.305009,-0.139595,-0.390847,-0.070629,1,WALK
1759627941.56948,1.00332,-2.596512,-7.654562,-0.18197,-0.246062,-0.046898,1,WALK
1759627941.58909,1.113603,-2.844162,-8.009951,-0.207677,-0.06832,0.013522,1,WALK
1759627941.60931,1.334767,-2.76635,-8.491186,-0.239724,-0.024577,0.124929,1,WALK
1759627941.62949,1.375768,-2.827253,-9.180117,-0.27863,-0.042537,0.210802,1,WALK
1759627941.64955,1.101931,-2.809745,-9.942371,-0.226241,-0.100679,0.217166,1,WALK
1759627941.66945,0.69776,-3.045724,-10.278008,-0.050344,-0.277053,0.123888,1,WALK
1759627941.68913,0.538695,-3.24534,-10.168174,0.066481,-0.435815,0.028016,1,WALK
1759627941.70924,0.180463,-3.70787,-10.387992,0.034578,-0.369801,0.048417,1,WALK
1759627941.72941,-0.282815,-3.567061,-10.895413,0.101024,-0.22568,0.076977,1,WALK
1759627941.74949,-0.220117,-3.016544,-10.641029,0.242909,-0.28787,0.056229,1,WALK
1759627941.76948,-0.452953,-3.056947,-10.364649,0.255651,-0.370528,-0.075436,1,WALK
1759627941.78916,-0.79712,-3.269282,-10.048464,0.148354,-0.243047,-0.205725,1,WALK
1759627941.80950,-0.643741,-3.194912,-11.149797,-0.154299,0.445175,-0.16599,1,WALK
1759627941.82951,-0.120159,-2.913145,-12.480225,-0.360109,1.030285,-0.128304,1,WALK
1759627941.84883,0.597952,-2.024597,-13.276596,-0.089037,0.743162,-0.098211,1,WALK
1759627941.86879,0.977582,-1.08996,-11.860426,0.513753,-0.218816,-0.194594,1,WALK
1759627941.88916,0.227898,-1.196203,-10.02961,0.882173,-0.892264,-0.415485,1,WALK
1759627941.90950,-0.770334,-2.57242,-8.697536,0.863182,-0.705411,-0.717164,1,WALK
1759627941.92949,-0.826149,-3.3447,-7.696012,0.57914,-0.251527,-0.87137,1,WALK
1759627941.94881,0.023044,-3.477279,-7.644237,0.121184,0.182612,-0.707027,1,WALK
1759627941.96948,0.793229,-3.421913,-8.360552,-0.214608,0.401966,-0.332083,1,WALK
1759627941.98923,1.07784,-2.788646,-9.489568,-0.312087,0.571935,0.107566,1,WALK
1759627942.00950,0.887201,-2.040159,-9.854534,-0.218643,0.565499,0.404566,1,WALK
1759627942.02951,0.369156,-1.792958,-9.584588,0.035531,0.243017,0.407494,1,WALK
1759627942.04950,0.314538,-1.354819,-8.972869,0.237017,0.031332,0.222854,1,WALK
1759627942.06948,0.233734,-1.711106,-8.238897,0.235192,-0.101838,-0.00509,1,WALK
1759627942.08919,-0.097564,-2.273893,-7.669975,0.186132,-0.331819,-0.125914,1,WALK
1759627942.10950,-0.140061,-2.498349,-7.087884,0.190961,-0.501046,-0.128186,1,WALK
1759627942.12950,-0.212186,-2.646042,-6.974758,0.189266,-0.355162,-0.108872,1,WALK
1759627942.14883,-0.232537,-2.896685,-7.016208,0.179777,-0.183683,-0.109242,1,WALK
1759627942.16929,0.233584,-3.259107,-7.422773,0.096588,0.205222,-0.005851,1,WALK
1759627942.18919,0.66469,-3.299958,-7.981969,0.022235,0.17429,0.168883,1,WALK
1759627942.20949,0.789787,-3.356671,-8.737489,-0.085348,0.055392,0.346861,1,WALK
1759627942.22948,0.307206,-3.346944,-9.527576,-0.108642,0.027095,0.429351,1,WALK
1759627942.24948,0.19393,-3.213617,-9.749189,-0.099162,0.051356,0.434592,1,WALK
1759627942.26948,0.457891,-3.112612,-10.790218,-0.09658,0.239798,0.419813,1,WALK
1759627942.28923,0.507122,-3.087772,-10.864139,-0.061518,0.182108,0.394684,1,WALK
1759627942.30951,0.717063,-2.957587,-10.775105,-0.016444,-0.066801,0.360788,1,WALK
1759627942.32951,0.506523,-3.216161,-10.654197,-0.066845,-0.14553,0.349884,1,WALK
1759627942.34951,0.183755,-3.561674,-10.646566,-0.146174,-0.055459,0.324383,1,WALK
1759627942.36948,0.263811,-3.550152,-10.585813,-0.216583,0.100806,0.285146,1,WALK
1759627942.38925,0.899172,-3.038242,-11.02485,-0.452945,0.588504,0.364399,1,WALK
1759627942.40951,1.354071,-2.675371,-11.9743,-0.615765,0.840696,0.45766,1,WALK
1759627942.42952,1.371728,-1.846827,-12.290335,-0.377623,0.514258,0.512399,1,WALK
1759627942.44951,0.894983,-1.384597,-11.513865,0.165728,0.146253,0.361437,1,WALK
1759627942.46948,0.325013,-1.721581,-10.143484,0.636714,0.016582,0.048609,1,WALK
1759627942.48926,0.485424,-2.351106,-8.747066,0.704277,0.193683,-0.098624,1,WALK
1759627942.50951,1.030853,-2.685995,-7.849091,0.409031,0.335495,-0.006148,1,WALK
1759627942.52952,1.508048,-2.429516,-7.732822,0.019679,0.220188,0.234016,1,WALK
1759627942.54951,1.188571,-2.239027,-8.075792,-0.137318,-0.06782,0.373463,1,WALK
1759627942.56948,0.625934,-2.12665,-8.181586,-0.041926,-0.213398,0.376536,1,WALK
1759627942.58929,0.245106,-2.202965,-7.704242,0.104474,-0.139533,0.350764,1,WALK
1759627942.60952,0.160262,-2.586187,-7.147141,0.109285,0.040169,0.343182,1,WALK
1759627942.62952,0.216975,-2.858677,-6.913407,-0.047378,0.109079,0.352987,1,WALK
1759627942.64951,0.473453,-2.724751,-7.065439,-0.196058,-0.018781,0.333722,1,WALK
1759627942.66949,0.378134,-2.493711,-7.512556,-0.24196,-0.176033,0.294711,1,WALK
1759627942.68930,0.171485,-2.918382,-7.905953,-0.192832,-0.132502,0.119299,1,WALK
1759627942.70951,0.597503,-3.409044,-7.760056,-0.14371,-0.122225,-0.000784,1,WALK
1759627942.72951,0.767042,-3.701735,-7.96925,-0.19356,-0.041762,0.081017,1,WALK
1759627942.74950,0.795623,-3.711013,-8.555829,-0.273206,0.176511,0.167077,1,WALK
1759627942.76948,0.892738,-3.463811,-9.693075,-0.255735,0.395491,0.21931,1,WALK
1759627942.78932,1.000627,-3.182193,-10.220099,-0.071976,0.258057,0.224529,1,WALK
1759627942.80940,0.926556,-3.224541,-10.18658,0.122577,-0.335459,0.163009,1,WALK
1759627942.82952,0.339677,-3.48895,-10.364649,0.204488,-0.619084,-0.062557,1,WALK
1759627942.84952,-0.28072,-3.734356,-10.610054,0.30726,-0.311287,-0.245069,1,WALK
1759627942.86949,-0.352546,-3.798401,-10.6533,0.57232,0.121074,-0.277368,1,WALK
1759627942.88933,-0.008829,-3.962404,-10.033201,0.686934,0.128294,-0.199494,1,WALK
1759627942.90951,0.185102,-4.020463,-9.782708,0.367359,0.006817,-0.157462,1,WALK
1759627942.92951,0.315286,-3.830573,-10.797999,-0.313925,0.216731,-0.089263,1,WALK
1759627942.94951,0.371849,-2.817078,-12.324003,-0.710784,0.532982,-0.036236,1,WALK
1759627942.96923,0.209942,-2.046444,-12.991088,-0.418832,0.257566,-0.098895,1,WALK
1759627942.98935,0.428861,-1.633444,-11.73907,0.319011,-0.408238,-0.380837,1,WALK
1759627943.00952,0.264559,-2.16376,-10.207828,0.693401,-0.564252,-0.596971,1,WALK
1759627943.02952,0.06614,-3.663278,-8.876802,0.453359,-0.171082,-0.612767,1,WALK
1759627943.04951,0.53271,-3.800197,-8.384045,-0.11682,0.204415,-0.350263,1,WALK
1759627943.06948,0.817171,-2.983026,-8.905383,-0.423192,0.276022,-0.042661,1,WALK
1759627943.08937,0.812831,-2.263568,-9.593716,-0.313432,0.189125,0.02322,1,WALK
1759627943.10951,0.951396,-2.043152,-9.486874,0.044938,0.068416,-0.064094,1,WALK
1759627943.12951,1.239598,-1.956661,-8.574983,0.374504,-0.046044,-0.040438,1,WALK
1759627943.14951,0.913089,-2.400337,-7.872434,0.450549,0.020763,0.101206,1,WALK
1759627943.16907,0.244358,-2.686594,-6.98658,0.386342,-0.09875,0.110762,1,WALK
1759627943.18938,-0.047136,-2.45286,-6.619968,0.208538,-0.246231,0.076455,1,WALK
1759627943.20951,-0.113276,-2.750788,-7.038803,-0.031763,-0.123909,-0.054301,1,WALK
1759627943.22951,0.187795,-2.849699,-7.58947,-0.143082,0.039089,-0.123444,1,WALK
1759627943.24949,0.485873,-2.92736,-7.827393,-0.037919,-0.013043,-0.009445,1,WALK
1759627943.26908,0.529418,-3.112313,-8.084321,0.062919,0.116005,0.142186,1,WALK
1759627943.28940,0.472406,-3.482366,-8.498967,0.051368,0.281839,0.166815,1,WALK
1759627943.30951,0.719009,-3.249381,-8.545804,0.058097,0.08266,0.129133,1,WALK
1759627943.32887,0.746542,-3.133112,-8.850915,0.039567,-0.050702,0.084822,1,WALK
1759627943.34951,0.78036,-3.554492,-9.284864,-0.051301,0.035052,0.041074,1,WALK
1759627943.36909,1.289876,-3.698293,-10.121488,-0.158616,0.182061,0.064145,1,WALK
1759627943.38941,1.641973,-3.558831,-10.353127,-0.153109,0.100769,0.142345,1,WALK
1759627943.40951,1.56072,-3.515287,-10.444854,-0.120154,-0.016326,0.19675,1,WALK
1759627943.42952,1.293168,-3.605219,-10.331878,-0.180435,0.119034,0.206285,1,WALK
1759627943.44952,1.140687,-3.924994,-10.0543,-0.314698,0.269954,0.205347,1,WALK
1759627943.46950,1.785626,-3.289633,-9.861118,-0.62263,0.429165,0.359107,1,WALK
1759627943.48943,2.052878,-2.570175,-10.436624,-1.064036,0.596182,0.608325,1,WALK
1759627943.50952,1.600374,-1.790264,-11.193192,-1.146531,0.502898,0.637711,1,WALK
1759627943.52952,0.940323,-1.400907,-11.539005,-0.709077,0.253018,0.488402,1,WALK
1759627943.54955,0.585682,-1.510741,-10.944345,-0.01159,0.009231,0.163123,1,WALK
1759627943.56949,0.995689,-1.949628,-9.841216,0.396644,0.069315,-0.066877,1,WALK
1759627943.58944,1.583465,-2.464082,-9.012823,0.332143,0.210722,-0.032594,1,WALK
1759627943.60951,1.816601,-2.590077,-8.522161,0.013063,0.152659,0.188997,1,WALK
1759627943.62933,1.537077,-2.413206,-8.490438,-0.217351,-0.145959,0.421581,1,WALK
1759627943.64952,0.811934,-2.104803,-8.807819,-0.212337,-0.23685,0.507466,1,WALK
1759627943.66950,0.281468,-2.089091,-9.003545,-0.083568,-0.061027,0.476949,1,WALK
1759627943.68946,0.284611,-2.184559,-8.845378,0.056543,0.066363,0.408352,1,WALK
1759627943.70953,0.618751,-2.209998,-8.388684,0.086107,-0.067555,0.388793,1,WALK
1759627943.72936,0.60289,-2.348113,-8.264634,-0.01443,-0.243175,0.39834,1,WALK
1759627943.74898,0.306009,-2.414552,-8.446444,-0.061948,-0.22504,0.316693,1,WALK
1759627943.76950,0.373495,-2.392406,-8.455871,0.017921,-0.16271,0.193176,1,WALK
1759627943.78948,0.581192,-2.743007,-8.141333,0.116493,-0.218752,0.122815,1,WALK
1759627943.80952,0.736516,-3.196708,-8.019827,0.146591,-0.175716,0.0861,1,WALK
1759627943.82957,1.137844,-3.392584,-7.975684,0.057074,-0.152994,0.147316,1,WALK
1759627943.84901,0.798167,-3.63784,-8.538022,-0.044476,-0.14036,0.24473,1,WALK
1759627943.86949,0.52433,-3.405752,-9.246257,-0.045128,-0.11771,0.266348,1,WALK
1759627943.88949,0.201711,-3.556437,-9.856629,0.029367,-0.135587,0.183062,1,WALK
1759627943.90952,0.09487,-3.721188,-10.1782,0.110032,-0.222801,0.04097,1,WALK
1759627943.92952,0.26007,-3.762787,-10.464906,0.143793,-0.197369,-0.027202,1,WALK
1759627943.94899,0.18166,-4.072537,-10.802638,0.188085,-0.200236,-0.040044,1,WALK
1759627943.96949,0.421679,-3.681983,-10.730513,0.280944,-0.26261,-0.000804,1,WALK
1759627943.98951,0.251242,-3.637541,-10.47538,0.235056,-0.282373,0.049811,1,WALK
1759627944.00952,-0.353743,-3.875315,-10.335619,0.098236,-0.276994,-0.035541,1,WALK
1759627944.02953,-0.702997,-3.584569,-10.28549,0.011149,-0.217218,-0.087115,1,WALK
1759627944.04859,-0.765396,-3.231274,-10.756699,0.029463,0.141265,-0.126682,1,WALK
1759627944.06928,-0.195576,-2.559102,-10.963199,0.077255,0.354661,-0.119613,1,WALK
1759627944.08903,-0.100257,-2.0644,-10.469993,0.204064,-0.013206,-0.143927,1,WALK
1759627944.10949,-0.858321,-1.981352,-9.638757,0.350019,-0.398446,-0.329916,1,WALK
1759627944.12950,-1.431583,-2.549376,-8.975413,0.455401,-0.192456,-0.644862,1,WALK
1759627944.14861,-1.480066,-2.954594,-8.563012,0.481648,-0.03748,-0.776423,1,WALK
1759627944.16949,-0.039953,-2.976292,-7.691373,0.280175,0.335205,-0.730531,1,WALK
1759627944.18903,0.735319,-2.925565,-7.91149,-0.095889,0.481655,-0.380898,1,WALK
1759627944.20869,0.742801,-2.958036,-8.206874,-0.249558,0.499404,-0.235758,1,WALK
1759627944.22922,0.774824,-2.421735,-8.659229,-0.3366,0.368663,-0.086766,1,WALK
1759627944.24949,0.659303,-1.68896,-8.992322,-0.187496,0.212874,-0.002845,1,WALK
1759627944.26949,0.028282,-1.924489,-8.633342,-0.069745,0.060547,-0.053217,1,WALK
1759627944.28908,-0.1857,-1.962946,-8.459762,-0.015616,-0.029087,-0.115159,1,WALK
1759627944.30944,-0.394145,-2.111686,-7.902511,0.060187,-0.198254,-0.25722,1,WALK
1759627944.32952,-0.217872,-2.27913,-7.525574,0.0526,-0.233162,-0.355835,1,WALK
1759627944.34952,-0.068235,-2.69632,-7.666982,-0.069205,-0.06346,-0.367186,1,WALK
1759627944.36949,0.166547,-3.013402,-7.971046,-0.160764,0.126291,-0.313544,1,WALK
1759627944.38909,0.479289,-3.028216,-8.257452,-0.138551,0.127028,-0.21953,1,WALK
1759627944.40952,0.76794,-3.087173,-8.815151,-0.068945,0.049505,-0.128967,1,WALK
1759627944.42951,0.505625,-3.294721,-9.134628,-0.003369,-0.030479,-0.054854,1,WALK
1759627944.44951,0.233734,-3.368193,-9.631424,-0.020331,0.010505,0.002196,1,WALK
1759627944.46949,0.113575,-3.385401,-10.147524,-0.096458,0.206192,-0.005787,1,WALK
1759627944.48916,0.502782,-3.296666,-10.504111,-0.128805,0.174367,-0.057291,1,WALK
1759627944.50952,0.979079,-3.27422,-10.705224,-0.123191,-0.117107,-0.132208,1,WALK
1759627944.52952,0.987159,-3.347692,-10.592098,-0.074872,-0.223186,-0.181399,1,WALK
1759627944.54880,0.789039,-3.785532,-10.562619,-0.049536,-0.010917,-0.141419,1,WALK
1759627944.56949,0.988805,-3.828029,-10.530447,-0.063803,0.288182,-0.110454,1,WALK
1759627944.58913,1.656638,-3.797503,-10.34759,-0.119448,0.330642,-0.067505,1,WALK
1759627944.60952,2.587384,-3.273921,-10.432734,-0.320273,0.310173,0.084684,1,WALK
1759627944.62953,2.59322,-2.544887,-11.2104,-0.573927,0.414233,0.361883,1,WALK
1759627944.64881,2.03567,-1.800889,-11.389517,-0.396216,0.051311,0.386531,1,WALK
1759627944.66949,1.487996,-1.199345,-10.967838,0.109097,-0.261178,0.210326,1,WALK
1759627944.68915,1.107318,-1.453729,-9.956737,0.522159,-0.203495,-0.019701,1,WALK
1759627944.70951,1.473481,-2.084302,-9.000852,0.519168,0.076933,-0.051569,1,WALK
1759627944.72908,1.931971,-2.315792,-8.813505,0.115854,0.375907,0.157238,1,WALK
1759627944.74880,1.978359,-2.009783,-8.971074,-0.182492,0.194131,0.342588,1,WALK
1759627944.76908,1.587655,-1.480963,-9.003096,-0.12251,-0.296178,0.320887,1,WALK
1759627944.78916,0.954688,-1.685069,-8.769362,0.124788,-0.451105,0.124148,1,WALK
1759627944.80952,0.79278,-2.275539,-8.100033,0.260276,-0.226035,0.066333,1,WALK
1759627944.82950,0.859518,-2.600552,-7.627926,0.162685,0.033788,0.190635,1,WALK
1759627944.84954,0.826897,-2.855684,-7.525425,-0.063617,0.076593,0.331134,1,WALK
1759627944.86950,0.867,-2.502839,-7.833977,-0.175337,-0.061821,0.3204,1,WALK
1759627944.88918,0.629974,-2.46094,-7.914034,-0.104269,-0.213884,0.208526,1,WALK
1759627944.90952,0.510115,-2.799271,-7.981371,0.009699,-0.198969,0.083674,1,WALK
1759627944.92952,0.745195,-3.122787,-7.881113,0.032576,-0.092963,0.069521,1,WALK
1759627944.94953,0.82151,-3.421015,-8.189666,-0.013173,0.036419,0.113123,1,WALK
1759627944.96950,1.041927,-3.438822,-8.803779,-0.058612,0.119435,0.168859,1,WALK
1759627944.98921,1.080832,-3.309984,-9.172486,-0.022395,-0.065869,0.196329,1,WALK
1759627945.00953,0.642394,-3.437325,-9.345617,0.086816,-0.394632,0.159668,1,WALK
1759627945.02952,0.245555,-3.589956,-9.2907,0.179416,-0.527164,0.072534,1,WALK
1759627945.04952,-0.059406,-3.932776,-9.316736,0.141877,-0.329316,0.067348,1,WALK
1759627945.06950,-0.288052,-4.141819,-9.751733,0.054515,-0.136569,0.110827,1,WALK
1759627945.08922,-0.547973,-3.914669,-10.397719,0.072592,-0.088382,0.059194,1,WALK
1759627945.10916,0.009577,-3.351882,-10.397719,0.079385,-0.217768,-0.028917,1,WALK
1759627945.12952,0.013916,-3.485958,-10.48391,-0.065132,-0.41358,-0.107216,1,WALK
1759627945.14951,-0.661398,-3.816507,-10.458471,-0.218104,-0.550304,-0.130235,1,WALK
1759627945.16950,-0.855329,-3.523966,-10.722731,-0.292219,-0.29967,-0.082798,1,WALK
1759627945.18925,-1.059434,-3.196558,-11.261726,-0.296046,0.173879,-0.064346,1,WALK
1759627945.20953,-0.649128,-2.494908,-11.303625,-0.138406,0.193852,-0.095368,1,WALK
1759627945.22905,-0.728885,-2.018611,-10.657489,0.166355,-0.226506,-0.256053,1,WALK
1759627945.24950,-1.311274,-2.038214,-9.478794,0.381981,-0.561133,-0.534062,1,WALK
1759627945.26950,-1.70108,-2.807052,-8.730606,0.385629,-0.346576,-0.808206,1,WALK
1759627945.28926,-1.489193,-3.223344,-8.086566,0.3031,0.049947,-0.943349,1,WALK
1759627945.30952,-0.354791,-2.968361,-8.381801,-0.010928,0.682034,-0.759077,1,WALK
1759627945.32952,0.468665,-3.013552,-8.984092,-0.302078,0.877174,-0.502981,1,WALK
1759627945.34952,0.93329,-2.162862,-9.619004,-0.33619,0.557954,-0.358476,1,WALK
1759627945.36950,0.850989,-1.649006,-9.404424,-0.147249,0.064201,-0.312952,1,WALK
1759627945.38927,0.709282,-1.412729,-9.296835,-0.018495,0.038301,-0.326608,1,WALK
1759627945.40920,0.477344,-1.985242,-9.182362,-0.023236,0.130977,-0.352613,1,WALK
1759627945.42873,0.191536,-1.954866,-8.500314,0.114268,-0.214219,-0.357613,1,WALK
1759627945.44953,-0.104597,-2.053626,-7.831134,0.247692,-0.441041,-0.343321,1,WALK
1759627945.46884,-0.092326,-2.522142,-7.447464,0.279519,-0.190983,-0.357,1,WALK
1759627945.48930,0.079158,-2.78715,-7.235577,0.177042,0.169493,-0.318196,1,WALK
1759627945.50953,0.459537,-2.898031,-7.30845,0.0496,0.124527,-0.297565,1,WALK
1759627945.52873,0.812981,-2.780566,-7.850438,-0.05246,-0.04992,-0.246781,1,WALK
1759627945.54953,0.821062,-3.070414,-8.568548,-0.10741,-0.076196,-0.175062,1,WALK
1759627945.56950,0.796222,-3.301155,-9.090185,-0.10366,0.025292,-0.091849,1,WALK
1759627945.58931,0.67711,-3.3652,-9.337536,-0.083759,0.025958,-0.01731,1,WALK
1759627945.60940,0.694917,-3.431938,-9.791836,-0.070692,0.009912,-0.014803,1,WALK
1759627945.62873,1.008408,-3.259257,-10.023026,-0.092873,0.014704,-0.018755,1,WALK
1759627945.64952,1.019631,-3.47653,-10.202741,-0.142945,0.020467,-0.023722,1,WALK
1759627945.66950,1.06108,-3.587861,-10.421062,-0.191747,-0.005993,0.016394,1,WALK
1759627945.68933,0.849343,-3.422811,-10.395624,-0.207286,0.034062,0.035883,1,WALK
1759627945.70952,0.760159,-3.31148,-10.063428,-0.242212,0.081938,-0.018968,1,WALK
1759627945.72873,1.649156,-2.503138,-10.274417,-0.530415,0.297487,0.037732,1,WALK
1759627945.74950,1.77545,-2.224962,-11.353005,-0.927904,0.509057,0.151333,1,WALK
1759627945.76950,1.513135,-1.538873,-11.896489,-0.780031,0.112787,0.109856,1,WALK
1759627945.78934,1.236605,-1.004667,-11.560103,-0.174682,-0.320119,-0.111115,1,WALK
1759627945.80929,1.153407,-1.37098,-10.497527,0.373159,-0.399082,-0.405553,1,WALK
1759627945.82873,1.639878,-2.282273,-9.884611,0.482994,0.09697,-0.427861,1,WALK
1759627945.84902,2.424129,-2.70051,-9.228001,0.259941,0.457344,-0.155023,1,WALK
1759627945.86950,2.839224,-2.286463,-9.074324,-0.006043,0.243458,0.240719,1,WALK
1759627945.88937,2.273893,-1.799691,-9.180417,-0.09205,-0.150251,0.414605,1,WALK
1759627945.90952,1.481861,-1.708562,-9.114277,0.032416,-0.298859,0.345598,1,WALK
1759627945.92873,1.270723,-1.873912,-8.529343,0.189005,-0.236829,0.227149,1,WALK
1759627945.94957,1.303942,-2.331952,-7.898771,0.212437,-0.176539,0.252612,1,WALK
1759627945.96950,1.615936,-2.42383,-7.663091,0.086548,-0.148259,0.367795,1,WALK
1759627945.98937,1.414824,-2.433556,-7.683891,-0.003399,-0.150861,0.528039,1,WALK
1759627946.00951,1.074548,-2.327314,-7.67207,0.012212,-0.195595,0.535728,1,WALK
1759627946.02872,0.832135,-2.458097,-7.369203,0.04537,-0.266425,0.403861,1,WALK
1759627946.04953,0.685041,-2.773683,-7.149685,0.043607,-0.266629,0.282538,1,WALK
1759627946.06950,0.793827,-3.000533,-7.042395,-0.02018,-0.157327,0.262771,1,WALK
1759627946.08940,0.853982,-3.315221,-7.603087,-0.200023,0.073214,0.343008,1,WALK
1759627946.10952,0.954239,-3.494337,-8.926182,-0.395347,0.341483,0.469805,1,WALK
1759627946.12871,1.064821,-3.090615,-10.067169,-0.394723,0.276584,0.592348,1,WALK
1759627946.14953,0.497395,-2.917933,-10.523863,-0.146461,-0.16326,0.589648,1,WALK
1759627946.16950,0.083797,-2.889801,-10.514885,0.087577,-0.482306,0.438098,1,WALK
1759627946.18940,-0.280122,-3.230975,-10.541071,0.110611,-0.342251,0.321019,1,WALK
1759627946.20952,-0.650924,-3.585317,-10.750115,0.112738,-0.230203,0.265204,1,WALK
1759627946.22873,-0.761356,-3.539079,-10.89676,0.130826,-0.233482,0.228584,1,WALK
1759627946.24950,-0.771382,-3.296516,-10.560524,0.121421,-0.388695,0.110056,1,WALK
1759627946.26949,-1.122132,-3.385252,-10.549601,-0.030314,-0.272904,0.047754,1,WALK
1759627946.28943,-1.286883,-3.481917,-10.692954,-0.18672,0.142723,0.000356,1,WALK
1759627946.30953,-0.968006,-2.885761,-11.677419,-0.256893,0.461635,0.020873,1,WALK
1759627946.32953,-0.445172,-2.207604,-12.120945,-0.229094,0.622818,0.067089,1,WALK
1759627946.34954,-0.428562,-1.689259,-12.09401,0.050319,0.14738,-0.003573,1,WALK
1759627946.36951,-0.939724,-1.351078,-10.866982,0.418718,-0.354019,-0.255239,1,WALK
1759627946.38945,-1.546954,-1.801188,-9.844658,0.56958,-0.24744,-0.579469,1,WALK
1759627946.40953,-1.448043,-2.58065,-8.933365,0.484762,0.153459,-0.786564,1,WALK
1759627946.42954,-0.594211,-2.666542,-8.569895,0.252697,0.455399,-0.738466,1,WALK
1759627946.44952,0.272789,-2.486678,-8.693346,0.020706,0.460251,-0.504275,1,WALK
1759627946.46950,0.324414,-2.235137,-9.166051,-0.082976,0.256691,-0.311385,1,WALK
1759627946.48946,0.037559,-1.695244,-9.298481,-0.017535,0.089094,-0.241043,1,WALK
1759627946.50953,-0.195127,-1.524508,-9.078962,0.142188,0.051543,-0.303634,1,WALK
1759627946.52952,-0.018854,-1.577779,-8.469039,0.261013,-0.014328,-0.388696,1,WALK
1759627946.54953,-0.009726,-1.987337,-7.72549,0.269916,-0.155874,-0.391922,1,WALK
1759627946.56951,0.022446,-2.280327,-7.286154,0.207943,-0.267292,-0.321645,1,WALK
1759627946.58949,-0.122553,-2.402881,-7.197868,0.139151,-0.192033,-0.255607,1,WALK
1759627946.60952,-0.271443,-2.625541,-7.421576,0.089642,-0.022564,-0.280698,1,WALK
1759627946.62953,0.108338,-2.753781,-7.410952,0.0366,-0.124561,-0.360334,1,WALK
1759627946.64953,0.483629,-2.999935,-7.821707,-0.038032,-0.267648,-0.336424,1,WALK
1759627946.66951,0.430956,-3.203891,-8.382699,-0.057339,-0.209676,-0.270546,1,WALK
1759627946.68951,0.612616,-3.356521,-8.920945,-0.055722,-0.048183,-0.167319,1,WALK
1759627946.70953,0.547075,-3.490147,-9.51351,-0.011063,-0.037847,-0.115394,1,WALK
1759627946.72952,0.678307,-3.365948,-9.975292,0.008292,0.031344,-0.078349,1,WALK
1759627946.74952,0.933589,-3.268534,-10.347889,-0.017971,0.143192,-0.097522,1,WALK
1759627946.76950,1.176451,-3.230077,-10.287885,-0.032239,-0.014142,-0.139422,1,WALK
1759627946.78952,1.075894,-3.458424,-10.506655,-0.036393,-0.088449,-0.12695,1,WALK
1759627946.80954,0.81358,-3.988291,-10.699687,-0.016108,0.06062,-0.112018,1,WALK
1759627946.82954,0.99494,-4.214842,-10.39727,-0.042457,0.163967,-0.060353,1,WALK
1759627946.84953,2.028338,-3.521122,-10.476877,-0.319684,0.457014,0.156042,1,WALK
1759627946.86950,2.398691,-2.865261,-11.591976,-0.787475,0.826694,0.5173,1,WALK
1759627946.88899,2.296937,-1.623418,-11.909956,-0.781883,0.455202,0.634742,1,WALK
1759627946.90953,1.587954,-0.732476,-11.435455,-0.234435,-0.24991,0.467702,1,WALK
1759627946.92953,0.741454,-0.883909,-10.232219,0.414136,-0.562236,0.040283,1,WALK
1759627946.94953,0.749385,-1.740136,-9.109339,0.743462,-0.268285,-0.260702,1,WALK
1759627946.96951,1.48635,-2.387318,-8.124723,0.632262,0.210927,-0.253954,1,WALK
1759627946.98905,2.448969,-2.438644,-7.688679,0.254979,0.44255,0.031454,1,WALK
1759627947.00953,2.568529,-2.253542,-7.722647,-0.08535,0.221486,0.42686,1,WALK
1759627947.02954,1.996764,-1.956661,-7.945757,-0.20833,-0.223936,0.590371,1,WALK
1759627947.04954,0.874183,-1.853411,-8.221689,-0.15449,-0.293659,0.553416,1,WALK
1759627947.06951,0.297031,-2.082357,-8.140136,-0.057981,-0.048973,0.478225,1,WALK
1759627947.08904,0.256928,-2.293196,-8.244733,-0.069174,0.185938,0.461029,1,WALK
1759627947.10952,0.547225,-2.420388,-8.262988,-0.151374,0.096789,0.428618,1,WALK
1759627947.12952,0.55755,-2.278382,-8.25805,-0.18939,-0.224567,0.372226,1,WALK
1759627947.14953,0.235979,-2.533065,-8.304438,-0.161214,-0.342518,0.273797,1,WALK
1759627947.16951,-0.126593,-2.971204,-8.19221,-0.091929,-0.237077,0.179082,1,WALK
1759627947.18908,-0.019752,-3.257311,-8.12622,-0.053143,-0.054386,0.121362,1,WALK
1759627947.20953,0.234781,-3.51394,-8.395717,-0.118156,0.011387,0.148279,1,WALK
1759627947.22953,0.439935,-3.364452,-8.841188,-0.220618,-0.050566,0.201608,1,WALK
1759627947.24954,0.25603,-3.266439,-9.576358,-0.280994,-0.113569,0.206882,1,WALK
1759627947.26947,-0.091129,-3.179051,-10.095451,-0.198549,-0.198359,0.096506,1,WALK
1759627947.28910,-0.395492,-3.208978,-10.528801,-0.042172,-0.17834,-0.028352,1,WALK
1759627947.30954,-0.17328,-3.332878,-10.90484,0.102708,-0.096421,-0.132311,1,WALK
1759627947.32953,0.117914,-3.399018,-10.694151,0.275656,-0.236175,-0.215571,1,WALK
1759627947.34954,0.104597,-3.679888,-10.219201,0.356334,-0.346798,-0.270016,1,WALK
1759627947.36951,-0.151433,-4.143465,-10.026767,0.230902,-0.039984,-0.273126,1,WALK
1759627947.38911,0.426168,-3.9844,-10.217854,-0.095901,0.294655,-0.143984,1,WALK
1759627947.40952,0.793379,-3.144934,-11.556512,-0.487912,0.645627,0.114472,1,WALK
