SamplingTime,AccelerationX,AccelerationY,AccelerationZ,GyroX,GyroY,GyroZ,Durations,Subject,Activity
1759223385.45805,1.438616,14.037653,-9.61257,0.330006,0.778831,-0.303908,7.59,3,WALK
1759223385.47723,3.942352,1.023222,-2.477849,-0.496621,0.933745,0.558986,7.61,3,WALK
1759223385.49819,4.753538,-1.271022,-1.338209,-0.355449,0.825664,0.826423,7.63,3,WALK
1759223385.51815,8.197298,8.272116,-3.168876,0.029031,1.732833,1.394878,7.65,3,WALK
1759223385.53815,10.543466,16.261867,-2.692729,1.393438,1.717951,1.912285,7.67,3,WALK
1759223385.55820,3.540575,14.717906,0.511461,1.348222,0.88135,1.912477,7.69,3,WALK
1759223385.57808,-1.929727,11.146355,3.152266,0.659377,-1.573948,2.099018,7.71,3,WALK
1759223385.59811,-9.008333,10.920852,0.980874,0.631621,-1.740861,1.740685,7.73,3,WALK
1759223385.61807,-12.934226,9.862465,-0.08245,0.487399,-0.959191,0.82855,7.75,3,WALK
1759223385.63806,-8.279149,9.132383,0.9909,0.606211,-1.362037,-0.07407,7.77,3,WALK
1759223385.65807,-1.649306,8.774599,1.326388,0.671655,-1.725711,-0.342511,7.79,3,WALK
1759223385.67712,2.214637,8.325537,1.959355,0.454295,-1.639225,-0.104096,7.81,3,WALK
1759223385.69810,3.158999,7.661146,1.609053,0.271575,-1.580212,0.139784,7.83,3,WALK
1759223385.71801,3.021782,7.858668,0.395343,0.254135,-0.93326,0.229016,7.85,3,WALK
1759223385.73807,2.367865,8.771008,1.171962,0.401287,-0.834479,0.363324,7.87,3,WALK
1759223385.75768,1.110311,8.68766,1.755997,0.251728,-0.998111,0.611601,7.89,3,WALK
1759223385.77793,-1.074548,8.8569,-0.147992,0.321883,-1.08274,0.673021,7.91,3,WALK
1759223385.79795,-0.741903,9.012972,-0.669778,0.485731,-1.181365,0.826204,7.93,3,WALK
1759223385.81793,-0.463727,9.16231,-0.174777,0.428355,-1.483938,1.003211,7.95,3,WALK
1759223385.83795,-1.090409,9.147796,-1.492635,0.470953,-1.278358,1.010165,7.97,3,WALK
1759223385.85764,-0.730381,9.626187,-1.732504,0.684127,-1.030187,0.882825,7.99,3,WALK
1759223385.87700,0.667982,10.573692,-0.1034,0.671348,-1.091421,0.861696,8.01,3,WALK
1759223385.89797,0.387711,10.048913,0.927753,0.275489,-1.262249,0.887258,8.03,3,WALK
1759223385.91785,-0.064943,9.93878,0.354791,0.134686,-1.127361,0.903482,8.05,3,WALK
1759223385.93784,-0.388908,10.600029,1.90369,-0.065887,-0.899669,0.915914,8.07,3,WALK
1759223385.95694,-1.805078,11.660361,1.87466,-0.542851,-0.991811,0.747226,8.09,3,WALK
1759223385.97778,-2.39899,13.926772,0.367211,-0.991439,-1.071165,0.252047,8.11,3,WALK
1759223385.99779,-1.487099,15.235652,1.236007,-1.814073,-0.878711,-0.398776,8.13,3,WALK
1759223386.01713,0.20216,14.658799,1.15625,-2.328484,-1.207015,-1.062696,8.15,3,WALK
1759223386.03724,2.265513,12.048969,-0.753276,-2.4892,-0.842991,-1.679518,8.17,3,WALK
1759223386.05712,5.165191,13.407829,-1.49877,-2.195996,-0.64909,-2.012563,8.19,3,WALK
1759223386.07692,6.390274,14.555848,-0.086939,-1.725947,-0.955085,-1.939517,8.21,3,WALK
1759223386.09772,5.65256,12.239907,1.425747,-1.703852,-0.791218,-1.489101,8.23,3,WALK
1759223386.11771,3.1795,9.253141,0.075417,-1.683577,-0.541682,-1.142598,8.25,3,WALK
1759223386.13769,3.262998,9.999084,-1.71365,-1.51329,0.256135,-0.862218,8.27,3,WALK
1759223386.15684,3.398869,10.830171,0.33848,-1.3958,0.699897,-0.847241,8.29,3,WALK
1759223386.17721,2.76635,9.894487,2.504634,-1.666707,0.070356,-0.96984,8.31,3,WALK
1759223386.19773,1.424849,7.988254,1.311574,-2.001117,-0.880014,-1.040501,8.33,3,WALK
1759223386.21764,2.27524,6.96982,-0.68564,-1.913459,-1.014986,-0.86498,8.35,3,WALK
1759223386.23770,2.495506,5.767931,-0.271143,-1.571466,-1.3218,-0.65905,8.37,3,WALK
1759223386.25763,2.221221,5.626673,-0.760758,-1.120805,-1.231664,-0.763327,8.39,3,WALK
1759223386.27758,3.23307,6.436811,-0.033668,-0.727776,-1.080423,-0.784669,8.41,3,WALK
1759223386.29758,3.095852,6.238541,0.25184,-0.479745,-0.860661,-0.673129,8.43,3,WALK
1759223386.31757,3.055301,5.09127,-0.433051,-0.121636,-0.501104,-0.537961,8.45,3,WALK
1759223386.33756,3.54297,4.65343,0.380678,0.324896,-0.382662,-0.219836,8.47,3,WALK
1759223386.35755,2.193388,4.406079,1.068712,0.806966,-0.289851,0.033421,8.49,3,WALK
1759223386.37750,1.336264,5.902306,2.454655,1.245535,-0.424529,0.233801,8.51,3,WALK
1759223386.39751,-0.452953,8.834903,4.95495,1.70287,-0.851608,0.432152,8.53,3,WALK
1759223386.41750,-2.338536,11.308712,6.857742,1.414203,-0.837057,0.583283,8.55,3,WALK
1759223386.43706,-2.869451,13.433267,7.909245,0.30098,-0.498498,0.108295,8.57,3,WALK
1759223386.45747,-1.128716,12.35423,6.988824,-0.109073,-0.348398,-0.365857,8.59,3,WALK
1759223386.47672,1.584213,9.384073,6.470629,-0.176776,-0.307467,-0.236139,8.61,3,WALK
1759223386.49745,3.983054,6.52824,6.086061,-0.05394,-0.562878,0.085834,8.63,3,WALK
1759223386.51743,2.902072,4.30253,3.495834,0.498538,-0.202859,0.203985,8.65,3,WALK
1759223386.53745,3.478027,10.115801,-3.781193,1.598475,-0.003608,0.433681,8.67,3,WALK
1759223386.55740,4.908263,20.987422,-2.246509,1.347224,0.261828,0.671958,8.69,3,WALK
1759223386.57736,-7.659799,26.795456,6.065261,0.011379,2.331833,-0.574419,8.71,3,WALK
1759223386.59736,2.296788,4.774936,2.205658,-0.114896,-0.374929,-0.009846,8.73,3,WALK
1759223386.61735,4.890007,-0.462979,-1.648857,-0.293866,-1.038996,0.557123,8.75,3,WALK
1759223386.63668,3.347244,0.749684,-3.490297,-0.216497,-1.115782,1.033558,8.77,3,WALK
1759223386.65733,5.026477,11.150396,-5.440823,0.653827,-0.80787,1.253138,8.79,3,WALK
1759223386.67661,2.944269,18.15972,-6.70152,1.741037,0.033567,0.713925,8.81,3,WALK
1759223386.69730,-1.994969,12.948142,-1.650353,2.204528,-0.796534,0.172565,8.83,3,WALK
1759223386.71730,-2.685396,8.517522,0.00404,2.310711,0.409539,-0.205743,8.85,3,WALK
1759223386.73728,-0.47465,6.271312,2.099116,1.471107,1.119873,-0.539499,8.87,3,WALK
1759223386.75735,2.63018,7.653814,1.005864,1.175068,0.293985,-0.32371,8.89,3,WALK
1759223386.77724,3.313276,9.456947,-0.039355,1.164093,-0.30065,0.293624,8.91,3,WALK
1759223386.79724,-0.07018,9.094076,-0.570269,1.036599,-0.136903,0.361612,8.93,3,WALK
1759223386.81721,-0.614412,9.257779,0.018854,1.041726,-0.100043,0.248228,8.95,3,WALK
1759223386.83722,0.352696,9.93863,0.761655,0.82821,-0.10198,0.299442,8.97,3,WALK
1759223386.85720,0.548123,10.196606,0.111929,0.626249,-0.079938,0.251337,8.99,3,WALK
1759223386.87653,1.178546,9.294291,-0.670227,0.549487,0.088462,0.318413,9.01,3,WALK
1759223386.89718,0.884358,8.719084,-0.565181,0.580611,0.215826,0.405065,9.03,3,WALK
1759223386.91716,1.430386,9.282918,-0.245705,0.642998,0.273305,0.609285,9.05,3,WALK
1759223386.93715,1.472135,9.789442,-0.1239,0.635274,0.243731,0.805044,9.07,3,WALK
1759223386.95713,0.304662,9.300276,-0.337732,0.647481,0.355135,0.828572,9.09,3,WALK
1759223386.97633,-0.307056,9.644144,-0.03292,0.734824,0.408736,0.742057,9.11,3,WALK
1759223386.99710,-0.172831,10.662876,0.658106,0.59635,0.35296,0.715877,9.13,3,WALK
1759223387.01712,-0.379331,10.601824,1.485153,0.236763,0.140893,0.73836,9.15,3,WALK
1759223387.03707,-1.458069,10.43034,1.593491,-0.024491,0.061114,0.713631,9.17,3,WALK
1759223387.05706,-2.633023,10.274118,1.998709,-0.313909,0.03686,0.593775,9.19,3,WALK
1759223387.07642,-3.82788,11.529278,2.291251,-0.803065,-0.313343,0.261759,9.21,3,WALK
1759223387.09704,-3.336021,14.972439,1.886481,-1.286251,-0.479938,-0.494864,9.23,3,WALK
1759223387.11702,-0.294636,16.087838,3.169474,-2.228729,-0.455975,-1.02281,9.25,3,WALK
1759223387.13700,2.24606,13.263578,2.18441,-2.887789,-0.274618,-1.32433,9.27,3,WALK
1759223387.15698,6.298845,12.042385,2.484882,-3.08036,0.038064,-1.397686,9.29,3,WALK
1759223387.17695,7.518841,14.887595,-1.190966,-2.686616,0.801973,-1.684696,9.31,3,WALK
1759223387.19696,7.682993,16.304962,-1.74672,-1.959733,1.226175,-1.619003,9.33,3,WALK
1759223387.21695,4.845266,11.647492,1.440112,-1.747713,1.251915,-1.415559,9.35,3,WALK
1759223387.23694,2.859275,7.632715,0.055067,-1.328739,1.417407,-1.13864,9.37,3,WALK
1759223387.25626,1.749862,7.955782,0.299275,-0.878691,0.560536,-0.890502,9.39,3,WALK
1759223387.27632,0.625186,9.633968,1.393276,-1.127134,0.380263,-0.788918,9.41,3,WALK
1759223387.29689,-0.08679,9.729138,1.56476,-1.432915,-0.041784,-0.90818,9.43,3,WALK
1759223387.31688,0.567725,7.696161,1.148618,-1.519215,-0.544032,-0.942075,9.45,3,WALK
1759223387.33664,1.241992,5.786636,0.420033,-1.200064,-0.968916,-1.043548,9.47,3,WALK
1759223387.35685,1.479916,4.694581,0.14021,-0.767209,-1.367943,-1.099965,9.49,3,WALK
1759223387.37638,1.935712,4.490176,-0.255731,-0.318314,-1.407645,-0.958975,9.51,3,WALK
1759223387.39682,2.152537,5.254973,-0.281019,0.107683,-1.099334,-0.704357,9.53,3,WALK
1759223387.41678,2.121113,5.750274,0.518345,0.388319,-0.888081,-0.470729,9.55,3,WALK
1759223387.43680,2.230348,5.722441,1.59813,0.440169,-0.980236,-0.29005,9.57,3,WALK
1759223387.45682,2.624943,5.70239,1.870021,0.562653,-0.994338,0.049277,9.59,3,WALK
1759223387.47624,2.833388,6.16896,2.377442,0.84074,-0.798227,0.346666,9.61,3,WALK
1759223387.49679,2.790143,8.152556,4.074632,1.163328,-0.621756,0.511455,9.63,3,WALK
1759223387.51674,0.646584,10.138696,7.356783,1.099622,-0.361329,0.474168,9.65,3,WALK
1759223387.53673,-2.860472,11.486631,8.555081,0.701127,0.153355,0.214795,9.67,3,WALK
1759223387.55671,-3.672256,12.576143,7.455245,0.173914,0.396102,-0.06969,9.69,3,WALK
1759223387.57667,-0.880617,12.562975,6.153697,-0.48152,-0.036065,-0.263402,9.71,3,WALK
1759223387.59667,2.317886,9.984569,4.897788,-0.761299,-0.821009,-0.363882,9.73,3,WALK
1759223387.61667,2.897732,6.593631,3.566313,-0.490234,-0.549318,-0.269506,9.75,3,WALK
1759223387.63665,2.781763,3.581726,1.975815,0.333622,0.378063,0.159197,9.77,3,WALK
1759223387.65665,2.499397,5.048473,-1.252616,1.420672,1.179072,0.336894,9.79,3,WALK
1759223387.67613,11.060912,19.584719,4.920384,1.4422,-0.264186,0.883239,9.81,3,WALK
1759223387.71660,0.187197,7.630171,-5.371691,-0.246536,0.893834,0.276458,9.85,3,WALK
1759223387.73662,1.976862,1.1561,-2.558354,0.009895,0.67518,0.755308,9.87,3,WALK
1759223387.75659,2.936638,0.722151,-1.117194,0.089802,0.234525,0.946915,9.89,3,WALK
1759223387.77653,4.462942,7.179463,-4.873397,0.686365,0.560528,1.045807,9.91,3,WALK
1759223387.79655,5.909339,16.676063,-6.30513,1.81038,1.382351,0.886018,9.93,3,WALK
1759223387.81653,1.295263,17.027861,-2.214487,3.104587,1.019687,0.149988,9.95,3,WALK
1759223387.83576,0.282516,10.168623,2.230648,2.731561,1.537391,0.080532,9.97,3,WALK
1759223387.85652,-0.892289,7.232285,4.201375,1.185202,2.444925,0.119971,9.99,3,WALK
1759223387.87647,-0.23942,8.292467,1.491887,0.344785,1.747751,0.225104,10.01,3,WALK
1759223387.89647,-0.79682,8.824279,-1.595735,0.450231,0.650472,0.332532,10.03,3,WALK
1759223387.91647,-2.218527,8.857499,-2.25055,0.970592,0.077046,0.203189,10.05,3,WALK
1759223387.93645,-0.596306,9.042301,-2.27524,1.354887,1.337086,0.184182,10.07,3,WALK
1759223387.95643,0.707187,9.776573,0.798766,1.320985,1.536762,0.167028,10.09,3,WALK
1759223387.97639,0.800262,9.565285,1.722927,0.972535,1.189511,0.282604,10.11,3,WALK
1759223387.99639,0.994641,9.67033,0.80924,0.769774,1.459788,0.348229,10.13,3,WALK
1759223388.01638,0.49126,9.648333,0.810437,0.679829,1.423581,0.482463,10.15,3,WALK
1759223388.03636,-0.580594,9.395895,1.049109,0.531557,1.062783,0.652732,10.17,3,WALK
1759223388.05636,-1.153407,9.797372,0.395492,0.599415,0.760845,0.736079,10.19,3,WALK
1759223388.07594,-1.487996,10.09979,0.407314,0.625321,0.586121,0.750726,10.21,3,WALK
1759223388.09633,-2.291999,9.318981,0.606032,0.425311,0.54622,0.67572,10.23,3,WALK
1759223388.11633,-2.346467,9.665242,0.333243,0.436687,0.708858,0.498226,10.25,3,WALK
1759223388.13632,-1.483806,9.496601,0.241814,0.289234,0.980482,0.338942,10.27,3,WALK
1759223388.15630,-0.463577,10.035745,-0.23523,0.244003,0.814859,0.35934,10.29,3,WALK
1759223388.17585,-0.59451,10.676793,-0.069731,0.311219,0.496274,0.396548,10.31,3,WALK
1759223388.19629,-1.102979,11.104008,1.329979,0.070509,0.363528,0.298899,10.33,3,WALK
1759223388.21628,0.142006,12.452243,3.211822,-0.322536,0.461118,-0.002455,10.35,3,WALK
1759223388.23627,2.620154,14.791827,5.205743,-1.234999,0.632292,-0.230672,10.37,3,WALK
1759223388.25532,2.125153,15.272762,5.13242,-2.442122,0.250219,-0.395123,10.39,3,WALK
1759223388.27587,0.615759,13.822624,1.848623,-3.047553,0.733812,-0.832001,10.41,3,WALK
1759223388.29623,2.166004,12.483816,-0.596605,-3.188857,1.587018,-1.169742,10.43,3,WALK
1759223388.31622,5.531204,12.335376,-3.176507,-2.453503,2.12654,-1.342107,10.45,3,WALK
1759223388.33609,6.468834,12.314576,-1.425747,-1.326548,2.169134,-1.300325,10.47,3,WALK
1759223388.35619,2.157774,10.441862,3.003526,-1.113767,2.874477,-1.298903,10.49,3,WALK
1759223388.37617,1.835156,9.023746,1.427992,-1.096705,2.832465,-0.927861,10.51,3,WALK
1759223388.39621,1.503409,8.892963,0.11163,-0.724743,1.49109,-0.652288,10.53,3,WALK
1759223388.41616,-0.352397,9.642049,1.980304,-0.960742,1.155986,-0.758106,10.55,3,WALK
1759223388.43616,-0.586729,8.025214,2.647388,-1.401441,0.938356,-0.911482,10.57,3,WALK
1759223388.45613,-1.245284,6.407183,1.012448,-1.208771,-0.435115,-1.021295,10.59,3,WALK
1759223388.47580,-0.886453,5.507861,0.105495,-0.848773,-0.229513,-1.112484,10.61,3,WALK
1759223388.49616,0.796222,5.292532,0.130933,-0.176244,-0.32203,-1.180252,10.63,3,WALK
1759223388.51608,1.849521,6.168661,-0.067038,0.377272,-0.331371,-1.071454,10.65,3,WALK
1759223388.53610,1.657536,6.155492,0.382623,0.832874,-0.251427,-0.809067,10.67,3,WALK
1759223388.55608,1.867777,5.49185,1.775001,1.160174,-0.200125,-0.475492,10.69,3,WALK
1759223388.57605,2.48144,4.300435,2.073528,1.123872,-0.620942,-0.104567,10.71,3,WALK
1759223388.59611,2.723554,3.959261,1.658434,1.198294,-0.260097,0.217431,10.73,3,WALK
1759223388.61521,2.532616,5.439477,2.70036,1.626666,0.42835,0.419159,10.75,3,WALK
1759223388.63604,1.133206,6.791901,5.241207,1.54605,1.021166,0.658827,10.77,3,WALK
1759223388.65603,-0.480935,10.12029,6.422745,0.969359,0.412175,0.900321,10.79,3,WALK
1759223388.67573,-3.729119,12.184691,1.899649,0.832934,0.584362,0.950674,10.81,3,WALK
1759223388.69600,-4.868609,10.941502,2.316839,0.469775,1.294722,0.828828,10.83,3,WALK
1759223388.71600,-2.872892,6.364985,2.27105,0.997209,0.054852,0.80256,10.85,3,WALK
1759223388.73599,2.131737,9.275437,-1.147571,1.474158,-0.40033,0.919009,10.87,3,WALK
1759223388.79596,3.573945,4.433313,6.465242,-1.190769,-0.27315,-0.07231,10.93,3,WALK
1759223388.81593,4.423138,-4.096329,-2.949208,-0.774684,-0.019909,0.090555,10.95,3,WALK
1759223388.83594,5.69012,-0.434548,-3.422212,-1.261409,0.279005,0.805877,10.97,3,WALK
1759223388.85593,7.974038,11.836035,-6.793996,0.026758,0.661281,1.86165,10.99,3,WALK
1759223388.87567,3.883545,24.513632,-6.870461,1.765131,0.599592,2.173079,11.01,3,WALK
1759223388.89591,-6.943783,15.812056,-1.353771,2.119676,-0.061932,0.835409,11.03,3,WALK
1759223388.91590,-10.482862,6.85864,5.32261,1.087133,2.815612,0.506509,11.05,3,WALK
1759223388.93589,-3.417573,5.8634,7.596802,0.402019,-0.207665,-0.299992,11.07,3,WALK
1759223388.95587,1.001076,9.225308,0.248847,0.304538,-0.283472,-0.236946,11.09,3,WALK
1759223388.97584,1.883489,10.190171,-0.67726,0.549003,0.014767,0.365552,11.11,3,WALK
1759223388.99588,-0.312743,8.296807,1.394024,0.641551,-0.175142,0.616052,11.13,3,WALK
1759223389.01584,-1.367388,7.121852,1.522114,0.55597,-0.283647,0.553173,11.15,3,WALK
1759223389.03582,-2.507328,6.083666,0.107739,0.76786,-0.330774,0.368482,11.17,3,WALK
1759223389.05581,-2.280627,4.799776,-0.884209,1.01583,-0.430804,0.456906,11.19,3,WALK
1759223389.07560,-0.767342,7.160159,-0.955286,1.381514,-0.793614,0.855694,11.21,3,WALK
1759223389.09579,-1.699883,13.901333,1.566706,1.033853,-0.872406,1.000993,11.23,3,WALK
1759223389.11579,-1.382951,15.180885,1.389834,0.542235,-0.844506,1.091379,11.25,3,WALK
1759223389.13579,-1.928829,9.673772,2.304269,0.121676,-1.233117,0.97236,11.27,3,WALK
1759223389.15579,-2.566734,7.92376,-0.773327,0.040095,-1.25746,0.685805,11.29,3,WALK
1759223389.17573,-0.931344,8.987983,-1.591994,0.117122,-1.311514,0.505821,11.31,3,WALK
1759223389.19572,1.597082,9.54643,-1.892317,0.057666,-1.106942,0.505672,11.33,3,WALK
1759223389.21574,3.804087,9.560047,-2.057816,0.004284,-0.913578,0.636976,11.35,3,WALK
1759223389.23574,4.10037,9.667786,-1.689558,0.041259,-0.874989,0.857934,11.37,3,WALK
1759223389.25572,2.352902,10.132112,0.289549,-0.194231,-0.841432,1.057281,11.39,3,WALK
1759223389.27554,-0.570867,10.184335,0.030077,-0.427675,-0.838374,0.939087,11.41,3,WALK
1759223389.29570,-1.045368,10.140192,0.293888,-0.669223,-0.762802,0.68869,11.43,3,WALK
1759223389.31568,2.503138,15.835549,0.621744,-1.198617,-0.333676,-0.114189,11.45,3,WALK
1759223389.33565,4.599411,14.96376,3.623475,-2.288288,-0.244896,-0.343685,11.47,3,WALK
1759223389.35564,2.296339,12.989292,0.564882,-2.622038,-0.006881,-0.841105,11.49,3,WALK
1759223389.37563,2.634969,12.306795,1.052551,-2.958171,0.743515,-1.332842,11.51,3,WALK
1759223389.39563,3.686921,12.179154,-0.495151,-2.614337,1.166273,-1.861363,11.53,3,WALK
1759223389.41562,5.344906,12.240206,-0.559645,-1.903152,1.328125,-1.815562,11.55,3,WALK
1759223389.43561,4.178331,10.665869,2.108992,-1.592772,1.481611,-1.536929,11.57,3,WALK
1759223389.45560,2.377293,9.248202,1.240346,-1.340384,1.237152,-1.386402,11.59,3,WALK
1759223389.47548,1.782034,8.502858,0.173879,-0.961351,0.778288,-1.142678,11.61,3,WALK
1759223389.49558,0.024092,8.776694,1.729063,-0.807715,0.788809,-0.970645,11.63,3,WALK
1759223389.51559,-3.303549,8.674492,3.034651,-0.870319,0.197791,-1.187031,11.65,3,WALK
1759223389.53556,-4.862324,8.575881,1.84159,-0.911222,-1.14892,-1.390067,11.67,3,WALK
1759223389.55555,-6.340893,8.34095,-0.488118,-0.667298,-1.770257,-1.644675,11.69,3,WALK
1759223389.57552,-4.189404,8.600421,-0.798616,-0.244195,-1.751945,-1.829005,11.71,3,WALK
1759223389.59560,-1.625364,8.298004,-0.299874,0.1614,-2.174052,-1.994194,11.73,3,WALK
1759223389.61553,-0.137218,7.639299,-0.388908,0.31087,-2.439577,-2.015296,11.75,3,WALK
1759223389.63551,1.500416,6.11105,-0.171784,0.421053,-2.64511,-1.745836,11.77,3,WALK
1759223389.65552,2.767697,4.222025,0.319626,0.537948,-2.896563,-1.405363,11.79,3,WALK
1759223389.67547,4.193145,3.771317,1.121534,0.510339,-3.240456,-0.88217,11.81,3,WALK
1759223389.69481,4.413711,4.548834,1.218948,0.686011,-2.711742,-0.441568,11.83,3,WALK
1759223389.71513,3.512443,5.289989,2.756025,0.867439,-2.465977,-0.000947,11.85,3,WALK
1759223389.73475,3.053206,7.12679,4.89315,0.413211,-2.101779,0.492246,11.87,3,WALK
1759223389.75547,1.823484,9.188796,8.186075,-0.148371,-1.835103,0.696224,11.89,3,WALK
1759223389.77542,-2.710087,9.979332,7.678205,-0.31788,-1.087337,0.566428,11.91,3,WALK
1759223389.79544,-3.718046,12.198308,3.164237,0.008607,-0.478359,0.473739,11.93,3,WALK
1759223389.81543,-3.608511,11.51611,1.967435,0.370707,-0.924584,0.155629,11.95,3,WALK
1759223389.83541,-1.277606,9.396344,3.112313,0.377287,-0.650905,-0.065267,11.97,3,WALK
1759223389.85542,-1.473033,8.588899,1.759888,0.752769,0.168299,-0.490465,11.99,3,WALK
1759223389.87535,8.535778,20.946122,0.386065,0.640292,0.261553,0.008416,12.01,3,WALK
1759223389.91537,7.594857,5.852626,-5.591957,0.184385,-0.34354,-0.030408,12.05,3,WALK
1759223389.93538,6.530035,-3.583072,-5.150077,0.312874,0.525017,0.649218,12.07,3,WALK
1759223389.95530,6.313959,-2.380585,-3.890877,0.295934,0.439749,0.973066,12.09,3,WALK
1759223389.97532,9.779566,9.583091,-3.931129,1.147766,0.852563,1.762888,12.11,3,WALK
1759223389.99533,8.551639,20.997597,-3.582923,1.971637,1.115751,2.534306,12.13,3,WALK
1759223390.01532,-1.351976,18.912098,1.287033,1.921214,-0.873227,1.563541,12.15,3,WALK
1759223390.03531,-7.365761,10.428394,1.656788,1.715623,-0.01767,0.300971,12.17,3,WALK
1759223390.05530,-5.366902,6.732495,-0.126444,1.089345,0.907975,-0.072216,12.19,3,WALK
1759223390.07527,-2.908656,6.026206,-1.465401,1.233558,0.980645,-0.021612,12.21,3,WALK
1759223390.09527,-1.06542,8.076241,-0.412701,1.475502,0.567769,-0.011713,12.23,3,WALK
1759223390.11528,0.229095,10.744429,1.82079,1.625843,-0.375642,0.346612,12.25,3,WALK
1759223390.13487,-1.008258,10.235661,2.440739,1.053858,-0.337291,0.402573,12.27,3,WALK
1759223390.15527,-1.588553,9.168595,0.893187,0.795566,-0.323529,0.203731,12.29,3,WALK
1759223390.17522,-0.748936,8.565107,-0.650475,1.085901,-0.090138,0.006901,12.31,3,WALK
1759223390.19525,0.282516,8.405892,0.671125,1.221177,-0.082836,0.069939,12.33,3,WALK
1759223390.21522,0.586879,8.548048,1.779041,1.005451,-0.361368,0.331274,12.35,3,WALK
1759223390.23519,0.941669,9.138368,1.146374,0.773163,-0.519469,0.661617,12.37,3,WALK
1759223390.25521,-0.298976,8.989928,1.156549,0.724747,-0.552585,0.622936,12.39,3,WALK
1759223390.27517,-0.924162,9.178471,0.198868,0.607647,-0.176812,0.626247,12.41,3,WALK
1759223390.29519,-1.014543,9.794679,0.162656,0.484287,0.007098,0.550314,12.43,3,WALK
1759223390.31495,-0.386813,11.56998,0.435445,0.595222,0.248869,0.313955,12.45,3,WALK
1759223390.33517,0.542885,10.570101,1.453879,0.290699,0.350646,0.236977,12.47,3,WALK
1759223390.35518,0.446668,9.784953,1.775301,-0.096454,0.201636,0.41072,12.49,3,WALK
1759223390.37512,-1.105223,10.003274,1.773505,-0.471606,-0.140625,0.672766,12.51,3,WALK
1759223390.39440,-3.409343,11.002554,1.353622,-0.801411,-0.582329,0.614857,12.53,3,WALK
1759223390.41513,-4.470274,13.81604,1.525855,-1.121595,-0.665715,0.095879,12.55,3,WALK
1759223390.43512,-2.392406,17.936611,2.226757,-2.071599,-0.35286,-0.573706,12.57,3,WALK
1759223390.45467,1.403451,16.966061,3.21227,-3.151081,0.199748,-1.102969,12.59,3,WALK
1759223390.47508,5.610063,12.307693,0.427215,-3.31615,0.925549,-1.29165,12.61,3,WALK
1759223390.49511,8.132804,11.980286,-3.56347,-2.421067,1.287013,-1.140991,12.63,3,WALK
1759223390.51508,9.984868,14.752472,-0.990451,-1.614587,0.703043,-0.71398,12.65,3,WALK
1759223390.53507,4.490026,13.449428,2.748544,-1.802256,0.793218,-0.60263,12.67,3,WALK
1759223390.55516,0.728286,11.096227,1.450737,-1.917911,0.625924,-0.264431,12.69,3,WALK
1759223390.57432,-0.746542,10.510845,-1.099088,-1.57347,0.651632,-0.205082,12.71,3,WALK
1759223390.59508,-1.384597,10.117298,-0.881066,-1.35214,0.883816,-0.470819,12.73,3,WALK
1759223390.61486,-0.795623,8.974216,1.136049,-1.4895,0.242598,-0.950672,12.75,3,WALK
1759223390.63505,1.518522,6.782923,1.470489,-1.519121,-0.820397,-0.90262,12.77,3,WALK
1759223390.65504,0.151583,3.7161,0.666636,-1.294839,-1.676668,-0.854147,12.79,3,WALK
1759223390.67498,0.425569,3.727024,-1.182736,-0.795874,-1.183446,-0.911889,12.81,3,WALK
1759223390.69433,1.741333,3.841497,-1.203236,-0.361324,-0.97291,-0.90196,12.83,3,WALK
1759223390.71500,2.487426,3.722086,-0.36332,-0.141324,-0.996489,-0.746115,12.85,3,WALK
1759223390.73499,2.734926,4.121618,0.611419,0.110015,-1.047274,-0.509871,12.87,3,WALK
1759223390.75498,2.330905,4.763115,1.063175,0.411382,-1.050212,-0.338587,12.89,3,WALK
1759223390.77494,1.532439,4.815039,0.787543,0.840662,-1.056369,-0.216287,12.91,3,WALK
1759223390.79424,0.694767,6.175394,1.045069,1.434779,-0.963663,-0.024971,12.93,3,WALK
1759223390.81448,-0.316184,8.91047,3.243545,1.78012,-0.737605,0.149821,12.95,3,WALK
1759223390.83494,-0.676661,11.865813,7.192481,1.4202,-0.473925,0.248562,12.97,3,WALK
1759223390.85492,-2.607884,12.693459,9.679757,0.705287,-0.365222,-0.084364,12.99,3,WALK
1759223390.87489,-3.244293,12.527211,7.156867,0.389121,-0.180917,-0.387701,13.01,3,WALK
1759223390.89490,-0.940622,10.942699,4.713884,0.350919,-0.260374,-0.445685,13.03,3,WALK
1759223390.91490,1.115698,9.239673,5.10354,0.361917,-0.239177,-0.404348,13.05,3,WALK
1759223390.93490,1.133206,6.114941,4.910059,0.453468,-0.127119,-0.076406,13.07,3,WALK
1759223390.95490,-1.164031,2.755427,-1.260996,0.861815,0.421488,0.061552,13.09,3,WALK
1759223390.97484,7.341969,8.59264,-3.536086,1.20634,-0.233083,0.316134,13.11,3,WALK
1759223391.01489,-1.349282,20.089148,0.811784,0.348207,1.421287,-0.010859,13.15,3,WALK
1759223391.03483,1.630152,1.980903,1.975216,-0.234547,0.039152,0.448335,13.17,3,WALK
1759223391.05482,4.293103,-0.618901,-2.325518,-0.356732,-0.057914,0.805908,13.19,3,WALK
1759223391.07479,4.118775,2.992902,-4.171298,-0.200053,0.630296,1.090674,13.21,3,WALK
1759223391.09480,5.472098,12.956821,-5.426757,0.796558,0.845542,1.131123,13.23,3,WALK
1759223391.11433,3.818003,18.325519,-4.80636,2.141286,0.543483,0.636841,13.25,3,WALK
1759223391.13439,0.139462,12.309339,-1.030405,2.273823,-0.019574,0.239228,13.27,3,WALK
1759223391.15478,-0.818218,8.697985,-0.061052,2.067787,-0.023113,0.426464,13.29,3,WALK
1759223391.17475,-2.397194,6.339098,0.487819,1.333212,0.9099,0.383593,13.31,3,WALK
1759223391.19476,-2.207753,7.723246,0.323217,0.849789,1.074273,0.267944,13.33,3,WALK
1759223391.21475,-0.662895,11.048343,-0.775572,0.879236,0.388277,0.114554,13.35,3,WALK
1759223391.23466,-0.055067,10.667814,-1.819593,0.964127,0.673951,0.076219,13.37,3,WALK
1759223391.25477,-0.416591,8.248773,-0.275333,1.034344,0.530512,-0.123618,13.39,3,WALK
1759223391.27470,-0.482731,6.966977,-0.405817,1.105189,0.736514,-0.368943,13.41,3,WALK
1759223391.29405,0.770634,7.245153,-0.170587,1.08148,0.9244,-0.231743,13.43,3,WALK
1759223391.31468,1.305289,8.330325,0.43365,0.842191,0.623282,0.092394,13.45,3,WALK
1759223391.33469,1.72203,8.807071,-0.673369,0.909504,0.361426,0.333982,13.47,3,WALK
1759223391.35469,2.243966,9.277232,-0.447267,1.082254,0.647981,0.437432,13.49,3,WALK
1759223391.37425,2.835782,10.214263,1.042076,1.149449,0.911127,0.680038,13.51,3,WALK
1759223391.39466,0.771831,9.906608,2.280926,0.700244,0.942186,1.047323,13.53,3,WALK
1759223391.41441,-3.077597,9.958831,1.573439,0.427547,0.516985,1.031492,13.55,3,WALK
1759223391.43464,-4.5834,11.753136,0.489614,0.49684,0.107472,0.689569,13.57,3,WALK
1759223391.45463,-3.9847,11.458948,1.153556,0.438937,0.149287,0.245565,13.59,3,WALK
1759223391.47460,-1.854758,11.174787,3.334524,0.001365,0.298934,0.09349,13.61,3,WALK
1759223391.49461,-1.268777,12.986599,4.497209,-1.065089,-0.580225,0.513668,13.63,3,WALK
1759223391.51461,-5.091719,17.529746,1.998709,-1.747109,-1.487937,-0.066088,13.65,3,WALK
1759223391.53460,-2.309656,18.499697,0.952144,-2.608159,-0.530528,-0.870485,13.67,3,WALK
1759223391.55411,2.739715,13.604602,3.571999,-3.462534,-0.082784,-0.818238,13.69,3,WALK
1759223391.57455,5.011812,13.23784,-1.579575,-3.324502,0.390615,-0.953387,13.71,3,WALK
1759223391.59457,5.910685,15.896003,-4.376152,-2.591853,0.452366,-1.017113,13.73,3,WALK
1759223391.61456,6.681319,14.978874,-2.242918,-2.035432,1.497886,-0.990017,13.75,3,WALK
1759223391.63455,3.770718,10.96694,3.133262,-2.022838,1.847982,-1.061728,13.77,3,WALK
1759223391.65384,4.109946,10.026318,0.883909,-2.047136,1.311629,-0.594986,13.79,3,WALK
1759223391.67450,3.110667,10.574291,-0.199018,-1.925441,0.46275,-0.291527,13.81,3,WALK
1759223391.69452,-0.883311,10.564564,0.230741,-1.957504,0.354064,-0.477017,13.83,3,WALK
1759223391.71451,-2.708141,9.555408,1.608754,-2.254604,0.001996,-0.681623,13.85,3,WALK
1759223391.73450,-1.657087,7.302165,0.291793,-2.147955,-1.440706,-0.624509,13.87,3,WALK
1759223391.75449,-1.120636,4.639664,-1.588852,-1.621458,-1.826113,-0.801183,13.89,3,WALK
1759223391.77446,1.635689,3.551798,-1.004966,-1.239748,-1.879899,-0.938395,13.91,3,WALK
1759223391.79447,3.492242,3.733309,-1.263989,-0.741561,-1.377751,-0.971245,13.93,3,WALK
1759223391.81446,3.676746,4.11279,-0.65257,-0.239356,-0.801249,-0.854507,13.95,3,WALK
1759223391.83446,3.544616,4.534319,-0.03711,0.086657,-0.609901,-0.627319,13.97,3,WALK
1759223391.85445,3.779098,4.601805,0.275483,0.426921,-0.565044,-0.346274,13.99,3,WALK
1759223391.87400,3.499275,4.355651,0.87553,0.865866,-0.471778,-0.063788,14.01,3,WALK
1759223391.89378,2.443133,5.229385,2.322974,1.41855,-0.46142,0.24428,14.03,3,WALK
1759223391.91441,1.749862,7.575853,5.4917,1.722442,-0.735234,0.522785,14.05,3,WALK
1759223391.93349,-0.825251,10.582671,9.248352,1.228035,-0.517542,0.590978,14.07,3,WALK
1759223391.95442,-4.630386,13.839832,9.432706,0.503778,0.013323,0.242258,14.09,3,WALK
1759223391.97436,-3.45588,12.968493,7.053019,0.320589,-0.05212,-0.048219,14.11,3,WALK
1759223391.99438,-1.035043,9.563788,4.090045,0.334875,-0.198943,-0.248382,14.13,3,WALK
1759223392.01436,0.618153,7.474997,3.446154,0.431798,-0.037778,-0.275006,14.15,3,WALK
1759223392.03439,3.58816,9.135226,-0.089184,1.32317,0.047648,-0.113873,14.17,3,WALK
1759223392.05435,9.661502,17.301249,1.576432,0.963732,-0.346255,0.472043,14.19,3,WALK
1759223392.07431,4.984578,26.391435,9.245659,-0.026639,1.378516,0.065062,14.21,3,WALK
1759223392.09430,1.698237,5.432294,-3.97632,0.0503,0.247916,0.799275,14.23,3,WALK
1759223392.11439,0.916979,1.4247,-4.09618,0.103512,-0.209716,1.036202,14.25,3,WALK
1759223392.13433,1.872864,2.423531,-3.514987,0.123635,-0.726564,1.291514,14.27,3,WALK
1759223392.15430,0.789638,9.41834,-5.081693,1.059825,-1.461493,0.904952,14.29,3,WALK
1759223392.17385,0.275632,16.830938,-6.083666,2.050024,-0.832078,0.202939,14.31,3,WALK
1759223392.19427,-1.837999,13.96448,-3.189825,2.75278,1.03377,-0.351939,14.33,3,WALK
1759223392.21426,-0.12794,8.677036,3.454534,2.518103,1.599036,-0.649815,14.35,3,WALK
1759223392.23393,3.556736,6.820781,5.07885,1.18514,1.508599,-0.57673,14.37,3,WALK
1759223392.25429,4.967968,7.285256,0.572214,0.654584,1.461569,-0.09104,14.39,3,WALK
1759223392.27423,3.45184,7.571064,-0.461782,0.746905,0.76469,0.446984,14.41,3,WALK
1759223392.29424,-0.253187,8.562114,-1.229722,0.914273,0.517946,0.563346,14.43,3,WALK
1759223392.31424,-1.238999,10.809521,-1.06542,1.248319,0.306258,0.596414,14.45,3,WALK
1759223392.33426,-3.033454,10.259004,1.130362,1.072784,0.025078,0.367971,14.47,3,WALK
1759223392.35421,-2.702904,9.097817,0.716914,0.762446,0.252973,0.169998,14.49,3,WALK
1759223392.37319,-0.691775,8.83206,0.344316,0.708235,0.350065,0.147563,14.51,3,WALK
1759223392.39420,1.524658,9.367464,0.085443,0.776832,0.292754,0.327985,14.53,3,WALK
1759223392.41419,1.546804,9.787796,0.469862,0.807198,-0.012721,0.508292,14.55,3,WALK
1759223392.43418,1.054795,9.705196,-0.138864,0.993256,0.031071,0.646448,14.57,3,WALK
1759223392.45417,0.255132,10.029909,1.16852,1.053285,0.10624,0.752141,14.59,3,WALK
1759223392.47316,-1.142932,10.672154,2.352453,0.799935,0.107193,0.788231,14.61,3,WALK
1759223392.49416,-2.000655,10.786926,3.157802,0.314615,-0.150083,0.730774,14.63,3,WALK
1759223392.51416,-1.778593,10.312425,2.999037,-0.08378,-0.350077,0.516497,14.65,3,WALK
1759223392.53414,-0.696413,10.414029,3.094057,-0.388713,-0.006263,0.335132,14.67,3,WALK
1759223392.55413,-0.182259,11.361085,3.817106,-1.028566,-0.031686,0.356446,14.69,3,WALK
1759223392.57314,-2.499247,14.459033,3.631555,-1.856125,-0.988775,0.278295,14.71,3,WALK
1759223392.59411,-5.370344,17.607109,2.780865,-2.759359,-1.38899,-0.609352,14.73,3,WALK
1759223392.61412,-2.862118,15.645809,0.598102,-3.492348,-0.480598,-1.566576,14.75,3,WALK
1759223392.63411,3.888333,11.895292,-2.374001,-3.189221,0.841085,-1.924913,14.77,3,WALK
1759223392.65413,9.620052,13.946674,-3.465158,-2.234063,1.855657,-1.626351,14.79,3,WALK
1759223392.67313,11.279533,16.383821,0.53256,-1.299476,1.23279,-1.173238,14.81,3,WALK
1759223392.69408,6.083068,12.095357,3.845686,-1.745193,1.209938,-1.291168,14.83,3,WALK
1759223392.71407,3.156905,8.857349,0.629076,-1.761061,1.036121,-0.625193,14.85,3,WALK
1759223392.73331,-0.378134,8.408137,0.132579,-1.621656,-0.16903,-0.352857,14.87,3,WALK
1759223392.75405,-3.2,10.220697,0.306458,-1.637482,-0.236555,-0.640042,14.89,3,WALK
1759223392.77310,-1.204583,10.413131,1.548749,-1.896941,-0.108648,-0.804429,14.91,3,WALK
1759223392.79403,0.542137,7.737461,0.724994,-1.803927,-1.641442,-0.86911,14.93,3,WALK
1759223392.81402,1.561618,4.787206,-0.949151,-1.425186,-2.021982,-0.778965,14.95,3,WALK
1759223392.83402,2.181417,3.193266,-0.342371,-1.161955,-1.937107,-0.740931,14.97,3,WALK
1759223392.85401,2.392406,3.605967,-0.958279,-0.695455,-1.394197,-0.813816,14.99,3,WALK
1759223392.87308,2.398242,4.848707,-0.715717,-0.076178,-0.900802,-0.795537,15.01,3,WALK
1759223392.89400,2.44433,6.079177,0.483629,0.351479,-0.687637,-0.600946,15.03,3,WALK
1759223392.91399,2.435651,6.267721,0.92072,0.520225,-0.636523,-0.307028,15.05,3,WALK
1759223392.93398,2.16765,5.752668,0.956484,0.746943,-0.619067,-0.043988,15.07,3,WALK
1759223392.95401,2.07263,5.52492,1.428291,1.129685,-0.65578,0.226792,15.09,3,WALK
1759223392.97306,1.876156,6.118831,2.814534,1.531796,-0.680298,0.466206,15.11,3,WALK
1759223392.99395,1.282394,8.290522,5.643882,1.816747,-0.647332,0.645155,15.13,3,WALK
1759223393.01387,-0.764947,11.083657,10.043975,1.336776,-0.303069,0.601797,15.15,3,WALK
1759223393.03394,-3.894768,14.615853,11.311555,0.48821,0.332133,0.065154,15.17,3,WALK
1759223393.05393,-1.933019,14.579192,8.421305,0.126787,0.022696,-0.402559,15.19,3,WALK
1759223393.07304,1.518073,10.408941,5.159804,-0.054525,-0.389438,-0.45179,15.21,3,WALK
1759223393.09391,2.55192,7.101501,3.788525,0.095156,-0.35351,-0.17878,15.23,3,WALK
1759223393.11391,5.271134,12.08593,-2.032528,0.849105,0.690973,0.095277,15.25,3,WALK
1759223393.13391,10.958261,19.763237,1.691055,0.851086,0.555962,0.385476,15.27,3,WALK
1759223393.15391,-0.290746,13.488184,2.399289,0.530552,1.635608,-0.055157,15.29,3,WALK
1759223393.17302,1.564162,3.083582,-4.53372,0.517521,0.758486,0.702746,15.31,3,WALK
1759223393.19387,2.946364,3.145083,-3.303998,0.138806,0.250271,1.400111,15.33,3,WALK
1759223393.21383,2.974496,6.277746,-3.245191,0.263436,0.007865,1.637541,15.35,3,WALK
1759223393.23385,3.895815,13.851354,-3.629759,0.670048,0.075446,1.304316,15.37,3,WALK
1759223393.25387,1.512836,15.730055,-5.796811,1.950046,0.62574,0.356903,15.39,3,WALK
1759223393.27299,-0.335338,10.113557,-2.011279,2.873247,0.729246,-0.215525,15.41,3,WALK
1759223393.29383,-0.077213,7.616704,0.758663,2.659477,1.508285,-0.200217,15.43,3,WALK
1759223393.31382,0.286855,7.30037,2.318335,1.647002,1.996961,-0.160258,15.45,3,WALK
1759223393.33383,1.432481,8.780286,1.848324,0.872468,1.400173,0.170338,15.47,3,WALK
1759223393.35383,0.596605,10.352079,0.293439,0.719501,0.361713,0.484603,15.49,3,WALK
1759223393.37297,-1.979855,9.834483,-1.755997,0.908746,0.391697,0.286893,15.51,3,WALK
1759223393.39382,-1.6309,9.329605,-1.329979,1.120618,0.399723,0.238069,15.53,3,WALK
1759223393.41378,-1.199046,9.171738,-0.428113,1.292125,0.287482,0.129072,15.55,3,WALK
1759223393.43378,-0.609773,9.037213,0.402675,1.230795,0.529263,-0.037887,15.57,3,WALK
1759223393.45384,1.08607,9.446173,1.400758,1.000716,0.613768,0.048266,15.59,3,WALK
1759223393.47295,1.115399,9.014768,1.166425,0.802801,0.264307,0.382257,15.61,3,WALK
1759223393.49377,-0.164901,8.800487,0.47899,0.618216,0.116349,0.665001,15.63,3,WALK
1759223393.51374,-0.968305,9.940276,-0.178967,0.782276,0.094709,0.604738,15.65,3,WALK
1759223393.53373,-0.308253,11.060015,-0.05776,0.963001,0.232573,0.509814,15.67,3,WALK
1759223393.55374,0.669329,10.983849,1.212962,0.789497,0.360839,0.628598,15.69,3,WALK
1759223393.57293,-0.096367,10.311527,2.185308,0.427662,0.29945,0.660696,15.71,3,WALK
1759223393.59370,-0.837671,10.49199,1.786673,0.170139,0.266351,0.549141,15.73,3,WALK
1759223393.61368,-0.885705,11.219079,1.865682,-0.006616,0.231229,0.447449,15.75,3,WALK
1759223393.63269,-1.06542,11.988067,3.310133,-0.329358,0.075019,0.404836,15.77,3,WALK
1759223393.65370,-2.453608,12.493992,4.549432,-1.167281,-0.199608,0.544459,15.79,3,WALK
1759223393.67291,-5.424812,14.729129,3.952228,-2.018975,-0.925905,0.046894,15.81,3,WALK
1759223393.69366,-4.865616,16.389358,2.979434,-3.028188,-0.895005,-0.901676,15.83,3,WALK
1759223393.71365,0.65227,14.723442,0.401627,-3.710272,-0.185195,-1.370523,15.85,3,WALK
1759223393.73267,4.811747,12.686126,-3.204489,-3.486694,0.81715,-1.469063,15.87,3,WALK
1759223393.75365,8.503306,14.40232,-3.123835,-2.576566,1.610343,-1.441496,15.89,3,WALK
1759223393.77288,9.157821,15.285631,0.352845,-1.719289,1.524859,-1.37287,15.91,3,WALK
1759223393.79362,5.448904,11.369615,4.145859,-2.053107,0.941662,-1.015924,15.93,3,WALK
1759223393.81362,2.052579,9.05921,0.316783,-2.074026,0.568865,-0.430694,15.95,3,WALK
1759223393.83360,-1.331475,9.671827,-1.806126,-1.538748,0.291047,-0.462268,15.97,3,WALK
1759223393.85359,-2.847005,11.220875,0.137068,-1.590579,0.543917,-0.737436,15.99,3,WALK
1759223393.87287,-2.392855,10.230573,1.404947,-1.686962,-0.621112,-1.107345,16.01,3,WALK
1759223393.89334,-1.482609,8.143278,-0.727538,-1.403142,-1.723984,-1.475659,16.03,3,WALK
1759223393.91357,2.095076,5.165191,-0.801459,-1.274855,-2.214246,-1.326903,16.05,3,WALK
1759223393.93356,2.911798,2.859275,-1.921197,-0.909232,-2.010777,-1.254298,16.07,3,WALK
1759223393.95355,3.532944,2.635268,-2.004246,-0.251161,-1.406603,-1.150198,16.09,3,WALK
1759223393.97284,3.621829,3.429544,-0.679055,0.297638,-1.261243,-0.830761,16.11,3,WALK
1759223393.99354,2.914492,4.431218,-0.456245,0.651725,-1.313705,-0.450015,16.13,3,WALK
1759223394.01298,3.04318,5.191078,-0.584335,0.898055,-1.105122,-0.042203,16.15,3,WALK
1759223394.03352,3.679888,4.999093,1.249624,0.933803,-0.904971,0.266039,16.17,3,WALK
1759223394.05351,3.281852,5.586121,2.705897,1.236086,-1.074639,0.439687,16.19,3,WALK
1759223394.07283,1.409287,8.868422,5.861754,1.513894,-1.305796,0.535582,16.21,3,WALK
1759223394.09262,-1.818097,14.843901,9.276035,0.918801,-0.301272,0.544583,16.23,3,WALK
1759223394.11349,-3.39004,17.303045,12.814515,-0.22995,0.081786,0.046283,16.25,3,WALK
1759223394.13349,0.405368,11.319785,6.093991,-0.205419,0.398779,-0.16243,16.27,3,WALK
1759223394.15348,2.944718,7.140407,3.402011,-0.056791,0.489497,-0.135228,16.29,3,WALK
1759223394.17280,9.006089,15.501558,3.059341,0.059625,0.636827,0.350155,16.31,3,WALK
1759223394.19345,5.278018,25.925313,2.426224,-0.094224,1.427805,-0.254643,16.33,3,WALK
1759223394.21344,2.777723,3.256563,-4.293252,1.165694,1.293377,-0.318596,16.35,3,WALK
1759223394.23263,3.101688,0.044442,0.216226,1.221555,0.718805,-0.100548,16.37,3,WALK
1759223394.25342,6.636727,2.03163,-3.696348,0.656318,0.95632,1.422562,16.39,3,WALK
1759223394.27279,7.334038,5.653758,-3.780594,0.714918,1.257281,1.908217,16.41,3,WALK
1759223394.29341,7.351546,17.68896,-1.786823,1.45777,0.706207,2.378943,16.43,3,WALK
1759223394.31341,0.253935,13.191752,-0.657358,1.95007,-0.625841,1.20807,16.45,3,WALK
1759223394.33259,-1.981352,8.970325,-0.817321,2.093993,-0.382217,0.847541,16.47,3,WALK
1759223394.35339,-3.589956,7.231387,0.913837,1.114558,2.10076,0.748774,16.49,3,WALK
1759223394.37277,-3.883096,9.512313,-0.370952,1.094345,1.643859,0.50574,16.51,3,WALK
1759223394.39302,-3.396325,12.939762,-2.459294,1.676747,0.772045,-0.010652,16.53,3,WALK
1759223394.41326,-3.764732,10.594342,1.057489,1.709494,1.253494,-0.199859,16.55,3,WALK
1759223394.43329,-0.72275,8.422203,4.993108,1.188129,1.493253,-0.439365,16.57,3,WALK
1759223394.45336,2.939182,8.192659,3.388394,0.679384,1.203611,-0.086705,16.59,3,WALK
1759223394.47276,3.264045,8.624513,1.09026,0.524393,1.323391,0.365811,16.61,3,WALK
1759223394.49338,0.695067,9.006388,1.029656,0.44354,1.33799,0.541142,16.63,3,WALK
1759223394.51334,-0.888398,9.635165,-0.371401,0.522132,1.415188,0.532481,16.65,3,WALK
1759223394.53256,-0.598251,9.877279,-0.616208,0.618781,1.388597,0.56414,16.67,3,WALK
1759223394.55335,0.290896,9.831789,1.781286,0.637374,1.371792,0.693319,16.69,3,WALK
1759223394.57274,0.307805,9.709386,2.302025,0.320077,1.28619,0.757028,16.71,3,WALK
1759223394.59333,-0.492757,11.02081,0.494702,0.043045,1.314947,0.85413,16.73,3,WALK
1759223394.61331,-2.773234,12.460174,0.930147,-0.105271,1.66964,0.81939,16.75,3,WALK
1759223394.63332,-4.501398,12.659042,1.077391,-0.536824,1.11157,0.749658,16.77,3,WALK
1759223394.65330,-3.608361,12.262502,1.069161,-0.782889,1.019142,0.38649,16.79,3,WALK
1759223394.67272,0.869843,13.955652,4.1912,-1.263906,0.860962,-0.421476,16.81,3,WALK
1759223394.69330,5.891981,16.635961,7.086388,-2.224132,1.163088,-0.862031,16.83,3,WALK
1759223394.71328,1.590348,10.308086,3.276465,-2.427114,2.436402,-1.190722,16.85,3,WALK
1759223394.73324,2.466028,7.669675,2.51047,-1.839566,2.598639,-1.245703,16.87,3,WALK
1759223394.75329,3.094057,9.584139,2.144606,-1.509457,1.515574,-0.964139,16.89,3,WALK
1759223394.77271,1.886481,14.43943,4.334403,-1.430433,1.140256,-0.776255,16.91,3,WALK
1759223394.79326,-0.029479,13.771897,4.557213,-1.276153,0.6883,-0.960969,16.93,3,WALK
1759223394.81324,2.88217,9.374048,1.69285,-1.298478,0.98469,-1.084551,16.95,3,WALK
1759223394.83325,4.069095,5.501726,0.97444,-0.960068,1.004379,-1.004816,16.97,3,WALK
1759223394.85324,2.895338,4.522198,-0.0208,-0.410197,1.295897,-0.934527,16.99,3,WALK
1759223394.87270,-0.238073,4.254646,2.719364,-0.311676,0.796733,-1.174798,17.01,3,WALK
1759223394.89323,-2.486378,4.786308,2.994697,-0.25866,0.254825,-1.342037,17.03,3,WALK
1759223394.91321,-3.603124,5.253178,2.350956,0.035385,-0.177226,-1.423657,17.05,3,WALK
1759223394.93320,-3.644573,6.271312,2.244115,0.290478,-0.756223,-1.58716,17.07,3,WALK
1759223394.95325,-1.371279,7.148188,1.334468,0.395627,-1.494966,-1.31978,17.09,3,WALK
1759223394.97268,0.884658,5.84275,0.313341,0.497172,-1.73825,-0.902896,17.11,3,WALK
1759223394.99316,1.99422,3.795109,0.133327,0.96429,-1.436167,-0.57151,17.13,3,WALK
1759223395.01315,3.002778,3.974824,1.760337,1.419978,-1.389696,-0.267358,17.15,3,WALK
1759223395.03318,3.956718,5.819855,2.155829,1.836128,-1.249912,0.128505,17.17,3,WALK
1759223395.05316,4.421791,7.93633,2.767248,1.941614,-0.785886,0.614055,17.19,3,WALK
1759223395.07267,3.708469,8.839393,3.989638,1.686179,-0.481189,0.812617,17.21,3,WALK
1759223395.09313,2.1057,9.916334,4.320337,1.668426,-0.15746,0.775531,17.23,3,WALK
1759223395.11314,0.610372,12.516138,4.403984,1.440161,0.838565,0.813251,17.25,3,WALK
1759223395.13313,-1.507449,12.638691,5.315427,0.457552,1.467503,0.66021,17.27,3,WALK
1759223395.15266,5.222203,17.122582,2.207155,0.174187,0.455891,0.581711,17.29,3,WALK
1759223395.19311,1.875109,18.924368,-3.531896,0.043782,2.957566,-0.986104,17.33,3,WALK
1759223395.21311,3.976769,-0.415693,-0.385915,-0.057086,1.346623,-0.440148,17.35,3,WALK
1759223395.23310,3.173963,-6.820632,-1.146972,-0.122314,1.385244,-0.649522,17.37,3,WALK
1759223395.25315,5.202002,-0.674417,-1.05719,-0.73159,1.89518,-0.176798,17.39,3,WALK
1759223395.27263,10.501118,12.878261,-3.608212,0.180339,2.251395,1.736805,17.41,3,WALK
1759223395.29311,8.566005,24.343494,-2.202666,0.941541,0.394839,3.156363,17.43,3,WALK
1759223395.31306,-3.349189,15.377059,0.126294,1.27894,-2.437205,2.183033,17.45,3,WALK
1759223395.33275,-7.871237,11.330859,-2.207753,2.200332,-1.295636,1.650175,17.47,3,WALK
1759223395.35309,-11.450718,6.243928,5.686678,0.406432,1.382169,0.114425,17.49,3,WALK
1759223395.37262,-3.125181,8.955811,3.150769,0.532399,-0.264835,-0.38179,17.51,3,WALK
1759223395.39290,0.625186,9.973496,1.269825,0.400637,0.365017,-0.032401,17.53,3,WALK
1759223395.41300,0.617405,9.683199,2.629881,0.369874,0.073589,0.293517,17.55,3,WALK
1759223395.43302,0.407463,8.607754,1.708562,0.228035,0.1884,0.498154,17.57,3,WALK
1759223395.45288,-0.266804,7.824401,0.867,0.305868,0.212572,0.577078,17.59,3,WALK
1759223395.47261,0.655413,8.079982,1.261295,0.30141,-0.06965,0.865695,17.61,3,WALK
1759223395.49301,0.900818,9.752332,0.987459,0.244899,-0.044512,1.106256,17.63,3,WALK
1759223395.51300,-1.101632,10.010008,0.005387,0.183327,0.308495,1.149542,17.65,3,WALK
1759223395.53299,-3.179649,9.729736,-1.051503,0.168261,0.218174,0.958045,17.67,3,WALK
1759223395.55298,-3.27437,10.522516,-0.757765,0.146931,-0.0885,0.846183,17.69,3,WALK
1759223395.57259,-3.346645,11.006295,0.547823,-0.097896,-0.423252,0.847178,17.71,3,WALK
1759223395.59297,-3.374777,10.958111,-0.141258,-0.351162,-0.774851,0.772225,17.73,3,WALK
1759223395.61301,-1.892916,11.277887,-0.387861,-0.437756,-0.730132,0.564905,17.75,3,WALK
1759223395.63296,1.543811,11.191396,0.782605,-0.793254,-0.745039,0.489796,17.77,3,WALK
1759223395.65295,6.061969,11.544242,1.192163,-0.998754,-0.543674,0.377003,17.79,3,WALK
1759223395.67258,4.993856,14.455441,4.333355,-1.620962,0.481912,-0.121877,17.81,3,WALK
1759223395.69293,1.427243,12.618939,6.164471,-2.418781,1.603084,-0.45384,17.83,3,WALK
1759223395.71293,-1.024569,11.230003,4.86831,-2.873561,1.646394,-0.980479,17.85,3,WALK
1759223395.73296,-1.830966,11.247959,2.151041,-2.542977,1.744481,-1.793754,17.87,3,WALK
1759223395.75265,0.981323,10.803386,2.403629,-1.772489,1.357736,-2.140696,17.89,3,WALK
1759223395.77256,0.427515,8.579023,1.795502,-1.24132,-0.213123,-1.814726,17.91,3,WALK
1759223395.79290,-3.022829,6.743568,1.956212,-1.081645,-1.286587,-1.485272,17.93,3,WALK
1759223395.81290,-4.052037,8.408586,1.270124,-0.786902,-1.111408,-1.589212,17.95,3,WALK
1759223395.83289,-0.841113,10.741436,1.259649,-0.437329,-1.229118,-1.483159,17.97,3,WALK
1759223395.85201,-0.006434,10.459818,1.383549,-0.490938,-1.689773,-1.339002,17.99,3,WALK
1759223395.87255,-0.966809,8.181885,0.343269,-0.523798,-1.802894,-1.706734,18.01,3,WALK
1759223395.89286,-0.139462,7.211335,0.846949,-0.349122,-2.090244,-1.998386,18.03,3,WALK
1759223395.91286,-0.039205,7.111976,1.873612,-0.250617,-2.559362,-2.059209,18.05,3,WALK
1759223395.93287,-0.344017,7.943213,0.804302,-0.184539,-2.787589,-2.132937,18.07,3,WALK
1759223395.95252,0.603488,8.962245,-0.150535,0.013692,-2.834609,-2.125582,18.09,3,WALK
1759223395.97260,1.777545,8.591443,-0.750732,0.232117,-2.803066,-1.942324,18.11,3,WALK
1759223395.99284,2.524237,7.181857,-1.042226,0.409549,-2.808851,-1.668418,18.13,3,WALK
1759223396.01281,3.966594,5.701642,-0.587477,0.706752,-2.807875,-1.33676,18.15,3,WALK
1759223396.03283,5.217564,4.532822,0.843956,1.212383,-2.67232,-0.895771,18.17,3,WALK
1759223396.05282,4.699519,3.912874,2.318186,1.824793,-2.224099,-0.367043,18.19,3,WALK
1759223396.07252,3.203741,5.335778,5.366902,1.823913,-1.823516,0.26083,18.21,3,WALK
1759223396.09280,0.909647,8.686912,6.192004,1.507033,-0.997775,0.669924,18.23,3,WALK
1759223396.11281,-1.646163,14.565724,9.928605,0.549592,-0.442835,0.643291,18.25,3,WALK
1759223396.13281,-0.700454,18.471715,12.048371,-0.763437,-1.013945,0.506072,18.27,3,WALK
1759223396.15267,0.637007,12.159103,5.67351,-0.815702,-0.943789,0.428395,18.29,3,WALK
1759223396.17255,3.658639,12.13546,-2.806902,0.280679,0.777847,-0.039863,18.31,3,WALK
1759223396.19279,9.778668,25.280525,2.220472,-0.493371,1.320895,-0.35095,18.33,3,WALK
1759223396.21276,-1.772308,16.229096,-1.611148,-0.567373,1.171625,-0.839712,18.35,3,WALK
1759223396.23249,4.572925,-0.617704,-7.010222,0.695266,0.252177,0.599801,18.37,3,WALK
1759223396.25276,5.921609,-1.789067,-4.031686,0.851601,-0.305429,1.454306,18.39,3,WALK
1759223396.27250,7.979276,6.297798,-4.825513,0.712523,0.089872,2.259356,18.41,3,WALK
1759223396.29273,7.862708,19.236363,-0.787094,1.515356,-0.094509,2.319674,18.43,3,WALK
1759223396.31273,-3.12174,21.473295,0.804152,1.848397,0.3678,1.237736,18.45,3,WALK
1759223396.33225,-5.80564,10.965893,2.62614,1.389529,0.588221,0.367817,18.47,3,WALK
1759223396.35271,-3.714903,6.167613,0.441431,1.272216,0.568134,-0.033554,18.49,3,WALK
1759223396.37252,-1.766771,4.812046,-0.323666,1.369168,0.456793,0.014906,18.51,3,WALK
1759223396.39270,-0.784251,6.504747,-0.055216,1.524352,-0.037443,0.457153,18.53,3,WALK
1759223396.41272,-2.28751,9.225308,2.351854,1.473724,-0.676328,0.59807,18.55,3,WALK
1759223396.43238,-2.476652,10.620679,4.215142,1.125141,-0.953094,0.367239,18.57,3,WALK
1759223396.45267,-0.782455,9.457396,1.775151,0.885615,-0.461883,0.1134,18.59,3,WALK
1759223396.47251,0.516998,8.098237,0.744746,0.74958,-0.044167,-0.021415,18.61,3,WALK
1759223396.49267,0.659154,7.736264,0.015263,0.889722,-0.322587,0.120452,18.63,3,WALK
1759223396.51267,-0.409558,7.617153,0.609324,0.771461,-0.443841,0.424181,18.65,3,WALK
1759223396.53269,-0.525228,8.600721,-0.373645,0.841917,-0.575971,0.586249,18.67,3,WALK
1759223396.55275,0.713622,10.56636,-0.065841,1.053154,-0.714993,0.649538,18.69,3,WALK
1759223396.57250,0.771681,9.655666,0.46642,1.007499,-0.385942,0.72958,18.71,3,WALK
1759223396.59265,-0.249895,8.780735,0.507122,0.923242,-0.101387,0.716705,18.73,3,WALK
1759223396.61264,-0.445322,10.076746,0.711676,0.968492,-0.04903,0.648195,18.75,3,WALK
1759223396.63267,-0.55321,11.278485,0.659303,0.598253,-0.137472,0.594487,18.77,3,WALK
1759223396.65272,-0.043395,10.943148,0.352845,0.353958,-0.087873,0.42611,18.79,3,WALK
1759223396.67252,1.169568,10.435876,1.500117,0.106573,0.115707,0.433623,18.81,3,WALK
1759223396.69261,1.359607,10.934319,4.657919,-0.673749,0.209767,0.700847,18.83,3,WALK
1759223396.71241,-2.6839,12.533945,4.799776,-1.727064,-0.352866,0.57304,18.85,3,WALK
1759223396.73261,-4.548983,14.930541,0.604686,-2.377901,-0.581568,-0.487191,18.87,3,WALK
1759223396.75269,0.472705,15.024064,0.211288,-2.875164,0.020898,-1.368687,18.89,3,WALK
1759223396.77248,5.221903,12.042984,1.072602,-3.136181,-0.013655,-1.592228,18.91,3,WALK
1759223396.79258,5.199009,13.635577,-1.419612,-2.879235,0.09696,-1.751762,18.93,3,WALK
1759223396.81257,5.538537,16.879571,-3.117999,-1.989247,1.066819,-1.554021,18.95,3,WALK
1759223396.83218,3.735404,16.048184,0.541688,-1.36791,1.592801,-1.250168,18.97,3,WALK
1759223396.85256,0.474202,10.576685,1.964891,-1.381825,1.468844,-1.216897,18.99,3,WALK
1759223396.87246,1.736844,9.572916,0.38801,-1.308208,0.96902,-0.834401,19.01,3,WALK
1759223396.89255,0.443376,9.513061,0.581791,-1.367397,1.049697,-0.896322,19.03,3,WALK
1759223396.91254,0.767192,10.096049,0.866102,-1.518532,0.694585,-1.002636,19.05,3,WALK
1759223396.93254,0.96606,8.689156,0.850839,-1.610657,-0.393329,-0.983762,19.07,3,WALK
1759223396.95252,0.632518,6.435913,0.975936,-1.411597,-1.516992,-0.948102,19.09,3,WALK
1759223396.97245,-0.117914,4.843769,-0.984316,-0.949998,-1.714647,-1.150505,19.11,3,WALK
1759223396.99252,1.25127,4.362684,-1.84982,-0.358853,-1.320724,-1.161789,19.13,3,WALK
1759223397.01161,2.812588,4.078074,-1.316512,0.196032,-0.931521,-1.017937,19.15,3,WALK
1759223397.03220,3.9434,4.065205,-0.083797,0.451472,-0.912896,-0.780179,19.17,3,WALK
1759223397.05250,4.190152,3.698144,1.186177,0.677844,-1.179513,-0.35296,19.19,3,WALK
1759223397.07247,4.084508,3.49733,1.075745,1.049547,-1.345281,0.228452,19.21,3,WALK
1759223397.09246,4.241628,4.216039,2.321478,1.319752,-1.302878,0.798554,19.23,3,WALK
1759223397.11245,3.545663,6.58166,6.369474,1.299601,-0.609605,1.197849,19.25,3,WALK
1759223397.13248,-1.16029,11.635371,7.823503,1.147012,0.736884,1.207093,19.27,3,WALK
1759223397.15247,-0.638055,17.977013,9.350854,0.500178,0.614706,1.12841,19.29,3,WALK
1759223397.17247,-1.759289,15.226075,7.901015,0.008052,-0.371206,0.91016,19.31,3,WALK
1759223397.19246,-3.699939,7.010073,2.891447,0.49695,-0.093842,0.339567,19.33,3,WALK
1759223397.21248,0.836773,8.817545,-3.132214,0.891007,0.23524,-0.124256,19.35,3,WALK
1759223397.23245,8.329128,20.308816,-2.327763,0.846223,1.28367,0.129997,19.37,3,WALK
1759223397.25244,3.020884,23.528418,6.563554,0.842368,1.971669,-0.128885,19.39,3,WALK
1759223397.27241,3.189526,5.122544,2.636914,-0.943919,0.100807,0.505447,19.41,3,WALK
1759223397.29242,2.254739,-0.374393,-3.832219,-1.03948,-0.439192,0.76419,19.43,3,WALK
1759223397.31242,3.053505,3.114258,-5.670218,-0.207594,-0.371799,1.14653,19.45,3,WALK
1759223397.33242,3.413383,10.369587,-4.999392,0.841325,-0.759734,0.99948,19.47,3,WALK
1759223397.35241,2.477999,16.003592,-5.236269,1.703929,-0.515176,0.786175,19.49,3,WALK
1759223397.37237,-2.157176,12.470349,-3.126528,2.438524,-0.496657,0.550584,19.51,3,WALK
1759223397.39239,-4.450821,9.032425,-0.689979,2.724516,-0.10275,0.147479,19.53,3,WALK
1759223397.41238,-4.380491,5.965602,2.189049,1.98182,0.904773,-0.165542,19.55,3,WALK
1759223397.43238,-0.763002,7.140108,4.137779,1.240765,0.279086,-0.360615,19.57,3,WALK
1759223397.45237,1.339556,10.66976,1.598429,1.010045,-0.642925,-0.034018,19.59,3,WALK
1759223397.47235,0.29748,10.294169,-0.150386,0.890269,-0.215342,0.238245,19.61,3,WALK
1759223397.49236,-0.558747,8.514529,1.025018,0.773177,-0.214146,0.29773,19.63,3,WALK
1759223397.51236,-0.919523,7.994688,0.208894,0.767039,-0.280547,0.273394,19.65,3,WALK
1759223397.53238,0.486771,8.469638,0.466271,0.755472,-0.277271,0.476468,19.67,3,WALK
1759223397.55238,0.596605,8.434922,0.261866,0.809787,-0.310546,0.78146,19.69,3,WALK
1759223397.57231,0.154875,9.113978,0.744297,0.893918,-0.09217,0.990334,19.71,3,WALK
1759223397.59234,-0.894983,9.384672,1.524059,0.75353,0.009771,1.008871,19.73,3,WALK
1759223397.61232,-1.703624,9.841964,1.803582,0.546005,-0.163146,0.927912,19.75,3,WALK
1759223397.63231,-2.543241,10.629806,1.356315,0.416866,-0.723967,0.627586,19.77,3,WALK
1759223397.65233,-3.020136,11.830648,1.637933,0.284039,-0.508586,0.242714,19.79,3,WALK
1759223397.67228,-2.664896,12.867338,4.630236,-0.58858,-0.403035,-0.12649,19.81,3,WALK
1759223397.69231,-0.805798,18.988862,3.775955,-1.448311,-1.159265,-0.391898,19.83,3,WALK
1759223397.71144,2.366369,19.857509,1.075595,-2.38166,-0.659397,-0.844593,19.85,3,WALK
1759223397.73217,4.616021,14.691869,1.136049,-2.868042,-0.426884,-0.853577,19.87,3,WALK
1759223397.75230,5.512949,11.112088,-0.789488,-3.039909,0.367931,-0.995469,19.89,3,WALK
1759223397.77225,5.770176,14.273482,-2.23394,-2.352304,0.501681,-1.398842,19.91,3,WALK
1759223397.79226,7.125892,16.676512,-1.117793,-1.55702,0.680567,-1.207183,19.93,3,WALK
1759223397.81215,4.754585,12.566117,1.535282,-1.39441,1.331519,-0.963307,19.95,3,WALK
1759223397.83222,3.556437,8.582914,1.319953,-1.54267,1.515682,-0.70321,19.97,3,WALK
1759223397.85224,3.484461,8.120384,1.511789,-1.493439,0.811139,-0.342011,19.99,3,WALK
1759223397.87222,1.670554,8.009053,1.396717,-1.618993,0.363927,-0.159331,20.01,3,WALK
1759223397.89227,-0.990451,6.79639,1.169119,-1.940631,-0.023416,-0.340095,20.03,3,WALK
1759223397.91223,-0.690129,5.435885,0.630573,-2.042804,-0.730384,-0.476161,20.05,3,WALK
1759223397.93207,1.115099,4.870255,-0.609324,-1.721167,-0.998274,-0.606186,20.07,3,WALK
1759223397.95221,1.944241,4.382736,-0.432303,-1.318944,-0.938436,-0.853684,20.09,3,WALK
1759223397.97218,2.383577,4.737377,0.47465,-0.910709,-1.042402,-0.97971,20.11,3,WALK
1759223397.99220,1.553388,5.064934,0.405518,-0.554032,-0.947218,-0.950109,20.13,3,WALK
1759223398.01220,1.374272,5.700295,0.538995,-0.197572,-0.805849,-0.792952,20.15,3,WALK
1759223398.03219,1.721132,6.977153,0.377386,0.205521,-0.745445,-0.589879,20.17,3,WALK
1759223398.05218,1.538275,7.093271,0.647632,0.545179,-0.71884,-0.503581,20.19,3,WALK
1759223398.07215,2.104503,5.763891,1.141286,0.962347,-0.600935,-0.400267,20.21,3,WALK
1759223398.09201,2.460042,5.559935,2.196231,1.436161,-0.457243,-0.247949,20.23,3,WALK
1759223398.11216,2.128595,6.718429,4.544644,1.82103,-0.412952,-0.103213,20.25,3,WALK
1759223398.13216,0.842759,8.405294,6.677578,1.928092,-0.21135,0.120538,20.27,3,WALK
1759223398.15220,-1.649156,10.452336,8.42355,1.499433,0.168246,0.090852,20.29,3,WALK
1759223398.17215,-1.605163,13.969119,9.497199,0.566716,0.150143,-0.147228,20.31,3,WALK
1759223398.19214,1.227028,15.974113,11.248408,-0.592469,-0.362168,-0.300775,20.33,3,WALK
1759223398.21211,2.326416,11.065252,7.4117,-0.675483,-0.821004,-0.25219,20.35,3,WALK
1759223398.23184,0.967557,5.032163,2.068291,-0.150632,0.537447,-0.11137,20.37,3,WALK
1759223398.25212,8.029255,7.536797,-5.977873,0.881354,1.132301,0.129238,20.39,3,WALK
1759223398.27210,15.778836,20.46399,6.351069,0.325283,1.218667,0.5093,20.41,3,WALK
1759223398.29215,-1.577629,19.315372,-3.860052,0.493324,1.150232,0.625809,20.43,3,WALK
1759223398.31211,-2.084901,5.864447,-7.76275,0.364719,1.036073,1.128653,20.45,3,WALK
1759223398.33210,1.695095,3.760243,-2.983624,-0.007519,1.050467,1.546562,20.47,3,WALK
1759223398.35210,3.173065,7.338527,-4.158579,0.371772,1.219558,1.441947,20.49,3,WALK
1759223398.37207,3.466954,13.69648,-4.489876,0.750749,1.185769,1.161625,20.51,3,WALK
1759223398.39209,1.047763,15.230564,-4.150049,1.482281,0.864647,0.631527,20.53,3,WALK
1759223398.41205,-1.066467,10.951078,-2.439542,2.52525,0.522713,0.022319,20.55,3,WALK
1759223398.43211,-0.254683,7.708581,-0.495151,2.38892,1.558333,-0.0258,20.57,3,WALK
1759223398.45211,-0.231938,6.535572,1.606659,1.556986,1.953782,0.089426,20.59,3,WALK
1759223398.47204,0.438737,8.409783,1.526154,1.053643,1.255269,0.566174,20.61,3,WALK
1759223398.49207,-1.543213,10.645518,0.573561,1.033835,0.099838,0.838999,20.63,3,WALK
1759223398.51206,-3.783138,11.227758,-0.451157,0.961609,-0.007348,0.637645,20.65,3,WALK
1759223398.53206,-3.597138,10.172514,-0.750283,1.093384,0.007145,0.408161,20.67,3,WALK
1759223398.55207,-3.81935,8.494029,-0.48707,1.297688,-0.049969,-0.020633,20.69,3,WALK
1759223398.57133,-2.455703,7.755118,0.035314,1.332057,0.313534,-0.299641,20.71,3,WALK
1759223398.59208,0.87957,8.375666,0.979977,1.219622,0.446191,-0.134799,20.73,3,WALK
1759223398.61203,3.378219,9.402329,1.492186,1.097235,0.232989,0.260196,20.75,3,WALK
1759223398.63202,3.052457,9.614665,2.158522,0.756144,0.143025,0.760425,20.77,3,WALK
1759223398.65204,0.803255,10.053851,1.008857,0.687735,0.271159,0.92342,20.79,3,WALK
1759223398.67154,-1.035343,10.2816,0.464924,0.663768,0.469603,0.910597,20.81,3,WALK
1759223398.69201,-2.638859,9.995193,0.822558,0.618579,0.427588,0.761752,20.83,3,WALK
1759223398.71198,-2.949806,10.316465,1.759439,0.565168,0.305037,0.532377,20.85,3,WALK
1759223398.73199,-2.100463,10.609605,2.631677,0.461383,-0.02015,0.386722,20.87,3,WALK
1759223398.75207,-1.025167,10.502614,3.388843,0.056604,-0.34663,0.436251,20.89,3,WALK
1759223398.77196,-2.050783,12.475137,4.276343,-0.638612,-0.810736,0.504247,20.91,3,WALK
1759223398.79185,-4.501698,15.925631,3.744232,-1.200376,-1.642584,0.025515,20.93,3,WALK
1759223398.81198,-3.779098,17.171065,2.361132,-2.128447,-1.409859,-0.744861,20.95,3,WALK
1759223398.83199,1.224634,14.08853,2.040458,-3.064977,-0.832339,-0.711026,20.97,3,WALK
1759223398.85197,3.975871,12.452093,1.32938,-3.736926,-0.264468,-0.7165,20.99,3,WALK
1759223398.87151,5.003732,13.814992,-2.550274,-3.402959,0.44943,-1.091202,21.01,3,WALK
1759223398.89196,7.64304,15.141231,-4.878485,-2.208142,1.441231,-1.161797,21.03,3,WALK
1759223398.91194,5.826589,11.969662,1.702876,-1.801938,1.385766,-1.182395,21.05,3,WALK
1759223398.93196,3.41458,10.50441,3.103035,-2.252154,1.237756,-0.869442,21.07,3,WALK
1759223398.95195,2.519149,9.876531,-0.33848,-2.000205,1.075004,-0.485989,21.09,3,WALK
1759223398.97191,0.207248,10.790817,0.062249,-1.725771,0.573177,-0.372878,21.11,3,WALK
1759223398.99196,-2.864213,10.237457,0.294038,-1.82152,0.095484,-0.614574,21.13,3,WALK
1759223399.01192,-3.003227,8.704868,1.458817,-2.072118,-1.352427,-0.841301,21.15,3,WALK
1759223399.03192,-1.777994,6.077831,-1.237204,-1.649042,-2.141045,-1.109944,21.17,3,WALK
1759223399.05190,3.327491,4.137629,-0.740557,-0.918877,-1.712006,-1.090211,21.19,3,WALK
1759223399.07188,3.878008,3.839701,-0.924162,-0.45313,-1.381116,-0.988126,21.21,3,WALK
1759223399.09195,3.74917,3.960159,-1.182736,-0.272813,-1.25995,-0.892779,21.23,3,WALK
1759223399.11187,3.586963,3.98051,-1.452233,0.305594,-1.061551,-0.391432,21.25,3,WALK
1759223399.13188,3.7161,3.841945,-1.080832,0.804914,-1.106971,-0.016244,21.27,3,WALK
1759223399.15187,2.211345,3.624522,1.072004,1.239399,-0.993681,0.298505,21.29,3,WALK
1759223399.17186,0.467169,5.733963,4.577863,1.314768,-1.173076,0.399782,21.31,3,WALK
1759223399.19186,-0.241066,10.769867,7.502231,1.014072,-0.867598,0.454663,21.33,3,WALK
1759223399.21185,-2.744803,16.032771,11.786505,0.266084,-0.355138,0.01506,21.35,3,WALK
1759223399.23185,-2.208352,13.566295,9.772682,0.225387,-0.4858,-0.386807,21.37,3,WALK
1759223399.25184,0.420182,9.343372,6.54036,0.114189,-0.622005,-0.411906,21.39,3,WALK
1759223399.27184,2.385672,7.634511,2.511817,0.145275,-0.321365,-0.318336,21.41,3,WALK
1759223399.29165,3.858406,7.829788,1.694347,0.713364,0.639822,-0.305805,21.43,3,WALK
1759223399.31110,6.307674,11.548881,-1.281197,1.141722,0.586641,-0.142443,21.45,3,WALK
1759223399.33168,5.981763,28.625075,13.599664,-0.809933,1.783095,-0.50832,21.47,3,WALK
1759223399.35182,1.803283,6.459855,-9.143307,0.23941,0.840889,0.504857,21.49,3,WALK
1759223399.37110,1.342848,1.492485,-6.81704,0.213517,0.945367,0.729867,21.51,3,WALK
1759223399.39183,3.653103,1.282993,-4.539855,0.551953,-0.300736,1.389583,21.53,3,WALK
1759223399.41158,3.688567,8.752154,-5.350442,1.325371,-0.812036,1.338821,21.55,3,WALK
1759223399.43183,2.095375,18.30023,-6.174945,2.0653,-0.6055,0.879075,21.57,3,WALK
1759223399.45182,-4.318541,16.518794,-2.639757,2.787601,0.664996,-0.081491,21.59,3,WALK
1759223399.47079,-4.876989,11.996896,1.942146,2.705127,1.20223,-0.39773,21.61,3,WALK
1759223399.49185,2.13054,7.80824,4.845266,1.171424,1.325288,-0.6871,21.63,3,WALK
1759223399.51148,4.218583,7.741501,-1.434426,1.062154,1.493102,-0.406429,21.65,3,WALK
1759223399.53178,3.874566,7.075315,-0.883311,1.076256,0.815183,0.130126,21.67,3,WALK
1759223399.55180,0.948403,8.437167,-1.606958,1.36423,0.471859,0.604549,21.69,3,WALK
1759223399.57175,-2.46513,10.076746,-0.787393,1.527549,0.257267,0.493272,21.71,3,WALK
1759223399.59177,-2.909105,10.505907,0.139163,1.44131,0.503595,0.320634,21.73,3,WALK
1759223399.61176,-1.368885,9.719411,2.669385,1.00621,0.462959,0.253289,21.75,3,WALK
1759223399.63176,0.120608,8.796147,1.490839,0.64969,0.571168,0.237903,21.77,3,WALK
1759223399.65176,1.328183,8.861539,-0.052373,0.709802,0.636223,0.414705,21.79,3,WALK
1759223399.67126,0.947655,9.095273,-0.027384,0.903744,0.403809,0.665907,21.81,3,WALK
1759223399.69158,0.098761,8.619126,-0.195427,0.945448,0.373539,0.855021,21.83,3,WALK
1759223399.71173,-0.349254,8.964938,-0.468366,1.142431,0.281193,0.942594,21.85,3,WALK
1759223399.73175,-1.094449,9.912593,0.036512,1.378392,0.109245,0.839752,21.87,3,WALK
1759223399.75173,-1.728314,10.898256,1.780089,1.349109,0.241479,0.680245,21.89,3,WALK
1759223399.77134,-1.805677,11.168951,3.587262,0.571346,0.240831,0.565923,21.91,3,WALK
1759223399.79171,-1.205181,10.978163,2.98542,-0.029766,0.048729,0.411324,21.93,3,WALK
1759223399.81172,-0.132729,11.274296,2.051083,-0.274394,0.151064,0.271908,21.95,3,WALK
1759223399.83172,0.281319,12.137854,3.460818,-0.721945,0.207649,0.235474,21.97,3,WALK
1759223399.85170,-0.878971,14.701745,4.610933,-1.52178,-0.283224,0.31611,21.99,3,WALK
1759223399.87124,-3.198354,17.541867,5.563376,-2.807946,-0.950883,-0.185958,22.01,3,WALK
1759223399.89169,-3.185336,14.464569,1.756147,-4.095333,-0.56525,-0.641788,22.03,3,WALK
1759223399.91168,-1.540818,12.11885,-4.612429,-3.700645,0.104694,-1.337998,22.05,3,WALK
1759223399.93167,3.76174,14.376433,-3.199402,-2.808893,0.498109,-1.852963,22.07,3,WALK
1759223399.95092,9.168296,19.881451,-1.839046,-2.036618,1.568152,-1.544264,22.09,3,WALK
1759223399.97165,6.915951,16.118663,4.472219,-2.162629,1.313721,-1.571202,22.11,3,WALK
1759223399.99083,6.016479,9.364321,0.729633,-2.157767,1.33215,-1.044988,22.13,3,WALK
1759223400.01166,2.60115,6.665757,-0.076016,-1.903932,0.268591,-0.412233,22.15,3,WALK
1759223400.03165,-1.878999,7.785046,0.969951,-1.963724,-0.610797,-0.253291,22.17,3,WALK
1759223400.05165,-5.230882,8.842984,0.463278,-2.081644,-0.727588,-0.8049,22.19,3,WALK
1759223400.07085,-2.102558,9.182362,0.38816,-2.084115,-1.447422,-1.135367,22.21,3,WALK
1759223400.09144,0.995988,6.711097,-1.785476,-1.644261,-1.96203,-1.222681,22.23,3,WALK
1759223400.11164,3.223643,4.303129,-1.350779,-1.439589,-2.306155,-1.062378,22.25,3,WALK
1759223400.13160,3.328838,2.564489,-2.043301,-1.036644,-2.213506,-0.976703,22.27,3,WALK
1759223400.15165,3.225738,2.235137,-2.29185,-0.265174,-1.397585,-0.9043,22.29,3,WALK
1759223400.17124,3.552995,3.544915,-1.145925,0.482091,-0.789772,-0.678988,22.31,3,WALK
1759223400.19162,3.419519,5.387552,-0.099509,0.988508,-0.581952,-0.439709,22.33,3,WALK
1759223400.21160,2.981679,6.234501,0.226102,1.517295,-0.448733,-0.23609,22.35,3,WALK
1759223400.23163,2.880524,5.906196,1.845331,2.09967,-0.225204,-0.016717,22.37,3,WALK
1759223400.25160,3.034202,6.719626,4.989965,2.433364,-0.631613,0.208363,22.39,3,WALK
1759223400.27160,1.82513,9.598354,9.21214,1.897835,-1.052693,0.580656,22.41,3,WALK
1759223400.29160,-3.745429,15.770606,12.590508,0.668128,-0.123907,0.319103,22.43,3,WALK
1759223400.31157,-3.466355,17.197102,11.142465,0.15504,-0.049836,-0.216483,22.45,3,WALK
1759223400.33160,-0.239271,10.713604,5.969343,-0.003765,-0.364806,-0.381565,22.47,3,WALK
1759223400.35159,1.902343,6.115839,2.732832,0.042764,-0.317362,-0.354697,22.49,3,WALK
1759223400.37155,4.986524,7.365312,-3.029264,0.781925,0.632419,-0.105197,22.51,3,WALK
1759223400.39157,11.087997,16.671425,0.079308,1.08569,-0.355453,0.340674,22.53,3,WALK
1759223400.41157,3.543568,27.733684,13.248913,0.029442,1.594711,-0.088538,22.55,3,WALK
1759223400.43159,1.515979,5.921759,-5.299116,-0.169402,0.804849,0.650937,22.57,3,WALK
1759223400.45133,-0.422277,0.724545,-5.480627,-0.176759,0.063065,0.689174,22.59,3,WALK
1759223400.47153,1.732205,2.286163,-4.128352,-0.106208,-0.28354,1.01349,22.61,3,WALK
1759223400.49153,2.381782,8.24174,-5.66109,0.785549,-0.366835,0.852683,22.63,3,WALK
1759223400.51153,2.825308,16.605883,-7.923161,2.109066,0.410187,0.30517,22.65,3,WALK
1759223400.53153,0.673818,15.660473,-3.952378,3.399184,0.667366,0.020716,22.67,3,WALK
1759223400.55151,-1.103727,9.667038,1.752705,3.469733,1.196138,-0.144751,22.69,3,WALK
1759223400.57150,-0.893486,6.930615,6.061819,1.807102,2.134593,-0.318605,22.71,3,WALK
1759223400.59080,0.325462,8.03105,3.035548,0.549387,1.645988,-0.069375,22.73,3,WALK
1759223400.61151,0.360926,8.088511,0.113126,0.341069,0.679759,0.374736,22.75,3,WALK
1759223400.63108,-1.012598,8.528296,-1.59379,0.676561,0.016629,0.424237,22.77,3,WALK
1759223400.65158,-1.925986,9.530718,-2.264765,1.105677,-0.428625,0.374523,22.79,3,WALK
1759223400.67147,-2.429815,9.944317,-1.498621,1.339906,-0.16827,0.253352,22.81,3,WALK
1759223400.69078,-1.856404,9.452757,0.28895,1.383253,0.176548,0.02337,22.83,3,WALK
1759223400.71147,0.642394,8.882488,1.621174,1.249547,0.415473,-0.020719,22.85,3,WALK
1759223400.73151,2.557905,8.958504,2.050484,0.950575,0.379817,0.278636,22.87,3,WALK
1759223400.75148,2.459144,9.660454,0.984466,0.718075,0.088691,0.635824,22.89,3,WALK
1759223400.77145,1.121833,10.179996,-0.619949,0.830032,0.074532,0.818724,22.91,3,WALK
1759223400.79146,0.140809,10.171766,-0.67292,1.057923,0.235978,0.861112,22.93,3,WALK
1759223400.81146,-0.893636,10.820744,1.10253,0.982738,0.337165,0.866675,22.95,3,WALK
1759223400.83149,-2.75827,11.751191,2.434005,0.580936,0.269416,0.739165,22.97,3,WALK
1759223400.85147,-3.356222,11.445032,2.926463,0.102936,0.039133,0.407536,22.99,3,WALK
1759223400.87142,-1.568052,11.209503,2.70036,-0.305203,0.089317,0.248309,23.01,3,WALK
1759223400.89144,-0.869544,12.259659,3.143437,-0.743316,0.036384,0.164616,23.03,3,WALK
1759223400.91143,-1.720533,14.282909,4.210802,-1.320995,-0.279172,0.077316,23.05,3,WALK
1759223400.93143,-3.517232,16.590022,6.082918,-2.541232,-0.964709,-0.332189,23.07,3,WALK
1759223400.95142,-2.933496,15.883283,4.162469,-4.08481,-0.986942,-0.791314,23.09,3,WALK
1759223400.97132,0.411653,12.313379,-1.78772,-4.407057,0.057363,-1.29549,23.11,3,WALK
1759223400.99141,5.241057,12.371738,-4.775534,-3.390208,1.548327,-1.648536,23.13,3,WALK
1759223401.01131,11.002254,17.613842,-2.02729,-2.141581,2.121886,-1.381998,23.15,3,WALK
1759223401.03140,8.504653,15.433473,4.38079,-2.241251,1.333878,-1.331734,23.17,3,WALK
1759223401.05140,5.371092,10.54167,2.148347,-2.62994,1.261205,-0.649519,23.19,3,WALK
1759223401.07137,0.869394,8.148516,-0.572663,-2.204839,0.510797,-0.233837,23.21,3,WALK
1759223401.09138,-3.883245,8.981997,-0.038906,-1.940559,-0.295997,-0.334348,23.23,3,WALK
1759223401.11100,-4.094833,9.804106,-0.537049,-1.943632,-0.245586,-0.668681,23.25,3,WALK
1759223401.13149,-2.226308,8.823531,0.320374,-1.700147,-1.163898,-1.150094,23.27,3,WALK
1759223401.15137,1.046266,5.787833,-0.233884,-1.383905,-1.521016,-1.13076,23.29,3,WALK
1759223401.17134,2.428768,3.283947,-0.048483,-1.214263,-1.793214,-1.056281,23.31,3,WALK
1759223401.19139,2.748544,2.411709,-1.299154,-0.727726,-1.662092,-1.14773,23.33,3,WALK
1759223401.21134,2.845958,3.200599,-1.742231,0.021937,-1.153281,-1.139146,23.35,3,WALK
1759223401.23133,2.550423,4.272453,-0.508768,0.571424,-1.121611,-0.791144,23.37,3,WALK
1759223401.25136,1.817947,4.811148,0.089184,0.941074,-1.201598,-0.26324,23.39,3,WALK
1759223401.27133,0.836773,4.781969,0.967557,1.316549,-1.211422,0.126487,23.41,3,WALK
1759223401.29135,0.790236,6.125266,3.615544,1.444786,-1.206634,0.231598,23.43,3,WALK
1759223401.31134,1.68073,9.077616,6.915203,1.438076,-1.245165,0.309581,23.45,3,WALK
1759223401.33132,1.828721,13.545196,10.810269,0.627541,-0.660368,0.373799,23.47,3,WALK
1759223401.35133,0.773926,16.010326,13.823671,-0.158745,-0.733603,0.136681,23.49,3,WALK
1759223401.37121,0.767042,9.816825,7.553407,0.110739,-0.689005,0.01472,23.51,3,WALK
1759223401.39035,1.977162,6.762273,3.284994,0.401955,-0.477458,-0.015014,23.53,3,WALK
1759223401.41131,3.253421,5.990293,0.254384,0.520189,0.172237,-0.032226,23.55,3,WALK
1759223401.43133,4.286668,7.588422,0.21458,0.988501,0.673468,0.149753,23.57,3,WALK
1759223401.45097,9.520244,16.68983,4.353257,1.622936,-0.760778,0.62936,23.59,3,WALK
1759223401.47084,0.450858,25.139866,9.105149,0.545972,1.280967,-0.229666,23.61,3,WALK
1759223401.49129,-0.738162,7.620894,-6.734141,0.453503,1.382233,0.072914,23.63,3,WALK
1759223401.51129,1.514482,2.665046,-5.285649,0.658586,0.757421,0.357075,23.65,3,WALK
1759223401.53130,3.477728,3.414281,-4.018817,0.893496,-0.188454,0.867644,23.67,3,WALK
1759223401.55129,3.422212,8.623017,-4.737527,1.230552,-0.36744,0.868844,23.69,3,WALK
1759223401.57068,2.632425,14.090475,-4.883573,1.791262,0.036961,0.48311,23.71,3,WALK
1759223401.59128,-0.209493,14.170531,-2.683601,2.991258,0.992295,0.060078,23.73,3,WALK
1759223401.61127,-1.391181,9.777171,4.264073,2.472905,1.833952,-0.191796,23.75,3,WALK
1759223401.63120,1.113453,9.113229,5.365556,1.026478,1.844241,-0.238316,23.77,3,WALK
1759223401.65132,2.181267,8.785373,0.254234,0.548485,1.436791,0.007075,23.79,3,WALK
1759223401.67124,0.93299,7.551312,-2.666093,0.8264,0.913557,0.33342,23.81,3,WALK
1759223401.69125,-0.975637,8.014141,-2.327912,1.282109,0.422453,0.466299,23.83,3,WALK
1759223401.71123,-2.190994,9.487772,-1.388038,1.672934,0.054579,0.386319,23.85,3,WALK
1759223401.73125,-2.587085,10.304195,0.955885,1.51615,0.432747,0.207628,23.87,3,WALK
1759223401.75125,-1.456124,9.524882,2.862418,0.852752,0.409764,0.059361,23.89,3,WALK
1759223401.77121,0.256628,8.296058,0.030227,0.740114,0.483305,-0.033722,23.91,3,WALK
1759223401.79122,2.017414,8.159739,-0.964863,0.915131,0.806507,0.021166,23.93,3,WALK
1759223401.81124,3.631106,9.750835,-0.272041,1.185463,0.704148,0.347018,23.95,3,WALK
1759223401.83123,3.227982,10.839449,0.374543,1.047054,0.746784,0.811357,23.97,3,WALK
1759223401.85121,0.861763,10.803386,0.184204,0.895931,0.782962,1.12761,23.99,3,WALK
1759223401.87120,-1.968782,11.547534,0.060454,0.99384,0.599891,1.166477,24.01,3,WALK
1759223401.89120,-4.384382,12.676999,1.48246,0.899388,0.235413,0.87856,24.03,3,WALK
1759223401.91121,-5.853673,12.435483,2.373851,0.516999,0.287911,0.446257,24.05,3,WALK
1759223401.93120,-4.045153,11.295843,3.529353,-0.080838,0.499623,0.147522,24.07,3,WALK
1759223401.95119,-1.099986,11.315596,3.841347,-0.607942,0.330818,0.055805,24.09,3,WALK
1759223401.97117,0.931644,11.455507,3.263746,-1.068754,0.366025,0.165815,24.11,3,WALK
1759223401.99118,-0.706589,14.22889,4.601057,-1.735563,-0.30815,0.044956,24.13,3,WALK
1759223402.01022,-2.148347,15.221436,4.051588,-2.860637,-0.558472,-0.501727,24.15,3,WALK
1759223402.03121,-0.769736,13.88203,0.856077,-3.631544,-0.312943,-0.96119,24.17,3,WALK
1759223402.05118,3.596241,11.704204,-1.731157,-3.492265,0.523501,-1.159974,24.19,3,WALK
1759223402.07115,6.26787,13.227515,-1.426196,-2.938492,1.086447,-1.321124,24.21,3,WALK
1759223402.09114,7.518392,15.140183,-0.239719,-2.216446,1.804239,-1.121956,24.23,3,WALK
1759223402.11118,5.365855,12.504766,1.982848,-1.884489,1.857853,-1.119764,24.25,3,WALK
1759223402.13116,3.578883,9.245509,0.839018,-1.638076,1.688413,-0.877917,24.27,3,WALK
1759223402.15115,1.839345,8.279898,0.114323,-1.471095,1.018319,-0.450644,24.29,3,WALK
1759223402.17112,-0.616058,8.998158,0.867449,-1.500519,0.334615,-0.420283,24.31,3,WALK
1759223402.19078,-3.309984,9.04694,0.874781,-1.617366,0.264102,-0.827492,24.33,3,WALK
1759223402.21112,-1.648857,8.043769,0.462231,-1.605826,-0.136987,-1.038213,24.35,3,WALK
1759223402.23114,-1.050905,5.21098,0.020351,-1.102918,-1.345982,-1.477602,24.37,3,WALK
1759223402.25113,1.352874,4.115782,0.245256,-0.821158,-1.650143,-1.457244,24.39,3,WALK
1759223402.27111,1.689857,3.674052,0.005537,-0.463199,-1.690732,-1.336251,24.41,3,WALK
1759223402.29112,1.968782,4.296395,-1.121683,0.226514,-1.186619,-1.21923,24.43,3,WALK
1759223402.31114,2.490119,5.695806,0.065242,0.693321,-1.10209,-0.893358,24.45,3,WALK
1759223402.33115,2.080711,6.415114,0.101305,1.005279,-1.060872,-0.539213,24.47,3,WALK
1759223402.35111,2.690933,6.048651,0.113425,1.413262,-0.955072,-0.175536,24.49,3,WALK
1759223402.37111,4.32318,4.757428,1.915062,1.796792,-0.834863,0.379673,24.51,3,WALK
1759223402.39110,3.324948,4.683657,4.381389,1.954444,-0.375494,0.716401,24.53,3,WALK
1759223402.41090,1.034145,7.471555,7.73791,1.649698,0.271193,0.796172,24.55,3,WALK
1759223402.43109,-1.594688,14.248942,11.37994,0.913311,0.717817,0.716675,24.57,3,WALK
1759223402.45108,-3.073556,17.691953,10.49214,-0.019965,-0.272273,0.412687,24.59,3,WALK
1759223402.47030,-4.202273,12.486959,2.454206,-0.308082,-0.069965,-0.140377,24.61,3,WALK
1759223402.49108,3.304746,16.628179,-1.194258,0.760268,0.243668,-0.314293,24.63,3,WALK
1759223402.51108,9.550022,23.583934,-1.266383,0.479507,0.718936,0.38273,24.65,3,WALK
1759223402.53107,1.264737,11.421838,2.438195,-0.10604,0.954065,-0.298127,24.67,3,WALK
1759223402.55106,3.358766,1.062128,-2.767847,0.03916,0.200196,0.173254,24.69,3,WALK
1759223402.57104,3.929783,-0.262464,-6.367828,0.170772,1.394966,0.705227,24.71,3,WALK
1759223402.59106,6.840085,5.483769,-3.945644,0.583377,1.171601,1.267574,24.73,3,WALK
1759223402.61106,9.671827,16.032921,-3.661333,1.834658,0.309591,1.142801,24.75,3,WALK
1759223402.63026,3.098695,16.434249,-3.074454,2.556039,0.829482,1.062271,24.77,3,WALK
1759223402.65106,-5.239261,10.931476,1.55668,2.187875,1.456324,0.692472,24.79,3,WALK
1759223402.67102,-7.308301,8.60102,2.863914,1.231453,1.557435,0.045661,24.81,3,WALK
1759223402.69077,-4.719869,7.976432,-0.05761,1.025574,1.525891,-0.286967,24.83,3,WALK
1759223402.71101,-0.876727,8.789713,-0.648679,1.33211,1.323097,-0.179557,24.85,3,WALK
1759223402.73105,0.681599,9.875783,1.051354,1.592111,0.868765,0.138328,24.87,3,WALK
1759223402.75103,-0.190788,9.38123,3.457078,1.163402,0.91688,0.32013,24.89,3,WALK
1759223402.77101,-1.344644,8.220791,3.535937,0.676755,0.775193,0.336438,24.91,3,WALK
1759223402.79101,-0.996886,8.472182,1.342848,0.568408,0.484816,0.445129,24.93,3,WALK
1759223402.81098,-1.422754,8.854207,0.320673,0.645951,0.488896,0.45723,24.95,3,WALK
1759223402.83103,-0.783802,9.343522,1.040131,0.724005,0.46785,0.534771,24.97,3,WALK
1759223402.85104,0.056713,10.118195,2.013524,0.641866,0.42047,0.610375,24.99,3,WALK
1759223402.87052,0.52433,9.544186,2.012626,0.349575,0.376776,0.723251,25.01,3,WALK
1759223402.89071,-0.689829,9.375843,0.348955,0.270865,0.093238,0.814667,25.03,3,WALK
1759223402.91092,-2.552518,9.401132,-1.433828,0.428546,-0.274359,0.771239,25.05,3,WALK
1759223402.93100,-3.260154,9.802311,-1.439663,0.668277,-0.109458,0.617259,25.07,3,WALK
1759223402.95107,-2.273294,10.930728,1.036689,0.568037,0.040974,0.505429,25.09,3,WALK
1759223402.97095,-0.553659,12.261006,3.382708,0.064322,0.037928,0.664114,25.11,3,WALK
1759223402.99098,-1.215357,11.962778,4.104559,-0.631063,-0.304574,0.900907,25.13,3,WALK
1759223403.01096,-3.739294,12.810775,3.308338,-1.207504,-0.946202,0.742376,25.15,3,WALK
1759223403.03099,-5.080945,14.683788,1.744774,-1.665204,-0.96398,-0.148526,25.17,3,WALK
1759223403.05096,-0.864606,15.749807,3.591452,-2.509169,-0.468604,-0.691516,25.19,3,WALK
1759223403.07093,2.265364,13.487286,4.444686,-3.514117,-0.565878,-0.91169,25.21,3,WALK
1759223403.09095,5.394585,12.524817,1.46585,-3.680386,0.15621,-1.200938,25.23,3,WALK
1759223403.11095,6.825869,13.738677,-2.175581,-2.884459,0.861699,-1.578459,25.25,3,WALK
1759223403.13095,7.473949,15.319449,-1.021875,-1.950559,0.947164,-1.32318,25.27,3,WALK
1759223403.15094,2.906561,11.492018,2.613121,-1.989273,0.779602,-1.02937,25.29,3,WALK
1759223403.17050,-0.010774,9.850793,1.01993,-1.83398,0.315155,-0.824725,25.31,3,WALK
1759223403.19095,-1.004966,9.809643,-0.47061,-1.622237,-0.429648,-0.750565,25.33,3,WALK
1759223403.20995,-1.52765,9.945364,-1.31711,-1.598963,-0.055852,-0.975333,25.35,3,WALK
1759223403.23091,-0.853383,9.364321,0.771232,-1.698328,0.070387,-1.139757,25.37,3,WALK
1759223403.25091,1.546505,7.843554,1.467795,-1.480877,-0.821339,-1.071819,25.39,3,WALK
1759223403.27015,0.093673,5.563526,-0.034716,-1.112695,-2.277256,-1.45653,25.41,3,WALK
1759223403.29092,0.595857,4.367024,0.461632,-1.085411,-2.51587,-1.445744,25.43,3,WALK
1759223403.31081,0.998681,3.618237,-0.7431,-0.610119,-2.306836,-1.29645,25.45,3,WALK
1759223403.33091,1.470788,3.624073,-1.290325,-0.008355,-2.029706,-1.067272,25.47,3,WALK
1759223403.35087,2.280028,4.805312,-1.085322,0.488791,-1.710862,-0.87462,25.49,3,WALK
1759223403.37087,3.351882,5.606322,-0.641047,0.953212,-1.457953,-0.614668,25.51,3,WALK
1759223403.39089,4.442292,4.485238,0.392499,1.608018,-1.084966,-0.120087,25.53,3,WALK
1759223403.41089,4.459799,4.01343,2.929455,2.033797,-0.704018,0.276485,25.55,3,WALK
1759223403.43088,3.342306,7.055263,6.846369,1.991962,-0.563995,0.625083,25.57,3,WALK
1759223403.45088,0.141707,11.108497,9.604789,1.456162,-0.297079,0.695461,25.59,3,WALK
1759223403.47085,-1.882441,15.700127,11.303325,0.404937,-0.217843,0.640217,25.61,3,WALK
1759223403.49087,-1.64751,12.983456,8.47712,-0.260058,-1.027919,0.560485,25.63,3,WALK
1759223403.51087,-1.053449,8.280197,2.082806,-0.020993,-0.686375,0.220177,25.65,3,WALK
1759223403.53086,1.818546,10.20708,0.820463,0.724882,0.444144,-0.061002,25.67,3,WALK
1759223403.55090,7.81662,21.604079,2.849848,1.293708,0.357893,0.096792,25.69,3,WALK
1759223403.57083,0.121655,25.710135,7.899369,-0.07805,1.802041,-0.490247,25.71,3,WALK
1759223403.59085,2.718017,4.183418,-4.004452,-0.197613,0.144515,0.227384,25.73,3,WALK
1759223403.61007,1.137695,-1.580023,-5.775563,0.276347,-0.038771,0.455341,25.75,3,WALK
1759223403.63085,2.630928,0.871938,-4.850054,0.423228,-0.220386,0.909796,25.77,3,WALK
1759223403.65084,5.096208,10.00477,-4.969016,1.143385,-0.534532,1.219731,25.79,3,WALK
1759223403.67081,6.339247,20.59193,-5.078401,2.432944,-0.544255,0.575651,25.81,3,WALK
1759223403.69084,0.120309,12.919262,-0.587028,2.728919,0.769155,0.12203,25.83,3,WALK
1759223403.71083,-2.514061,6.190807,4.586093,1.605428,1.954295,-0.289959,25.85,3,WALK
1759223403.73083,0.875829,7.25503,1.978808,0.791128,1.7749,-0.294798,25.87,3,WALK
1759223403.75083,2.906561,7.955334,-0.786046,0.865348,1.001592,0.147587,25.89,3,WALK
1759223403.77080,1.076493,8.337358,-1.510143,1.356226,0.092427,0.414177,25.91,3,WALK
1759223403.79081,-1.433678,9.51366,-1.088015,1.699339,0.23825,0.279395,25.93,3,WALK
1759223403.81081,-1.879448,10.5294,2.398092,1.422898,0.9982,0.033913,25.95,3,WALK
1759223403.83085,-0.097564,9.929951,2.971803,0.78275,0.791505,0.164928,25.97,3,WALK
1759223403.85086,0.623839,9.329755,0.577452,0.555809,0.580611,0.375915,25.99,3,WALK
1759223403.87078,-0.077363,9.685743,-0.442628,0.641424,0.752555,0.487452,26.01,3,WALK
1759223403.89079,-0.796072,9.488072,0.597054,0.599998,0.834863,0.544622,26.03,3,WALK
1759223403.91080,-0.488567,9.691579,0.536451,0.522942,0.737864,0.630305,26.05,3,WALK
1759223403.93079,-0.547973,9.844359,-0.414795,0.689417,0.42137,0.720486,26.07,3,WALK
1759223403.95078,-2.234688,10.024672,0.267103,0.873451,0.290994,0.736865,26.09,3,WALK
1759223403.97078,-3.035698,11.250204,1.720234,0.375382,0.620122,0.670252,26.11,3,WALK
1759223403.99078,-1.145625,9.869348,2.367716,-0.199078,0.372965,0.796191,26.13,3,WALK
1759223404.01076,-1.477971,9.564836,1.334767,-0.351772,0.03884,0.837151,26.15,3,WALK
1759223404.03075,-3.060239,10.273669,2.268506,-0.747148,-0.056089,0.551547,26.17,3,WALK
1759223404.05074,-2.575562,12.456283,3.31582,-1.169458,-0.57872,-0.16804,26.19,3,WALK
1759223404.07074,1.076343,17.381455,3.641581,-1.919243,-0.497672,-0.46682,26.21,3,WALK
1759223404.09074,2.212242,14.834324,4.42209,-2.824787,-0.010167,-0.626076,26.23,3,WALK
1759223404.11072,1.602768,10.804733,1.257554,-3.164901,0.351143,-1.125896,26.25,3,WALK
1759223404.13073,3.938911,11.710489,-1.736993,-2.690488,1.027585,-1.847293,26.27,3,WALK
1759223404.15072,6.933159,14.609269,-2.297985,-1.473833,1.499627,-1.964583,26.29,3,WALK
1759223404.17071,5.718102,13.010391,2.157026,-0.880886,1.551797,-1.661666,26.31,3,WALK
1759223404.19072,2.408118,9.043349,3.634398,-1.094722,1.565729,-1.393326,26.33,3,WALK
1759223404.21060,1.509694,8.183082,1.432032,-1.060884,0.44684,-0.926859,26.35,3,WALK
1759223404.23072,0.702549,9.617209,0.019004,-0.97785,-0.198345,-0.653957,26.37,3,WALK
1759223404.25079,0.084246,10.039486,1.535731,-1.230287,-0.013243,-0.779677,26.39,3,WALK
1759223404.27070,-0.43769,8.797644,2.259977,-1.396058,-0.758379,-1.05549,26.41,3,WALK
1759223404.29072,0.629376,7.300669,0.61097,-1.179198,-0.770798,-1.120046,26.43,3,WALK
1759223404.31072,1.836652,6.195146,0.865354,-0.732677,-0.633011,-1.208427,26.45,3,WALK
1759223404.33074,2.69647,5.423166,1.261744,-0.393902,-0.772377,-1.273221,26.47,3,WALK
1759223404.35073,2.480692,4.909909,0.871489,-0.206454,-0.776657,-1.216689,26.49,3,WALK
1759223404.37068,1.271022,4.945523,0.38008,0.227094,-0.680252,-0.936254,26.51,3,WALK
1759223404.39070,0.454449,5.685331,0.993444,0.613664,-0.734423,-0.624701,26.53,3,WALK
1759223404.41070,0.602142,6.63134,0.947954,0.858163,-1.029638,-0.339597,26.55,3,WALK
1759223404.43071,1.284788,5.940164,1.267879,1.237132,-1.050038,-0.008812,26.57,3,WALK
1759223404.45069,1.880645,5.295974,3.525013,1.570901,-1.118832,0.352981,26.59,3,WALK
1759223404.47066,1.328782,6.6273,5.323956,1.724542,-0.958297,0.642154,26.61,3,WALK
1759223404.49073,-1.004817,8.967632,6.562806,1.566791,-0.538703,0.65246,26.63,3,WALK
1759223404.51068,-3.830423,12.919112,9.0013,0.806534,-0.436356,0.483006,26.65,3,WALK
1759223404.53069,-3.091214,15.995661,9.829694,-0.11493,-0.963827,0.295689,26.67,3,WALK
1759223404.55067,-1.247529,12.35423,5.332935,-0.259715,-0.587123,0.103501,26.69,3,WALK
1759223404.57022,3.295319,14.184298,5.079149,-0.441905,0.12938,0.04153,26.71,3,WALK
1759223404.59065,7.128287,20.288764,3.221249,-0.594802,0.558876,0.128861,26.73,3,WALK
1759223404.61026,3.329886,8.941296,-1.867627,0.164734,0.552856,0.089294,26.75,3,WALK
1759223404.63064,3.91871,3.025822,-2.503587,0.470602,0.739545,0.679409,26.77,3,WALK
1759223404.65064,3.286491,2.221819,-4.856488,0.398349,0.365349,1.18841,26.79,3,WALK
1759223404.67063,4.722114,7.412897,-4.83913,0.600309,-0.259606,1.892892,26.81,3,WALK
1759223404.69065,3.794061,13.379397,-3.82369,0.672453,-0.909667,2.145444,26.83,3,WALK
1759223404.71064,-0.332794,16.646585,-3.72014,1.479624,-1.499946,1.36355,26.85,3,WALK
1759223404.73065,-4.559907,12.752715,-2.819472,2.601507,-0.945101,0.13191,26.87,3,WALK
1759223404.75063,-3.968988,8.060678,1.913117,2.118128,0.564308,-0.220366,26.89,3,WALK
1759223404.77061,-1.541118,6.559514,3.792864,1.199168,0.81745,-0.686576,26.91,3,WALK
1759223404.79063,1.698985,8.770709,0.576853,0.732881,0.913584,-0.745196,26.93,3,WALK
1759223404.81062,3.495834,9.770887,-1.825429,0.791582,0.905308,-0.364246,26.95,3,WALK
1759223404.83061,3.04318,9.053823,-1.557428,1.125917,0.339563,0.129529,26.97,3,WALK
1759223404.85063,0.882413,8.31207,-0.566827,1.300997,-0.090995,0.355028,26.99,3,WALK
1759223404.86993,-0.447865,9.202264,-0.013467,1.269666,0.089052,0.371282,27.01,3,WALK
1759223404.89061,-0.612916,9.888352,1.836951,0.940524,0.122375,0.218628,27.03,3,WALK
1759223404.91061,0.15697,8.658481,0.757017,0.675078,0.216853,0.198249,27.05,3,WALK
1759223404.93060,0.735618,8.661922,-0.197222,0.782623,0.039524,0.348413,27.07,3,WALK
1759223404.95062,0.647332,9.359832,-0.51191,0.961853,-0.010908,0.524184,27.09,3,WALK
1759223404.97014,0.304961,9.777171,0.032771,1.003361,0.001399,0.63055,27.11,3,WALK
1759223404.99059,0.051475,10.322152,0.481534,1.018847,-0.049818,0.617886,27.13,3,WALK
1759223405.01053,-0.255581,11.255591,0.883909,0.925107,0.035901,0.584127,27.15,3,WALK
1759223405.03062,-0.901417,11.936592,1.324143,0.710251,0.22005,0.603016,27.17,3,WALK
1759223405.05038,-1.624466,11.165509,2.51062,0.204965,0.121258,0.548571,27.19,3,WALK
1759223405.07055,-1.191564,10.439467,1.248127,-0.032413,0.202438,0.478156,27.21,3,WALK
1759223405.09057,-0.242413,10.852617,0.424372,-0.056896,0.274772,0.481725,27.23,3,WALK
1759223405.11056,-0.530765,11.790845,1.459116,-0.395272,-0.098022,0.585916,27.25,3,WALK
1759223405.13039,-3.123086,14.54268,2.624943,-0.876273,-0.75053,0.390609,27.27,3,WALK
1759223405.15057,-4.052186,15.886575,3.2621,-1.873964,-0.717709,-0.266776,27.29,3,WALK
1759223405.17053,-1.162684,14.640244,2.366668,-2.788741,-0.585093,-0.782679,27.31,3,WALK
1759223405.19045,3.981108,11.199327,1.083077,-3.381971,-0.275857,-0.802898,27.33,3,WALK
1759223405.21055,6.974309,10.870274,0.344615,-3.693842,0.339151,-0.840338,27.35,3,WALK
1759223405.23033,7.033865,13.907469,-2.170493,-3.002431,0.823725,-1.094224,27.37,3,WALK
1759223405.25017,6.660968,14.514099,-0.987459,-2.310301,1.132347,-0.814652,27.39,3,WALK
1759223405.27009,3.420416,11.001057,1.09415,-2.335122,1.061946,-0.619528,27.41,3,WALK
1759223405.29053,1.092205,9.444976,0.26007,-2.265273,0.726444,-0.499457,27.43,3,WALK
1759223405.31054,-0.333542,9.561993,-0.785298,-1.892836,-0.060775,-0.518088,27.45,3,WALK
1759223405.33053,-1.826626,9.698761,0.283713,-1.815408,-0.035512,-0.773401,27.47,3,WALK
1759223405.35053,-1.356914,8.652944,1.587356,-1.93732,-0.649551,-1.00401,27.49,3,WALK
1759223405.37050,0.325013,6.781726,0.303465,-1.657488,-1.387591,-1.09834,27.51,3,WALK
1759223405.39052,1.99003,4.834192,0.117466,-1.196152,-1.42417,-1.101195,27.53,3,WALK
1759223405.41051,2.380734,4.151246,0.409857,-0.74729,-1.284737,-1.221757,27.55,3,WALK
1759223405.43055,2.542941,4.743362,-0.064045,-0.254091,-0.909191,-1.32078,27.57,3,WALK
1759223405.45023,2.513912,5.550508,0.084545,0.254836,-0.622428,-1.181835,27.59,3,WALK
1759223405.47004,2.616264,6.060024,0.725742,0.638519,-0.699764,-0.813158,27.61,3,WALK
1759223405.49050,2.093729,5.216367,0.749086,1.014131,-0.61956,-0.501496,27.63,3,WALK
1759223405.51050,2.471714,4.16232,1.384148,1.427078,-0.556185,-0.159002,27.65,3,WALK
1759223405.53053,2.628833,4.323779,2.826954,1.763455,-0.548716,0.277008,27.67,3,WALK
1759223405.55057,2.240374,6.898742,6.193351,1.895523,-0.610325,0.611579,27.69,3,WALK
1759223405.57046,-0.268749,10.686968,10.31871,1.474899,-0.274284,0.60163,27.71,3,WALK
1759223405.59048,-3.791667,15.406239,11.574169,0.586463,0.416262,0.136467,27.73,3,WALK
1759223405.61045,-3.111714,14.569615,8.592939,0.069934,0.095199,-0.273068,27.75,3,WALK
1759223405.63053,-1.017985,9.134777,3.465457,-0.049155,-0.113117,-0.335944,27.77,3,WALK
1759223405.65055,1.10268,6.840384,2.219575,0.05288,-0.259003,-0.144756,27.79,3,WALK
1759223405.67001,5.146187,12.604125,-1.085471,0.682641,0.632822,0.189354,27.81,3,WALK
1759223405.69047,8.822633,20.363733,6.389226,0.493107,0.222241,0.593243,27.83,3,WALK
1759223405.71046,0.302268,13.691242,2.89025,0.089914,0.583504,0.222296,27.85,3,WALK
1759223405.73044,2.339734,3.845238,-6.752397,0.41097,0.757974,0.609697,27.87,3,WALK
1759223405.75048,3.216011,3.25791,-4.753388,0.659306,0.558902,1.177371,27.89,3,WALK
1759223405.77043,3.174861,6.142923,-4.176236,0.732402,0.199037,1.644291,27.91,3,WALK
1759223405.79045,2.619706,12.550704,-4.174141,0.885566,-0.157211,1.677334,27.93,3,WALK
1759223405.81045,-0.482282,15.777639,-4.254796,1.625916,-0.826285,0.902388,27.95,3,WALK
1759223405.83046,-3.345448,11.757326,-2.715474,2.608215,-0.926136,-0.190731,27.97,3,WALK
1759223405.85044,-1.955315,7.983166,-0.022296,2.595439,0.555362,-0.453897,27.99,3,WALK
1759223405.87042,0.061052,7.091625,2.465878,1.660082,1.985463,-0.798533,28.01,3,WALK
1759223405.89044,3.264344,8.608651,1.649006,0.985228,1.879646,-0.567091,28.03,3,WALK
1759223405.91043,3.920655,9.338584,0.229993,0.784214,1.004012,0.053741,28.05,3,WALK
1759223405.93044,2.420688,9.796325,-0.988656,0.820808,0.468616,0.548442,28.07,3,WALK
1759223405.94946,-0.378433,9.888202,-0.766743,1.058609,0.224141,0.534483,28.08,3,WALK
1759223405.96996,-2.027889,9.720758,-0.323516,1.131952,0.290317,0.339221,28.11,3,WALK
1759223405.99041,-2.032827,9.173683,-0.485724,1.156085,0.53364,0.15215,28.13,3,WALK
1759223406.01027,-0.530465,9.06325,0.236427,1.162801,0.578415,0.085203,28.15,3,WALK
1759223406.03046,0.571167,8.771008,0.675165,1.044012,0.352373,0.274025,28.17,3,WALK
1759223406.05041,0.795025,9.380033,0.985663,0.847162,0.057565,0.602218,28.19,3,WALK
1759223406.07037,-0.136769,10.516531,0.54513,0.869889,-0.155096,0.721032,28.21,3,WALK
1759223406.09040,-0.777966,11.306767,0.194529,1.02246,0.037406,0.641258,28.23,3,WALK
1759223406.11040,-0.911892,10.711209,1.225682,0.928518,0.277825,0.589825,28.25,3,WALK
1759223406.13042,-0.786795,10.898406,2.48967,0.620455,0.164445,0.65773,28.27,3,WALK
1759223406.15012,-1.700482,11.097574,2.760963,0.167727,-0.089204,0.576958,28.29,3,WALK
1759223406.16994,-1.70138,11.273847,2.201169,-0.101932,-0.083668,0.302386,28.31,3,WALK
1759223406.19038,-0.064045,11.529577,2.130241,-0.271878,0.261789,0.161737,28.33,3,WALK
1759223406.21037,0.787094,12.248137,4.066552,-0.929222,-0.13284,0.452158,28.35,3,WALK
1759223406.23037,-2.475455,14.579641,4.122516,-1.748606,-0.601088,0.313326,28.37,3,WALK
1759223406.25041,-4.380491,15.138088,4.033033,-2.938986,-0.919759,-0.219484,28.39,3,WALK
1759223406.27034,-2.26671,13.314754,1.366042,-3.991612,-0.614271,-0.75474,28.41,3,WALK
1759223406.29036,1.529446,10.97098,-1.961749,-4.017214,0.360346,-1.38472,28.43,3,WALK
1759223406.31033,5.633407,13.788207,-4.50918,-2.980281,1.643018,-1.739195,28.45,3,WALK
1759223406.33036,9.724649,18.08131,-1.905485,-1.800108,1.949292,-1.437802,28.47,3,WALK
1759223406.35035,6.581211,14.969147,3.696049,-2.169086,1.318757,-1.255997,28.49,3,WALK
1759223406.37033,3.437475,10.218453,1.334319,-2.651609,0.672891,-0.702089,28.51,3,WALK
1759223406.39035,-0.3304,9.12116,-1.406145,-2.387282,-0.626345,-0.301636,28.53,3,WALK
1759223406.41035,-5.192724,9.959131,-1.27162,-2.055965,-0.504233,-0.778961,28.55,3,WALK
1759223406.43034,-3.068918,11.116877,0.026187,-1.842132,-0.397471,-1.400111,28.57,3,WALK
1759223406.45033,1.182885,9.011775,0.408062,-1.543584,-1.303757,-1.605609,28.59,3,WALK
1759223406.47031,2.717419,5.65705,-0.168791,-1.364514,-1.817076,-1.505997,28.61,3,WALK
1759223406.49033,3.609708,3.68318,-1.199944,-1.053755,-1.955112,-1.456141,28.63,3,WALK
1759223406.51033,3.595343,3.349488,-1.617433,-0.479813,-1.591409,-1.227823,28.65,3,WALK
1759223406.53032,2.570475,3.075801,-1.17675,0.177712,-1.073213,-0.911709,28.67,3,WALK
1759223406.55032,2.262969,3.423259,-0.527173,0.614309,-0.9339,-0.500942,28.69,3,WALK
1759223406.57029,2.445078,4.097227,-0.640748,1.150739,-0.77839,-0.132285,28.71,3,WALK
1759223406.59033,2.718017,4.254646,0.606481,1.876988,-0.822881,0.196883,28.73,3,WALK
1759223406.61025,3.190423,5.083339,3.041833,2.437151,-0.852175,0.574576,28.75,3,WALK
1759223406.63031,1.975965,8.459313,7.020398,2.304424,-1.205914,0.850466,28.77,3,WALK
1759223406.65028,-2.347664,14.866945,11.866112,0.973948,-0.988517,0.631642,28.79,3,WALK
1759223406.67028,-6.936002,19.992631,12.790723,-0.296671,-0.160783,-0.21718,28.81,3,WALK
1759223406.69030,-2.21329,12.448951,7.4738,-0.423882,-0.792808,-0.405987,28.83,3,WALK
1759223406.71029,1.519271,6.886023,0.864008,-0.19826,-0.68744,-0.259827,28.85,3,WALK
1759223406.73029,2.476353,3.884293,-1.203685,0.671875,0.384462,-0.345221,28.87,3,WALK
1759223406.75029,7.987655,11.145458,-0.853832,1.91814,0.538749,0.088843,28.89,3,WALK
1759223406.77026,7.692121,19.987993,9.345168,0.434322,0.796492,0.800436,28.91,3,WALK
1759223406.79028,-0.281468,20.115484,5.646126,-0.420748,0.199769,0.462462,28.93,3,WALK
1759223406.81028,0.138864,4.181324,-8.911817,0.54301,0.416721,0.717459,28.95,3,WALK
1759223406.83030,0.407912,1.539023,-2.628235,0.605756,-0.164378,1.082142,28.97,3,WALK
1759223406.85029,1.365293,3.454683,-2.064101,0.542171,-0.548217,1.515022,28.99,3,WALK
1759223406.87020,1.201141,9.81907,-3.0556,0.795571,-0.813202,1.418407,29.01,3,WALK
1759223406.89021,-0.558298,16.944513,-4.073584,1.149572,-1.404597,0.803373,29.03,3,WALK
1759223406.91026,-3.938611,14.71192,-3.572897,2.210025,-1.378908,-0.357207,29.05,3,WALK
1759223406.92966,-2.253542,7.554903,-0.695366,2.320746,0.497192,-0.994217,29.06,3,WALK
1759223406.95025,1.443105,6.306477,2.852542,1.458167,1.425467,-1.232592,29.09,3,WALK
1759223406.97023,5.344157,7.634062,1.518971,0.942845,1.077305,-0.679299,29.11,3,WALK
1759223406.99025,6.554127,8.919,-0.176273,0.873028,0.622268,0.185522,29.13,3,WALK
1759223407.00947,3.330035,9.342773,-0.530914,0.797964,0.09511,0.579879,29.14,3,WALK
1759223407.03025,-0.235979,10.22773,-1.34599,1.058856,-0.467021,0.646907,29.17,3,WALK
1759223407.05024,-3.046322,10.279206,-1.178695,1.201702,-0.182606,0.348162,29.19,3,WALK
1759223407.07023,-2.453458,9.594464,-0.269198,1.084157,0.379123,-0.029295,29.21,3,WALK
1759223407.09023,0.676661,9.204059,0.678158,0.976204,0.268587,-0.107438,29.23,3,WALK
1759223407.11024,2.796727,8.639028,-0.017208,0.897657,0.304019,0.161709,29.25,3,WALK
1759223407.13031,2.30816,8.784924,0.197821,0.804677,0.191202,0.481707,29.27,3,WALK
1759223407.15024,0.89588,9.686042,-0.525378,0.856163,0.16919,0.610058,29.29,3,WALK
1759223407.17019,0.386065,10.535984,-0.536152,1.053028,0.137685,0.679342,29.31,3,WALK
1759223407.19022,-0.432602,10.689811,0.47091,1.077815,0.253502,0.714178,29.33,3,WALK
1759223407.21022,-1.386542,11.214141,1.789965,0.856259,0.294583,0.656876,29.35,3,WALK
1759223407.23021,-1.872864,11.138125,2.37834,0.45447,0.078116,0.620274,29.37,3,WALK
1759223407.25021,-1.869572,10.706421,2.006491,0.15626,0.043602,0.473561,29.39,3,WALK
1759223407.27018,-1.006014,11.206211,1.648557,-0.003845,0.091464,0.299969,29.41,3,WALK
1759223407.29019,-0.568174,12.917317,2.44433,-0.477839,-0.326035,0.378026,29.43,3,WALK
1759223407.31026,-2.755876,14.612711,2.929006,-1.185815,-0.754839,0.00813,29.45,3,WALK
1759223407.33018,-2.754529,16.35539,2.809895,-2.018998,-0.782712,-0.534895,29.47,3,WALK
1759223407.35018,0.339378,13.556868,2.017115,-2.894155,-0.145,-0.894223,29.49,3,WALK
1759223407.37016,3.896563,10.357017,1.121534,-3.385223,0.278324,-1.027671,29.51,3,WALK
1759223407.39018,6.575226,11.764808,-1.402254,-3.202968,1.197522,-1.165891,29.53,3,WALK
1759223407.41018,7.324761,14.305056,-2.443283,-2.281801,1.830233,-1.125744,29.55,3,WALK
1759223407.43018,4.897938,12.658593,0.227,-1.823455,1.336608,-0.887882,29.57,3,WALK
1759223407.45021,1.612944,10.609007,1.207127,-1.982827,0.978568,-0.681619,29.59,3,WALK
1759223407.47015,-0.077512,10.361207,0.547374,-2.097303,0.243268,-0.481125,29.61,3,WALK
1759223407.49017,-1.08592,11.716026,-0.502184,-2.022588,0.221732,-0.488923,29.63,3,WALK
1759223407.51016,-1.959953,11.376049,1.186925,-2.016883,-0.218671,-0.807519,29.65,3,WALK
1759223407.53016,-0.202609,9.573515,1.036839,-1.976609,-0.808916,-1.098533,29.67,3,WALK
1759223407.55019,1.917157,6.182727,-0.352696,-1.63342,-1.136212,-1.02377,29.69,3,WALK
1759223407.56971,2.326865,4.075679,-0.451157,-1.21729,-1.351893,-1.137755,29.70,3,WALK
1759223407.59016,4.004452,4.538509,-0.613514,-0.867604,-1.286835,-1.077795,29.73,3,WALK
1759223407.61015,3.178153,5.007622,-0.390554,-0.429914,-0.792237,-0.982879,29.75,3,WALK
1759223407.63015,1.814655,5.392041,-0.376937,0.030191,-0.361458,-0.880238,29.77,3,WALK
1759223407.65017,1.691803,5.539883,-0.358981,0.480338,-0.311687,-0.699731,29.79,3,WALK
1759223407.67012,2.637363,4.896741,-0.281917,0.964496,-0.408092,-0.410491,29.81,3,WALK
1759223407.69014,2.924966,4.498705,0.902614,1.456668,-0.6891,0.051348,29.83,3,WALK
1759223407.71011,1.906832,4.853795,3.400664,1.77792,-0.945307,0.436393,29.85,3,WALK
1759223407.73013,-0.073023,7.791181,6.710349,1.798804,-1.263905,0.753547,29.87,3,WALK
1759223407.74935,-3.671359,12.879159,9.70744,1.055392,-0.6361,0.554164,29.88,3,WALK
1759223407.77010,-4.36433,17.923443,12.134413,0.005439,-0.170191,0.053838,29.91,3,WALK
1759223407.79013,-1.817199,11.929858,8.134001,-0.117451,-0.256643,-0.247757,29.93,3,WALK
1759223407.81012,1.270723,6.348675,1.875857,0.101515,-0.171582,-0.219858,29.95,3,WALK
1759223407.83011,4.912453,8.53907,-0.309002,0.703334,0.390848,-0.021787,29.97,3,WALK
1759223407.85014,9.299827,17.568053,1.699734,1.047244,-0.216759,0.681284,29.99,3,WALK
1759223407.86926,-2.349011,19.637841,7.582586,-0.262459,1.380935,-0.027625,30.00,3,WALK
1759223407.89011,0.875679,6.315754,-4.30672,0.280705,0.219166,0.222683,30.03,3,WALK
1759223407.91010,1.528698,2.272097,-3.372981,0.313495,0.087616,0.67632,30.05,3,WALK
1759223407.93014,2.70874,2.681356,-2.132635,0.219268,-0.362685,1.180344,30.07,3,WALK
1759223407.95008,3.258658,8.265083,-4.114585,0.474774,-0.370144,1.40915,30.09,3,WALK
1759223407.96945,2.755427,16.419136,-4.026898,1.169453,-1.129323,1.145742,30.10,3,WALK
1759223407.99009,-2.03971,15.329624,-4.570381,2.362065,-0.977324,0.012394,30.13,3,WALK
1759223408.01009,-2.13907,8.836998,-0.592565,2.877718,0.33059,-0.52294,30.15,3,WALK
1759223408.03007,-0.147692,6.723068,4.057124,1.921738,1.548049,-0.911896,30.17,3,WALK
1759223408.05009,3.863344,8.518869,2.232443,1.007218,1.857072,-0.646311,30.19,3,WALK
1759223408.07006,4.793641,9.005041,0.212485,0.729339,1.182096,-0.072233,30.21,3,WALK
1759223408.09009,3.261352,8.537125,-0.795025,0.718238,0.416994,0.498532,30.23,3,WALK
1759223408.11007,0.295085,9.086594,-1.996914,0.928469,0.339307,0.631148,30.25,3,WALK
1759223408.13016,-1.565808,9.788095,-1.500716,1.236684,0.166164,0.478291,30.27,3,WALK
1759223408.14980,-2.243666,9.603891,-0.660949,1.241194,0.370882,0.246282,30.29,3,WALK
1759223408.16961,-0.931344,9.358485,0.627281,1.094598,0.526327,0.146724,30.30,3,WALK
1759223408.19007,0.773626,8.979004,0.843058,0.986626,0.588545,0.228835,30.33,3,WALK
1759223408.20988,1.204882,8.622568,0.692523,0.835788,0.34701,0.455654,30.35,3,WALK
1759223408.23005,0.782754,8.988282,-0.292093,0.844082,0.237468,0.632451,30.37,3,WALK
1759223408.25003,0.344466,10.02961,-0.642843,1.104554,0.139515,0.635966,30.39,3,WALK
1759223408.26959,0.0618,10.442909,-0.164152,1.3057,0.216075,0.586102,30.40,3,WALK
1759223408.29004,-0.316932,10.871322,1.808071,1.132588,0.372365,0.621103,30.43,3,WALK
1759223408.31005,-1.393126,10.796652,3.002329,0.642623,0.374421,0.690407,30.45,3,WALK
1759223408.33008,-2.338836,10.700136,2.942474,0.158198,0.195399,0.522808,30.47,3,WALK
1759223408.35006,-1.479317,10.778846,2.166154,-0.13906,0.005181,0.323707,30.49,3,WALK
1759223408.37001,-1.242591,11.848904,2.27943,-0.555196,-0.233516,0.186794,30.51,3,WALK
1759223408.39003,-1.906533,14.96376,3.050662,-1.045984,-0.569162,-0.060155,30.53,3,WALK
1759223408.41008,-2.292448,16.278177,4.335151,-2.051475,-0.684959,-0.487234,30.55,3,WALK
1759223408.43002,-0.384868,14.689774,3.23322,-3.220778,-0.664263,-0.739742,30.57,3,WALK
1759223408.45004,3.04333,11.856835,0.183456,-3.692027,-0.012067,-0.917155,30.59,3,WALK
1759223408.47000,5.347898,12.627319,-2.79957,-3.392122,1.042343,-1.160288,30.61,3,WALK
1759223408.49001,7.203704,14.988451,-4.709245,-2.388882,1.705561,-1.294882,30.63,3,WALK
1759223408.51002,7.780108,15.045463,-0.392948,-1.729899,1.744127,-1.287465,30.65,3,WALK
1759223408.53001,4.40593,11.898434,4.158429,-2.260312,1.639096,-0.98774,30.67,3,WALK
1759223408.55001,3.156007,9.270349,-0.803554,-2.256194,1.276378,-0.482111,30.69,3,WALK
1759223408.56998,1.337012,9.754726,-1.13979,-2.012407,0.557211,-0.251954,30.71,3,WALK
1759223408.58900,-1.70931,11.009437,0.937929,-2.044548,0.268585,-0.529978,30.72,3,WALK
1759223408.60899,-1.19351,10.228179,0.554108,-1.984753,-0.172083,-0.850611,30.74,3,WALK
1759223408.63002,0.316484,7.216722,-0.864307,-1.439119,-0.347498,-1.081096,30.77,3,WALK
1759223408.65000,3.012055,4.327669,-0.801908,-0.851971,-0.370628,-1.080376,30.79,3,WALK
1759223408.66997,4.792294,3.312977,-0.443526,-0.545071,-0.363179,-0.918158,30.81,3,WALK
1759223408.68902,4.131943,3.558681,-0.944812,-0.056185,0.01033,-0.622092,30.82,3,WALK
1759223408.70941,3.055899,3.630059,-0.300173,0.382242,0.167782,-0.326932,30.84,3,WALK
1759223408.72993,2.223316,3.290681,0.230292,0.749733,-0.021313,-0.05118,30.87,3,WALK
1759223408.74939,1.522712,3.19611,0.340874,1.237395,-0.076099,0.26894,30.88,3,WALK
1759223408.76997,1.879149,4.039766,1.386243,1.612033,0.06469,0.678507,30.91,3,WALK
1759223408.78903,1.093851,6.166865,3.370138,1.943101,-0.093067,0.831954,30.92,3,WALK
1759223408.80995,0.109535,10.726772,6.004807,2.048414,-0.1993,0.991778,30.95,3,WALK
1759223408.82997,-4.904372,15.904981,8.853907,1.403126,0.606894,0.551252,30.97,3,WALK
1759223408.84996,-6.519112,15.95511,10.523863,0.704758,1.061777,0.004154,30.99,3,WALK
1759223408.86994,-3.044676,10.768521,8.142231,-0.013237,0.342914,-0.132327,31.01,3,WALK
1759223408.88902,0.818218,7.879168,3.337068,-0.032503,-0.272071,0.095853,31.02,3,WALK
1759223408.90995,7.357382,15.5668,-0.764648,0.820713,0.19657,0.654285,31.05,3,WALK
1759223408.92994,6.737882,22.206969,4.220828,0.502021,0.823564,0.663334,31.07,3,WALK
1759223408.94993,-2.386421,12.272229,5.812074,-0.284617,1.403892,0.013706,31.09,3,WALK
1759223408.96949,2.736722,5.801749,-2.513463,-0.484772,0.801545,0.353115,31.10,3,WALK
1759223408.98903,1.437419,0.698957,-4.197036,-0.567885,0.030877,0.825097,31.12,3,WALK
1759223409.00993,2.075773,3.541922,-3.390938,-0.203198,-0.882801,1.542534,31.15,3,WALK
1759223409.02991,2.675371,13.292757,-5.833472,0.743311,-1.078009,1.313642,31.17,3,WALK
1759223409.04994,2.178125,18.645294,-7.790732,1.541471,-0.718665,0.798538,31.19,3,WALK
1759223409.06991,-2.67552,11.173141,-1.414674,2.79795,0.238421,-0.228076,31.21,3,WALK
1759223409.08904,-2.697068,8.01055,0.827496,2.714966,0.736821,-0.339358,31.22,3,WALK
1759223409.10990,0.663493,7.217171,4.655525,1.029075,1.760697,-0.908689,31.25,3,WALK
1759223409.12991,4.784064,9.547777,1.70527,0.592093,1.126919,-0.27164,31.27,3,WALK
1759223409.14990,3.895516,10.007464,0.556353,0.550432,0.266362,0.386984,31.29,3,WALK
1759223409.16990,0.349404,8.97257,0.11956,0.552931,0.059128,0.548413,31.31,3,WALK
1759223409.18909,-0.91264,8.958354,-0.235979,0.668608,0.017399,0.508309,31.32,3,WALK
1759223409.20992,-2.324022,9.293243,0.42542,0.718437,0.195759,0.236614,31.35,3,WALK
1759223409.22972,-1.012448,8.850166,0.555455,0.689381,0.122942,0.17025,31.36,3,WALK
1759223409.24989,0.355539,8.6507,0.254384,0.69558,0.05563,0.293413,31.39,3,WALK
1759223409.26989,1.08173,9.266758,0.246303,0.774593,0.039796,0.474199,31.41,3,WALK
1759223409.28906,1.080832,9.498397,0.581492,0.801112,0.014285,0.568448,31.42,3,WALK
1759223409.30991,0.397138,9.658958,0.789189,0.696978,0.1167,0.683467,31.45,3,WALK
1759223409.32991,0.42931,9.449615,0.674566,0.59656,-0.049593,0.705016,31.47,3,WALK
1759223409.34990,-0.436493,9.863961,0.065392,0.651486,-0.098079,0.687429,31.49,3,WALK
1759223409.36988,-1.781436,9.722853,0.021398,0.607339,0.204532,0.49644,31.51,3,WALK
1759223409.38909,-1.476325,10.406398,0.759411,0.444086,0.109387,0.437047,31.52,3,WALK
1759223409.40990,-1.539322,11.43351,1.62282,0.208924,-0.004884,0.535198,31.55,3,WALK
1759223409.42988,-2.426523,11.245864,2.968511,-0.207499,-0.16123,0.48333,31.57,3,WALK
1759223409.44988,-2.482787,12.811672,3.476082,-0.729568,-0.497648,0.210871,31.59,3,WALK
1759223409.46942,-1.268478,15.399206,2.599804,-1.241042,-0.406487,-0.274952,31.60,3,WALK
1759223409.48905,0.58613,16.295385,3.80693,-2.086459,-0.404446,-0.617644,31.62,3,WALK
1759223409.50988,1.668459,12.73401,4.196437,-3.093254,-0.316106,-0.846467,31.65,3,WALK
1759223409.52989,4.464588,11.370513,1.010353,-3.330214,0.301005,-1.177751,31.67,3,WALK
1759223409.54987,8.182334,12.208184,-1.177199,-2.969239,1.36327,-1.301099,31.69,3,WALK
1759223409.56942,9.045444,12.614749,-2.037316,-1.985543,1.553043,-1.149254,31.70,3,WALK
1759223409.58912,5.221903,9.896283,2.551321,-1.763869,1.205017,-0.801895,31.72,3,WALK
1759223409.60986,1.469292,9.745448,3.035249,-1.982996,1.176049,-0.421495,31.75,3,WALK
1759223409.62987,-0.31379,10.232668,0.473603,-1.798811,0.317545,-0.22227,31.77,3,WALK
1759223409.64986,-1.836203,10.788123,-0.961422,-1.582144,0.519279,-0.505346,31.79,3,WALK
1759223409.66983,0.590919,10.545411,1.426795,-1.588101,0.465963,-0.631166,31.81,3,WALK
1759223409.68908,0.794276,7.788188,1.57718,-1.43347,-0.730951,-0.899486,31.82,3,WALK
1759223409.70985,1.345092,5.599738,1.469441,-1.219385,-0.766022,-0.889871,31.85,3,WALK
1759223409.72952,1.198896,4.16217,1.337611,-0.764363,-0.811296,-0.949988,31.86,3,WALK
1759223409.74982,1.128866,4.070891,0.291494,-0.195324,-0.719135,-1.072312,31.89,3,WALK
1759223409.76926,1.506551,5.164443,0.133177,0.267323,-0.69267,-1.015929,31.90,3,WALK
1759223409.78909,1.871518,6.083218,0.596605,0.56379,-0.888997,-0.750552,31.92,3,WALK
1759223409.80983,2.166603,5.770026,0.304064,0.881672,-0.851829,-0.459854,31.95,3,WALK
1759223409.82984,2.278233,4.428375,0.763451,1.406585,-0.831538,-0.166794,31.97,3,WALK
1759223409.84990,2.356792,3.67495,2.369063,1.849795,-1.003807,0.19919,31.99,3,WALK
1759223409.86939,2.70874,6.211607,5.023334,2.125611,-1.00846,0.648305,32.00,3,WALK
1759223409.88909,0.804452,9.466524,8.849568,1.855872,-0.503812,0.830564,32.02,3,WALK
1759223409.90908,-3.840449,13.672986,10.345645,1.029667,0.495738,0.331531,32.04,3,WALK
1759223409.92982,-4.298191,16.928801,9.664943,0.101142,0.270043,-0.263462,32.07,3,WALK
1759223409.94983,-1.443704,11.49561,6.219986,-0.418877,-0.62571,-0.3669,32.09,3,WALK
1759223409.96979,0.553809,6.893804,2.537405,-0.091021,-0.613822,-0.143019,32.11,3,WALK
1759223409.98910,3.017891,7.829339,-3.334973,0.947155,0.599873,-0.100135,32.12,3,WALK
1759223410.00982,10.460716,15.607352,1.005565,1.205009,0.197111,0.545143,32.15,3,WALK
1759223410.02982,1.506102,24.326136,13.109152,-0.248202,1.390008,0.174177,32.17,3,WALK
1759223410.04979,1.972074,8.34484,-4.448576,-0.375351,0.167231,0.716387,32.19,3,WALK
1759223410.06976,0.138864,2.237681,-3.508104,-0.253553,-0.518386,0.945407,32.20,3,WALK
1759223410.08910,0.722001,1.117194,-3.217208,0.019656,-0.755886,1.135329,32.22,3,WALK
1759223410.10977,1.583615,6.949919,-4.12895,0.561201,-0.968884,1.018317,32.24,3,WALK
1759223410.12979,1.817349,16.431256,-5.515941,1.695985,-1.051835,0.568329,32.27,3,WALK
1759223410.14920,-1.547253,16.419285,-3.584718,2.461607,-0.716417,0.050198,32.28,3,WALK
1759223410.16976,-2.410811,9.185055,0.559944,2.571025,0.132185,-0.28687,32.30,3,WALK
1759223410.18912,-0.649128,6.4003,4.236091,1.466258,0.89762,-0.679637,32.32,3,WALK
1759223410.20978,2.385672,7.529016,1.425897,0.835398,1.058737,-0.640941,32.35,3,WALK
1759223410.22934,4.180126,8.026561,-0.053421,0.787653,0.496326,-0.134881,32.36,3,WALK
1759223410.24976,3.601478,8.849119,-1.04866,0.91433,0.194395,0.350098,32.38,3,WALK
1759223410.26975,1.070507,9.471761,-1.159691,1.048576,0.157625,0.493537,32.40,3,WALK
1759223410.28915,-0.894534,10.022577,-0.542287,1.192689,-0.129986,0.467892,32.42,3,WALK
1759223410.30977,-2.223615,9.269451,0.092775,1.021353,-0.014469,0.239567,32.44,3,WALK
1759223410.32978,-0.577302,9.393949,-0.004639,0.856879,0.202075,0.218037,32.47,3,WALK
1759223410.34978,1.025616,9.401731,-0.287155,0.946681,0.118795,0.270221,32.49,3,WALK
1759223410.36974,1.537077,8.705766,-0.216077,0.955843,-0.056892,0.486927,32.50,3,WALK
1759223410.38916,0.822259,8.835352,-0.245705,1.03993,-0.130154,0.646891,32.52,3,WALK
1759223410.40976,0.192733,10.388591,-0.188394,1.109213,-0.117148,0.660607,32.54,3,WALK
1759223410.42977,-0.092925,11.459397,0.517746,1.042682,0.039106,0.597785,32.56,3,WALK
1759223410.44954,-0.515651,11.105654,1.617283,0.75468,0.252476,0.522158,32.58,3,WALK
1759223410.46973,-0.34267,10.683975,2.276287,0.344952,0.306064,0.50247,32.60,3,WALK
1759223410.48917,-0.049081,10.653599,1.777844,-0.008779,0.2304,0.518273,32.62,3,WALK
1759223410.50974,-0.396091,10.877606,1.169268,-0.211759,0.211221,0.406939,32.64,3,WALK
1759223410.52975,-0.732626,11.213692,1.716194,-0.491713,0.267234,0.276273,32.66,3,WALK
1759223410.54977,-1.161936,13.210307,3.725079,-1.086006,0.033746,0.194554,32.68,3,WALK
1759223410.56971,-2.464232,15.348778,5.43379,-2.325752,-0.520099,-0.190942,32.70,3,WALK
1759223410.58917,-2.383577,15.410578,2.968511,-3.426439,-0.821958,-0.660981,32.72,3,WALK
1759223410.60975,1.6722,12.191275,0.017208,-3.721267,0.091688,-1.224271,32.74,3,WALK
1759223410.62973,7.347805,12.174216,-2.149694,-3.434549,1.600917,-1.332003,32.76,3,WALK
1759223410.64972,9.457695,15.468039,-2.910451,-2.493036,2.029134,-1.326833,32.78,3,WALK
1759223410.66970,8.776096,15.518617,-1.022623,-1.814506,1.687314,-1.008995,32.80,3,WALK
1759223410.68918,3.016395,11.524639,2.729689,-2.124394,1.60542,-0.716646,32.82,3,WALK
1759223410.70969,-0.252439,9.652673,0.443227,-2.219227,1.114098,-0.527264,32.84,3,WALK
1759223410.72907,-1.76318,9.757419,-1.906233,-1.865121,0.840319,-0.559407,32.86,3,WALK
1759223410.74969,-1.631948,10.723779,0.010325,-1.816291,0.31816,-0.823664,32.88,3,WALK
1759223410.76969,-0.349254,10.040384,0.345962,-1.754956,-0.43213,-1.27846,32.90,3,WALK
1759223410.78921,2.340781,7.041197,-0.708235,-1.362207,-0.698473,-1.36986,32.92,3,WALK
1759223410.80970,3.454833,3.694403,0.616657,-1.106362,-0.793728,-1.2712,32.94,3,WALK
1759223410.82973,3.829077,2.929156,-0.043844,-0.655322,-0.677535,-1.223227,32.96,3,WALK
1759223410.84970,3.436278,3.852869,-0.73906,0.064735,-0.145744,-1.003727,32.98,3,WALK
1759223410.86927,2.649783,4.73184,-0.10325,0.609648,-0.170536,-0.594855,33.00,3,WALK
1759223410.88919,1.962348,4.515614,0.0618,0.936154,-0.124397,-0.187239,33.02,3,WALK
1759223410.90969,1.154304,3.467253,0.856226,1.26242,-0.098462,0.157836,33.04,3,WALK
1759223410.92972,1.556381,3.478625,2.020856,1.557261,-0.095282,0.547369,33.06,3,WALK
1759223410.94935,1.593341,5.945701,4.302081,1.874421,-0.122463,0.76781,33.08,3,WALK
1759223410.96965,-0.36332,10.018387,5.936423,2.063274,0.376581,0.849159,33.10,3,WALK
1759223410.98920,-4.483292,15.517569,9.074922,1.358216,1.084144,0.551205,33.12,3,WALK
1759223411.00931,-5.963807,16.438589,10.528801,0.393282,0.584366,0.110821,33.14,3,WALK
1759223411.02971,-2.244564,10.103681,4.018817,0.151692,0.354031,0.015327,33.16,3,WALK
1759223411.04966,0.852186,6.060473,1.351976,0.625346,0.820288,-0.009764,33.18,3,WALK
1759223411.06964,9.098714,15.105766,0.072125,1.219384,0.933015,0.641419,33.20,3,WALK
1759223411.08921,8.80752,24.02312,3.940557,0.359149,1.358171,1.277974,33.22,3,WALK
1759223411.10967,-4.032883,16.79727,8.170363,-0.67125,1.601475,0.206248,33.24,3,WALK
1759223411.12887,2.908955,3.318513,-6.25994,-0.19077,0.99447,0.47975,33.26,3,WALK
1759223411.14907,1.862839,-1.18932,-5.053561,-0.009548,1.233682,0.617335,33.28,3,WALK
1759223411.16888,3.541174,1.458368,-4.725705,0.197807,1.682395,1.154624,33.30,3,WALK
1759223411.18923,6.442647,11.991509,-3.902998,0.50584,1.912335,1.854807,33.32,3,WALK
1759223411.20964,5.597643,19.876513,-3.301305,1.455933,0.366184,1.680205,33.34,3,WALK
1759223411.22968,-1.245434,12.994829,-1.640327,2.092853,-1.159672,0.871128,33.36,3,WALK
1759223411.24966,-3.418321,7.552958,-0.834978,2.352347,0.661748,0.576052,33.38,3,WALK
1759223411.26961,-5.560982,6.141726,2.541295,0.958789,2.691108,-0.059129,33.40,3,WALK
1759223411.28923,-2.437447,9.669432,0.916979,0.84847,1.700538,-0.373205,33.42,3,WALK
1759223411.30964,-0.245555,11.956493,-1.249923,1.267703,1.274257,0.02239,33.44,3,WALK
1759223411.32963,-1.780987,9.964967,1.257106,1.308839,1.152666,0.028431,33.46,3,WALK
1759223411.34969,-1.186776,8.819341,4.049642,0.766849,0.95492,0.034689,33.48,3,WALK
1759223411.36918,0.185251,8.878149,3.118148,0.300382,0.582711,0.16937,33.50,3,WALK
1759223411.38921,0.828094,9.292495,0.361076,0.333644,0.42076,0.398907,33.52,3,WALK
1759223411.40962,-0.534655,8.834754,0.607529,0.401672,0.362506,0.608122,33.54,3,WALK
1759223411.42962,-1.913865,9.260922,0.676063,0.515317,0.283566,0.543616,33.56,3,WALK
1759223411.44962,-0.444124,10.483461,1.123329,0.531063,0.053622,0.5986,33.58,3,WALK
1759223411.46915,0.193781,9.617059,1.690905,0.408424,-0.034505,0.675761,33.60,3,WALK
1759223411.48923,-0.023194,9.03033,0.440982,0.394939,-0.020794,0.655354,33.62,3,WALK
1759223411.50961,-0.791583,9.514707,-0.158915,0.456214,-0.016238,0.804365,33.64,3,WALK
1759223411.52969,-2.73762,10.021979,1.226729,0.169479,-0.306997,0.847143,33.66,3,WALK
1759223411.54960,-3.619734,10.681731,1.138742,-0.063008,-0.482834,0.810632,33.68,3,WALK
1759223411.56915,-4.057723,11.276839,0.612167,-0.081385,-0.536273,0.783296,33.70,3,WALK
1759223411.58926,-3.903895,11.820922,2.677466,-0.314523,-0.630173,0.562045,33.72,3,WALK
1759223411.60959,-2.623147,14.187291,4.62051,-1.086565,-1.016015,0.045073,33.74,3,WALK
1759223411.62915,2.329259,17.360207,2.543839,-1.708599,-0.320541,-0.249937,33.76,3,WALK
1759223411.64960,1.867777,13.855993,5.131672,-2.70025,-0.457288,-0.316157,33.78,3,WALK
1759223411.66957,-0.522983,11.28477,1.773655,-3.118976,-0.417124,-0.755335,33.80,3,WALK
1759223411.68926,2.050484,11.254244,-1.347337,-2.78208,0.452942,-1.290446,33.82,3,WALK
1759223411.70959,5.085135,12.178107,-1.462708,-1.756797,0.338421,-1.437415,33.84,3,WALK
1759223411.72958,4.610634,11.414506,3.06368,-1.627758,-0.10645,-1.112917,33.86,3,WALK
1759223411.74910,2.048988,9.590723,3.050063,-1.9688,-0.40906,-0.860471,33.88,3,WALK
1759223411.76955,0.195427,9.167997,-0.292542,-1.579229,-1.006692,-0.67333,33.90,3,WALK
1759223411.78926,-1.505953,9.172336,-0.862362,-1.387126,-0.7919,-0.742358,33.92,3,WALK
1759223411.80958,-1.375618,9.849895,0.298377,-1.509962,-0.414675,-1.016127,33.94,3,WALK
1759223411.82957,-0.718111,9.439589,0.934487,-1.384134,-1.080207,-1.455875,33.96,3,WALK
1759223411.84957,0.371849,8.166772,0.428113,-1.135588,-1.445169,-1.711915,33.98,3,WALK
1759223411.86954,1.082478,6.431873,0.552312,-0.862753,-1.887322,-1.784179,34.00,3,WALK
1759223411.88927,1.858499,5.510255,0.495749,-0.672755,-2.224932,-1.757847,34.02,3,WALK
1759223411.90931,2.716222,5.613655,-1.070358,-0.402764,-2.11581,-1.627874,34.04,3,WALK
1759223411.92955,3.587262,6.343288,-1.235857,0.044164,-1.929656,-1.37688,34.06,3,WALK
1759223411.94955,4.382437,7.051223,-0.883909,0.511142,-1.851443,-0.954924,34.08,3,WALK
1759223411.96953,4.114286,6.374712,-0.359878,0.962745,-1.691798,-0.585716,34.10,3,WALK
1759223411.98927,3.921403,4.485836,0.862661,1.559251,-1.46491,-0.137924,34.12,3,WALK
1759223412.00880,4.078971,3.934721,3.324349,2.028064,-1.213868,0.395413,34.14,3,WALK
1759223412.02863,2.79957,6.586449,6.685509,1.949088,-1.056368,0.708122,34.16,3,WALK
1759223412.04955,-0.147842,11.691485,10.026917,1.119942,-0.618616,0.699469,34.18,3,WALK
1759223412.06955,-3.239355,17.771111,10.73141,0.082942,-0.205917,0.279998,34.20,3,WALK
1759223412.08929,-2.856133,15.12477,9.452458,-0.578755,-0.776122,-0.048994,34.22,3,WALK
1759223412.10955,0.650325,12.518682,2.385074,-0.260257,-0.284996,-0.370046,34.24,3,WALK
1759223412.12954,6.31755,20.433015,1.06931,-0.025303,0.412371,-0.238463,34.26,3,WALK
1759223412.14953,2.028038,15.260342,1.874211,-0.112443,1.21174,-0.625186,34.28,3,WALK
1759223412.16951,3.542521,2.505382,-2.388815,0.538667,0.611895,0.013837,34.30,3,WALK
1759223412.18935,5.116559,-0.123152,-2.074276,0.402164,-0.308163,0.776489,34.32,3,WALK
1759223412.20953,4.770896,2.673425,-4.596119,0.155631,-0.546785,1.740996,34.34,3,WALK
1759223412.22961,4.512472,10.045322,-5.583578,0.402083,-0.417657,2.395786,34.36,3,WALK
1759223412.24915,1.177498,18.417097,-5.097854,1.380584,-1.189314,1.48041,34.38,3,WALK
1759223412.26860,-3.360412,16.988507,-3.583521,2.605917,-1.639319,0.017646,34.40,3,WALK
1759223412.28930,-3.766528,7.68015,0.21877,2.732591,0.387492,-0.613652,34.42,3,WALK
1759223412.30951,-0.021099,5.41733,5.807884,1.513032,1.376772,-1.019279,34.44,3,WALK
1759223412.32960,3.369091,8.312369,1.708861,0.955096,1.13633,-0.952555,34.46,3,WALK
1759223412.34952,4.728997,9.83568,-0.959776,0.944854,0.796771,-0.255394,34.48,3,WALK
1759223412.36948,2.726098,9.500491,-0.802506,1.054036,0.007859,0.404065,34.50,3,WALK
1759223412.38931,-0.70614,8.919,-1.02397,1.263462,-0.126101,0.481068,34.52,3,WALK
1759223412.40950,-1.839495,9.029732,0.118214,1.387153,-0.187405,0.250874,34.54,3,WALK
1759223412.42951,-1.319654,9.832537,1.002722,1.144411,-0.1802,0.137923,34.56,3,WALK
1759223412.44949,-0.295385,9.520244,0.464475,0.897278,0.001703,0.089465,34.58,3,WALK
1759223412.46904,1.192462,8.992023,-0.129287,0.937513,-0.000787,0.17169,34.60,3,WALK
1759223412.48932,1.453131,8.901193,-0.089483,1.033276,-0.158172,0.388219,34.62,3,WALK
1759223412.50949,0.664092,9.466673,0.203956,1.099404,-0.222972,0.574518,34.64,3,WALK
1759223412.52950,0.169539,10.558729,0.546477,1.120848,-0.022299,0.625886,34.66,3,WALK
1759223412.54948,-0.116867,11.016021,1.592294,0.893743,0.278262,0.667896,34.68,3,WALK
1759223412.56946,-1.10253,11.560702,2.508525,0.517858,0.085073,0.66822,34.70,3,WALK
1759223412.58932,-2.169296,10.770915,1.731756,0.233216,0.079306,0.591429,34.72,3,WALK
1759223412.60947,-1.964143,10.310031,0.990302,0.096113,0.111623,0.484569,34.74,3,WALK
1759223412.62949,-1.236007,11.126154,1.294814,-0.035688,-0.021059,0.38854,34.76,3,WALK
1759223412.64949,-1.253215,12.61864,2.761113,-0.55343,-0.239637,0.352152,34.78,3,WALK
1759223412.66944,-2.202965,15.927427,4.251653,-1.327855,-0.716176,-0.027604,34.80,3,WALK
1759223412.68940,-1.625364,16.568474,4.007445,-2.504637,-0.906691,-0.408672,34.82,3,WALK
1759223412.70948,0.455946,13.231406,2.073977,-3.422251,-0.527446,-0.769001,34.84,3,WALK
1759223412.72948,3.91452,10.060585,-1.419462,-3.502746,0.508938,-1.100628,34.86,3,WALK
1759223412.74917,8.5268,12.641834,-0.943315,-3.036607,0.943139,-1.236353,34.88,3,WALK
1759223412.76943,9.386318,16.543036,-0.861314,-2.515944,1.218219,-1.148895,34.90,3,WALK
1759223412.78934,6.798934,13.768156,0.812831,-2.389254,1.452763,-0.897528,34.92,3,WALK
1759223412.80944,3.769222,9.458144,0.199766,-2.249359,1.56892,-0.559391,34.94,3,WALK
1759223412.82944,0.914435,8.443751,-0.168941,-2.076948,0.783774,-0.264224,34.96,3,WALK
1759223412.84944,-1.726818,9.788843,-0.257826,-2.032974,0.387561,-0.361831,34.98,3,WALK
1759223412.86943,-1.938256,10.47538,1.399561,-2.178586,-0.14432,-0.663607,35.00,3,WALK
1759223412.88934,-0.069581,9.008782,0.502184,-1.969635,-0.772076,-0.941328,35.02,3,WALK
1759223412.90945,2.402432,5.378574,-0.091429,-1.610747,-0.902045,-0.859132,35.04,3,WALK
1759223412.92944,3.233519,3.329886,0.102202,-1.358985,-0.966899,-0.759396,35.06,3,WALK
1759223412.94943,2.886659,3.610456,-0.556951,-0.878087,-0.736696,-0.910864,35.08,3,WALK
1759223412.96941,2.565088,4.96737,-1.107468,-0.206502,-0.38254,-0.913772,35.10,3,WALK
1759223412.98936,2.084003,5.670367,-0.438289,0.35933,-0.343929,-0.696591,35.12,3,WALK
1759223413.00929,1.78398,5.354482,-0.057461,0.839905,-0.346074,-0.405642,35.14,3,WALK
1759223413.02946,2.198027,4.226364,0.492008,1.437153,-0.325613,-0.087201,35.16,3,WALK
1759223413.04940,2.661305,3.690961,2.433257,1.985522,-0.400975,0.305062,35.18,3,WALK
1759223413.06940,2.322675,5.252579,5.217414,2.228582,-0.68583,0.688651,35.20,3,WALK
1759223413.08938,0.572813,9.388712,9.297433,1.768832,-0.673668,0.850725,35.22,3,WALK
1759223413.10940,-2.324919,16.519243,13.178284,0.700363,0.152836,0.433045,35.24,3,WALK
1759223413.12942,-1.543063,15.62441,10.606762,0.277901,0.28935,0.003456,35.26,3,WALK
1759223413.14941,-0.934038,8.722376,5.284153,0.11387,0.51574,-0.279141,35.28,3,WALK
