SamplingTime,AccelerationX,AccelerationY,AccelerationZ,GyroX,GyroY,GyroZ,Duration,Subject,Activity
1759223377.58876,-0.137517,-3.097498,-8.748862,-0.202577,-0.260176,0.005335,0.00,5,WALK
1759223377.60942,0.048034,-3.231274,-9.434801,-0.207764,-0.532491,0.06214,0.02,5,WALK
1759223377.62943,0.293439,-3.244891,-9.083152,-0.077104,-1.028684,0.081408,0.04,5,WALK
1759223377.64943,0.09083,-3.23711,-8.205677,0.179352,-1.139571,0.033237,0.06,5,WALK
1759223377.66924,-0.286406,-3.595043,-8.189367,0.315737,-1.07883,-0.107925,0.08,5,WALK
1759223377.68943,-0.55755,-3.400664,-8.282142,0.249121,-1.240252,-0.134839,0.10,5,WALK
1759223377.70943,-0.982072,-3.613,-7.878719,0.279499,-1.598209,0.051607,0.12,5,WALK
1759223377.72869,-1.121683,-3.125181,-7.800758,0.610255,-1.951236,0.305629,0.14,5,WALK
1759223377.74944,-1.09011,-2.814534,-6.811055,1.077848,-2.127937,0.384804,0.16,5,WALK
1759223377.76926,-1.202189,-2.778022,-5.676802,1.707856,-1.971884,0.372981,0.18,5,WALK
1759223377.78885,-1.009306,-2.847604,-5.860706,2.158044,-1.753995,0.538889,0.20,5,WALK
1759223377.80942,-1.121983,-3.423259,-7.647379,1.518602,-0.620558,0.81751,0.22,5,WALK
1759223377.82951,0.055665,-3.206285,-10.926837,0.009968,-0.766595,0.282706,0.24,5,WALK
1759223377.84943,-1.190966,-4.243722,-11.980735,-1.050806,-1.501676,0.139597,0.26,5,WALK
1759223377.86928,-2.744204,-4.786159,-10.41792,-1.097066,-2.484646,0.486729,0.28,5,WALK
1759223377.88886,-2.744354,-3.763984,-11.277887,-0.489364,-4.20037,0.549863,0.30,5,WALK
1759223377.98883,-9.022399,-3.940856,-3.021632,-2.11139,-4.568755,-1.427154,0.40,5,WALK
1759223378.00870,-12.292131,-5.63206,-3.774459,-1.747248,-4.386869,0.039827,0.42,5,WALK
1759223378.02910,-11.034277,-5.26036,-2.518251,-1.290142,-2.717058,0.705745,0.44,5,WALK
1759223378.04945,-9.196877,-5.021539,-2.001104,-1.03998,-1.06842,0.815736,0.46,5,WALK
1759223378.06904,-4.266318,-2.589329,-3.886837,-0.826409,0.364652,0.115605,0.48,5,WALK
1759223378.08945,-0.535852,2.083704,0.220715,0.421573,2.236632,-1.912388,0.50,5,WALK
1759223378.10941,-5.37618,-3.992631,-1.758092,0.916101,2.798009,-2.156144,0.52,5,WALK
1759223378.12942,-6.911013,-4.34802,-5.00044,0.089415,2.355801,-1.421696,0.54,5,WALK
1759223378.14948,-6.560561,-5.800851,-5.667674,-0.890775,2.134035,-0.415977,0.56,5,WALK
1759223378.16951,-5.515343,-4.492121,-6.244377,-1.409592,2.391601,-0.417219,0.58,5,WALK
1759223378.18945,-4.193743,-4.299537,-4.845116,-1.17089,3.277647,-1.1063,0.60,5,WALK
1759223378.20940,-2.489521,-3.680187,-6.885574,-0.51138,3.582544,-1.947258,0.62,5,WALK
1759223378.22943,-3.028815,-4.066252,-9.640253,-0.102515,3.00765,-2.315738,0.64,5,WALK
1759223378.24947,-3.11755,-5.953482,-10.010905,-0.172386,2.505666,-2.084285,0.66,5,WALK
1759223378.26943,-3.094655,-6.799682,-9.636512,-0.574904,2.366468,-1.330997,0.68,5,WALK
1759223378.28943,-3.062334,-6.782773,-10.064775,-0.932806,1.839599,-0.517601,0.70,5,WALK
1759223378.30846,-3.059341,-6.227019,-9.945364,-1.000306,1.040483,0.101304,0.72,5,WALK
1759223378.32944,-2.985121,-5.320515,-9.233388,-0.879297,0.455161,0.517572,0.74,5,WALK
1759223378.34942,-2.998588,-4.003404,-9.079262,-0.700481,0.160265,0.669203,0.76,5,WALK
1759223378.36944,-2.816329,-3.049016,-8.527847,-0.485887,0.115978,0.612583,0.78,5,WALK
1759223378.38881,-2.662652,-3.057545,-7.79986,-0.249459,-0.031167,0.473162,0.80,5,WALK
1759223378.40858,-2.296937,-3.455282,-8.337508,-0.367533,-0.146634,0.311651,0.82,5,WALK
1759223378.42944,-2.458247,-2.996942,-8.845528,-0.54762,-0.66626,0.273095,0.84,5,WALK
1759223378.44921,-3.736002,-3.353828,-8.874408,-0.920599,-0.172245,0.435959,0.86,5,WALK
1759223378.46944,-3.478476,-3.768174,-10.791415,-1.630518,-0.386514,0.50998,0.88,5,WALK
1759223378.48944,-3.916615,-3.907487,-9.222166,-1.929488,-0.56316,0.771009,0.90,5,WALK
1759223378.50883,-4.435408,-2.767248,-9.52982,-1.816621,-1.676955,0.998238,0.92,5,WALK
1759223378.52943,-4.850952,-2.386121,-9.589825,-2.033004,-1.414633,1.105864,0.94,5,WALK
1759223378.54940,-3.868431,-1.858798,-10.081534,-2.299202,-1.805506,1.009245,0.96,5,WALK
1759223378.56943,-4.639813,-0.940023,-8.377012,-2.207097,-1.761514,1.096134,0.98,5,WALK
1759223378.58935,-4.91784,0.073322,-7.547721,-1.870569,-1.537007,1.039719,1.00,5,WALK
1759223378.60940,-5.442469,-0.13617,-7.368006,-1.50404,-1.452209,0.729802,1.02,5,WALK
1759223378.62947,-6.844574,-1.745972,-10.979061,-1.38677,-3.398452,1.189611,1.04,5,WALK
1759223378.64940,-10.552444,-4.247014,-11.101913,-0.77151,-4.617671,2.938323,1.06,5,WALK
1759223378.66943,-7.403021,0.903661,-6.507141,-0.118247,-4.263178,3.222887,1.08,5,WALK
1759223378.68944,-4.865167,2.864064,-6.05748,-0.167368,-4.124218,2.249286,1.10,5,WALK
1759223378.70940,-6.360346,1.308431,-5.418677,-0.268481,-3.574921,1.720794,1.12,5,WALK
1759223378.72928,-7.527669,0.698658,-5.282058,-0.269852,-2.689539,1.642783,1.14,5,WALK
1759223378.74940,-4.157082,3.859303,-1.641225,-0.422318,-0.980975,0.872337,1.16,5,WALK
1759223378.76943,-5.050568,3.192069,-1.720084,-0.769091,0.419287,0.415172,1.18,5,WALK
1759223378.78945,-6.77589,2.896984,-2.816778,-1.079435,1.122152,0.362151,1.20,5,WALK
1759223378.80909,-8.529942,2.430115,-3.547908,-1.250953,1.057779,0.430827,1.22,5,WALK
1759223378.82943,-10.045771,2.467374,-4.315997,-1.302536,0.731534,0.529425,1.24,5,WALK
1759223378.84941,-10.679037,2.812888,-5.377676,-1.372853,0.060805,0.628654,1.26,5,WALK
1759223378.86954,-11.1694,3.1382,-5.924901,-1.409254,-0.613804,0.775619,1.28,5,WALK
1759223378.88943,-11.247062,3.142988,-5.702839,-1.407305,-1.010506,0.835106,1.30,5,WALK
1759223378.90940,-10.796652,3.505411,-5.759851,-1.457186,-1.229756,0.778958,1.32,5,WALK
1759223378.92954,-10.533589,4.081515,-6.067655,-1.651383,-1.379631,0.849019,1.34,5,WALK
1759223378.94927,-9.975292,4.3974,-5.891831,-1.81501,-1.490666,0.906915,1.36,5,WALK
1759223378.96948,-9.00564,4.347721,-5.292682,-1.823587,-1.494791,0.856291,1.38,5,WALK
1759223378.98943,-7.880664,3.957017,-5.096358,-1.793296,-1.231624,0.714098,1.40,5,WALK
1759223379.00941,-7.15582,2.574066,-7.786393,-1.647293,-1.919706,1.091142,1.42,5,WALK
1759223379.02940,-9.470564,1.382203,-4.801721,-0.749218,-2.183517,2.110569,1.44,5,WALK
1759223379.04942,-6.780978,4.28188,-3.737648,-0.034051,-1.727259,1.74008,1.46,5,WALK
1759223379.06954,-5.299715,6.818537,-2.136077,-0.063613,-0.927185,0.460046,1.48,5,WALK
1759223379.08942,-7.078607,7.679701,-2.092832,-0.473846,-0.595653,-0.318354,1.50,5,WALK
1759223379.10941,-7.876475,6.541258,-1.43293,-0.915213,-0.618436,-0.633025,1.52,5,WALK
1759223379.12940,-7.634361,5.174019,-0.049979,-1.152343,-0.165041,-0.52647,1.54,5,WALK
1759223379.14944,-7.504775,4.021211,-0.269497,-1.219327,-0.011405,-0.381975,1.56,5,WALK
1759223379.16954,-8.282142,3.074903,-0.183755,-1.058442,-0.211971,0.05769,1.58,5,WALK
1759223379.18941,-8.39856,4.173542,-0.582539,-1.124997,-0.563623,0.061979,1.60,5,WALK
1759223379.20941,-5.0374,1.297208,-1.241543,-0.332574,-0.843199,2.43055,1.62,5,WALK
1759223379.22928,-5.123741,4.225018,-0.702399,-0.621044,-0.012647,1.239993,1.64,5,WALK
1759223379.24942,-5.205144,4.860529,-0.727837,-0.279872,0.617441,-0.188313,1.66,5,WALK
1759223379.26943,-7.094618,4.274099,-1.206229,0.028408,0.83259,-0.25659,1.68,5,WALK
1759223379.28941,-8.718785,4.510077,-1.581071,-0.509594,1.211561,0.152431,1.70,5,WALK
1759223379.30939,-9.198523,5.449203,-1.319504,-0.468105,1.2276,0.68365,1.72,5,WALK
1759223379.32863,-7.385663,7.256526,-1.605013,0.046634,0.465424,0.628208,1.74,5,WALK
1759223379.34942,-6.963984,8.131756,-1.284938,0.136783,-0.031495,0.264199,1.76,5,WALK
1759223379.36953,-7.060201,11.315596,-2.034473,0.239552,-0.761967,-0.590635,1.78,5,WALK
1759223379.38942,-8.247127,8.866627,-1.048361,0.518628,-1.374429,-0.674603,1.80,5,WALK
1759223379.40926,-7.978527,7.579594,-1.172411,0.296015,-1.449677,-0.672793,1.82,5,WALK
1759223379.42943,-5.959916,6.781875,-0.201861,0.170674,-0.925717,-0.916025,1.84,5,WALK
1759223379.44942,-6.740276,5.244199,0.497695,0.370406,-0.466169,-0.901271,1.86,5,WALK
1759223379.46953,-7.42412,5.054758,0.307655,0.366881,-0.263218,-0.69601,1.88,5,WALK
1759223379.48935,-7.374291,4.511274,0.321122,0.390522,-0.257548,-0.409788,1.90,5,WALK
1759223379.50941,-6.974309,5.074062,-0.558747,0.434482,-0.57352,0.023693,1.92,5,WALK
1759223379.52942,-6.571934,6.675633,-0.369306,-0.132099,-0.535237,0.480754,1.94,5,WALK
1759223379.54942,-5.381567,5.657798,0.896329,-0.186621,-0.170188,0.297097,1.96,5,WALK
1759223379.56940,-6.084415,4.999542,0.211588,0.266118,-0.206513,0.066646,1.98,5,WALK
1759223379.58941,-7.285855,3.118747,-0.129586,0.288308,-0.213352,0.178265,2.00,5,WALK
1759223379.60940,-7.124396,3.900753,-0.228796,0.08835,-0.345008,-0.109407,2.02,5,WALK
1759223379.62943,-7.63466,3.215263,1.356166,0.195114,-0.194747,-0.160034,2.04,5,WALK
1759223379.64947,-8.023269,3.330783,0.335787,0.002417,-0.176424,0.258316,2.06,5,WALK
1759223379.66940,-8.207323,3.661782,0.345513,0.238625,-0.13628,0.310601,2.08,5,WALK
1759223379.68941,-7.963713,3.825186,0.469264,0.003623,0.505985,-0.010365,2.10,5,WALK
1759223379.70857,-8.759037,5.198261,-0.972046,0.108366,0.483196,-0.657364,2.12,5,WALK
1759223379.72889,-10.156353,6.001665,-1.645565,0.192953,0.236054,-1.198607,2.14,5,WALK
1759223379.74932,-10.891672,6.274305,-2.069189,-0.101841,0.167266,-1.273304,2.16,5,WALK
1759223379.76942,-10.575039,4.56694,-2.198027,-0.183517,0.074661,-0.740135,2.18,5,WALK
1759223379.78941,-10.136751,2.397344,-1.759738,-0.059585,0.207308,0.019057,2.20,5,WALK
1759223379.80940,-8.843882,5.503521,-1.405995,-0.205141,0.31737,0.21034,2.22,5,WALK
1759223379.82952,-8.349778,5.469404,-0.336236,-0.426066,0.510412,0.212925,2.24,5,WALK
1759223379.84870,-7.897573,4.420145,0.201263,-0.326363,0.589213,0.342068,2.26,5,WALK
1759223379.86883,-7.496096,5.111321,-0.275632,-0.055966,0.449594,0.163768,2.28,5,WALK
1759223379.88937,-8.32838,4.056975,-0.017508,-0.162926,0.567984,0.038773,2.30,5,WALK
1759223379.90855,-8.850765,4.959888,-1.088015,-0.18688,0.341251,-0.306867,2.32,5,WALK
1759223379.92952,-9.775825,4.53776,-0.717512,-0.142049,0.173326,-0.58549,2.34,5,WALK
1759223379.94941,-10.400562,4.729745,-1.239598,-0.049163,-0.137803,-0.869109,2.36,5,WALK
1759223379.96944,-10.34759,3.539977,-2.011728,-0.147258,-0.333401,-0.89819,2.38,5,WALK
1759223379.98898,-9.015067,4.569334,-1.792958,-0.147296,-0.184641,-0.921726,2.40,5,WALK
1759223380.00948,-7.274333,5.742193,-0.94975,-0.266664,0.150253,-0.830689,2.42,5,WALK
1759223380.02948,-6.703465,5.43409,0.489165,-0.131563,0.449914,-0.525178,2.44,5,WALK
1759223380.04945,-5.604976,6.012589,0.567426,-0.113522,0.577334,-0.576657,2.46,5,WALK
1759223380.06946,-5.783044,8.034641,0.761805,-0.008216,0.379046,-1.290826,2.48,5,WALK
1759223380.08884,-8.672846,5.74758,2.296339,0.271386,0.321738,-1.024104,2.50,5,WALK
1759223380.10887,-10.452935,5.303606,0.328903,0.144201,-0.131562,-0.710938,2.52,5,WALK
1759223380.12940,-11.226711,3.830423,-0.688483,-0.092985,-0.350875,-0.291264,2.54,5,WALK
1759223380.14948,-9.910798,4.473416,-0.845303,-0.546959,-0.168144,0.077481,2.56,5,WALK
1759223380.16950,-9.834632,7.332841,-0.166397,-1.431414,0.037029,0.318646,2.58,5,WALK
1759223380.18940,-9.321076,6.985832,0.992696,-4.522091,3.111282,-0.563636,2.60,5,WALK
1759223380.20938,-7.334786,6.415413,-2.445677,-2.363158,1.70209,-1.29263,2.62,5,WALK
1759223380.22850,-9.551967,0.041001,-6.510732,0.34222,-0.309275,-0.469357,2.64,5,WALK
1759223380.24939,-9.597157,-0.339079,-4.803367,0.270939,0.637144,-0.315663,2.66,5,WALK
1759223380.26912,-6.842479,5.672163,-4.000262,0.409616,0.61306,-1.125842,2.68,5,WALK
1759223380.28920,-7.1229,2.2712,-0.284162,0.496409,0.783772,-1.040442,2.70,5,WALK
1759223380.30938,-6.361992,1.998709,-1.219846,0.253401,0.946354,-0.64112,2.72,5,WALK
1759223380.32940,-7.286154,1.873912,-0.502184,0.264031,1.269222,-0.50361,2.74,5,WALK
1759223380.34940,-7.709329,2.002151,-0.718859,0.446604,1.317894,-0.394267,2.76,5,WALK
1759223380.36939,-9.486276,1.633444,-2.667141,0.60948,0.642711,0.235908,2.78,5,WALK
1759223380.38939,-10.864438,1.558925,-3.680337,0.852058,-0.302663,0.942121,2.80,5,WALK
1759223380.40939,-10.699837,3.573645,-5.266944,1.209309,-1.953974,1.226643,2.82,5,WALK
1759223380.42939,-9.792135,2.71263,-2.825457,1.481595,-2.279899,1.75961,2.84,5,WALK
1759223380.44947,-7.212682,4.90108,-0.273238,0.8917,-1.697352,2.005033,2.86,5,WALK
1759223380.46941,-5.494543,6.421249,-0.697311,0.015932,-1.984635,2.187706,2.88,5,WALK
1759223380.48907,-8.166772,1.198597,1.467047,-0.413596,-1.20871,3.263262,2.90,5,WALK
1759223380.50938,-8.162582,3.403807,3.547908,-0.287899,-0.095942,3.470571,2.92,5,WALK
1759223380.52932,-9.228301,5.761646,2.250849,0.030295,0.320394,3.436535,2.94,5,WALK
1759223380.54900,-11.125257,5.339818,0.13213,0.100482,0.842587,3.570254,2.96,5,WALK
1759223380.56945,-9.017312,3.459771,0.771831,0.130879,1.382661,3.572485,2.98,5,WALK
1759223380.58841,-7.519589,4.660762,-0.479589,0.055483,1.568351,3.45392,3.00,5,WALK
1759223380.60939,-5.344307,6.985682,-2.838925,-0.386743,2.264374,2.986609,3.02,5,WALK
1759223380.62939,-2.524835,8.830714,-6.699724,-1.179504,1.02121,1.704016,3.04,5,WALK
1759223380.64922,-0.303914,11.151443,-7.805846,-1.5964,-0.300445,-0.410829,3.06,5,WALK
1759223380.66948,-3.583521,8.885631,-0.616208,-1.05151,0.036523,-0.92322,3.08,5,WALK
1759223380.68939,-9.657312,8.457218,0.173879,-0.19603,-0.430444,0.687627,3.10,5,WALK
1759223380.70944,-5.095609,8.742427,0.087388,-0.105132,0.282309,0.945292,3.12,5,WALK
1759223380.72939,-5.264101,8.825925,-1.245135,-0.315783,0.124198,1.038132,3.14,5,WALK
1759223380.74940,-4.867113,8.322694,0.327257,-0.212581,0.70873,1.106008,3.16,5,WALK
1759223380.76940,-5.54123,8.114398,-0.23104,-0.134876,0.814387,1.3022,3.18,5,WALK
1759223380.78926,-5.548263,8.100781,-2.108992,-0.325725,0.189597,1.597125,3.20,5,WALK
1759223380.80905,-4.285471,8.406341,-2.215235,-0.59852,0.195996,1.720591,3.22,5,WALK
1759223380.82899,-3.094206,9.508572,-1.389535,-0.742363,0.739164,1.390656,3.24,5,WALK
1759223380.84945,-2.96896,10.040833,-0.863559,-0.557239,0.904402,0.825639,3.26,5,WALK
1759223380.86943,-3.644125,10.356419,-0.464026,-0.196054,0.617428,0.373747,3.28,5,WALK
1759223380.88873,-4.206014,9.840169,-0.411354,0.087452,0.153033,0.19957,3.30,5,WALK
1759223380.90938,-4.021211,9.567529,-0.71018,0.161084,-0.270723,0.1401,3.32,5,WALK
1759223380.92934,-3.543418,9.326912,-0.884807,0.073656,-0.3381,0.093968,3.34,5,WALK
1759223380.94901,-3.553893,9.189993,-1.140239,-0.085636,-0.249101,0.111748,3.36,5,WALK
1759223380.96940,-3.781941,8.903587,-1.053748,-0.161435,-0.180088,0.196681,3.38,5,WALK
1759223380.98873,-4.035876,8.453178,-1.016937,-0.165029,-0.214371,0.275421,3.40,5,WALK
1759223381.00939,-4.159925,8.173804,-1.240945,-0.204461,-0.395393,0.445912,3.42,5,WALK
1759223381.02943,-3.144335,8.459463,-1.556231,-0.362678,-0.639862,0.556606,3.44,5,WALK
1759223381.04917,-2.995446,7.984812,-0.8257,-0.388227,-0.553184,0.727694,3.46,5,WALK
1759223381.06932,-3.512294,7.043143,-0.172981,-0.251234,-0.421628,1.167181,3.48,5,WALK
1759223381.08938,-3.815909,6.099977,-0.679654,-0.248243,-0.462964,1.804531,3.50,5,WALK
1759223381.10939,-3.937414,4.969614,0.230143,-0.1494,0.016119,2.525692,3.52,5,WALK
1759223381.12939,-2.86167,4.181024,0.077662,-0.142524,0.311956,3.10987,3.54,5,WALK
1759223381.14939,-0.600196,3.717148,-0.457592,-0.349101,0.563712,3.186187,3.56,5,WALK
1759223381.16940,0.323217,2.259079,0.536301,-0.405417,1.304197,3.0004,3.58,5,WALK
1759223381.18888,0.824354,1.782184,0.204854,-0.214272,1.940963,2.696143,3.60,5,WALK
1759223381.20937,0.798915,1.646612,-0.11133,0.008976,2.25309,2.418977,3.62,5,WALK
1759223381.22847,-1.212962,6.658724,0.137667,-0.435997,2.722076,2.443702,3.64,5,WALK
1759223381.24916,-5.440823,24.565706,1.502661,-1.724946,3.434016,3.832507,3.66,5,WALK
1759223381.28939,8.178443,20.233847,3.858256,-1.086591,2.602592,1.788469,3.70,5,WALK
1759223381.30875,6.455067,8.208221,2.682853,1.426835,0.428366,0.517419,3.72,5,WALK
1759223381.32939,4.311957,5.259163,0.826748,2.026086,-1.316845,0.563289,3.74,5,WALK
1759223381.34939,5.76434,5.291784,0.339827,1.590494,-1.566219,1.017021,3.76,5,WALK
1759223381.36939,11.063606,8.22917,-1.371578,0.474557,-0.492401,0.14464,3.78,5,WALK
1759223381.38842,7.876325,8.368932,-0.936133,-0.488852,0.276698,-0.294873,3.80,5,WALK
1759223381.40938,4.468777,9.205705,0.319925,-0.89304,0.475857,-0.361542,3.82,5,WALK
1759223381.42948,3.122338,9.637709,1.35003,-0.937304,0.491267,-0.627924,3.84,5,WALK
1759223381.44939,2.301277,9.172336,1.30873,-0.797021,0.539888,-0.862244,3.86,5,WALK
1759223381.46942,1.660828,8.872762,0.555904,-0.583556,0.425086,-0.849246,3.88,5,WALK
1759223381.48863,1.344644,9.287408,0.174777,-0.443049,-0.130162,-0.529313,3.90,5,WALK
1759223381.50939,1.308431,9.750835,0.663942,-0.376072,-0.79527,-0.253495,3.92,5,WALK
1759223381.52943,1.779939,9.992201,2.104503,-0.100781,-0.89703,-0.253498,3.94,5,WALK
1759223381.54939,1.999009,9.599552,1.732803,0.076717,-0.873114,-0.183383,3.96,5,WALK
1759223381.56945,2.3535,9.737517,1.01559,0.046885,-0.499623,-0.094366,3.98,5,WALK
1759223381.58907,2.446425,9.244761,0.917129,-0.052622,0.04022,-0.045782,4.00,5,WALK
1759223381.60939,2.358887,9.423428,0.896778,-0.227626,0.271495,-0.084954,4.02,5,WALK
1759223381.62941,2.18037,9.73228,1.090708,-0.254817,0.343025,-0.116289,4.04,5,WALK
1759223381.64939,1.856554,9.634567,0.878373,-0.122138,0.363553,-0.04528,4.06,5,WALK
1759223381.66942,1.47393,9.90556,0.348506,0.055599,0.359226,-0.026245,4.08,5,WALK
1759223381.68938,1.02801,10.019584,-0.365415,0.113462,0.093464,-0.078747,4.10,5,WALK
1759223381.70938,0.722001,10.051756,-0.405368,0.06676,-0.147702,-0.167324,4.12,5,WALK
1759223381.72943,0.46642,10.022128,-0.096516,0.057463,-0.146259,-0.173634,4.14,5,WALK
1759223381.74939,0.354641,9.944466,0.339079,0.16129,0.191097,-0.116147,4.16,5,WALK
1759223381.76943,0.269647,10.0956,0.518494,0.310232,0.609041,-0.026104,4.18,5,WALK
1759223381.78939,0.299275,10.531345,0.192883,0.469738,0.829667,0.047777,4.20,5,WALK
1759223381.80937,0.972196,10.511892,-0.600496,0.695032,0.713753,0.023266,4.22,5,WALK
1759223381.82944,1.497723,10.991032,-1.392079,0.895292,0.491707,0.010527,4.24,5,WALK
1759223381.84946,1.661726,11.693281,-1.977461,1.343898,0.323032,0.148742,4.26,5,WALK
1759223381.86915,1.579575,12.293028,-2.62614,2.147463,0.195304,0.424875,4.28,5,WALK
1759223381.88938,1.372326,13.201478,-4.600159,3.059372,-0.911585,0.56027,4.30,5,WALK
1759223381.90944,1.413477,12.904597,-5.705233,3.144839,-2.209059,0.937322,4.32,5,WALK
1759223381.92942,4.651186,11.262474,-2.946514,2.404664,-2.283154,0.873517,4.34,5,WALK
1759223381.94904,9.120711,10.514586,6.328324,1.026947,-0.22766,-0.602947,4.36,5,WALK
1759223381.96940,5.708525,8.128614,6.291513,1.289896,0.504753,-1.224612,4.38,5,WALK
1759223381.98940,1.84144,7.543082,0.941819,2.649303,1.054295,-0.398201,4.40,5,WALK
1759223382.00938,3.641431,8.960898,-5.082142,2.168299,1.024329,0.019756,4.42,5,WALK
1759223382.02940,5.060145,8.64621,-4.278139,1.100882,0.682999,-0.094958,4.44,5,WALK
1759223382.04939,3.34874,6.842479,-2.357989,0.45504,-0.29098,-0.318051,4.46,5,WALK
1759223382.06944,1.572392,5.737106,-0.21458,0.353013,-0.274647,-0.177083,4.48,5,WALK
1759223382.08937,1.699584,6.616227,-1.092055,0.260556,-0.029426,-0.119256,4.50,5,WALK
1759223382.10936,1.893215,7.397185,-1.183035,0.170231,0.341419,-0.132069,4.52,5,WALK
1759223382.12939,2.179472,7.217919,-1.291672,0.142652,0.701736,-0.099399,4.54,5,WALK
1759223382.14924,2.426374,6.425289,-2.818873,-0.076965,0.78456,-0.058332,4.56,5,WALK
1759223382.16939,2.821417,5.387702,-4.083012,-0.503992,0.5839,-0.055655,4.58,5,WALK
1759223382.18940,3.472191,5.053561,-4.527435,-0.875233,0.093822,-0.009954,4.60,5,WALK
1759223382.20938,3.095104,5.771522,-4.495862,-0.977703,0.077587,-0.089937,4.62,5,WALK
1759223382.22940,1.618331,7.43235,-5.162497,-0.937721,0.257738,-0.113474,4.64,5,WALK
1759223382.24939,0.27653,9.114426,-6.438308,-0.755258,0.1219,-0.0848,4.66,5,WALK
1759223382.26940,-0.059705,11.20651,-6.559813,-0.411528,0.001998,-0.071288,4.68,5,WALK
1759223382.28942,0.335787,11.989563,-5.523723,-0.024311,0.150199,-0.175181,4.70,5,WALK
1759223382.30936,0.519991,11.542446,-4.533271,0.271272,0.590081,-0.261246,4.72,5,WALK
1759223382.32939,0.919972,10.662128,-4.147057,0.448012,0.888102,-0.289138,4.74,5,WALK
1759223382.34939,1.657386,9.593716,-3.842993,0.481274,1.064797,-0.352651,4.76,5,WALK
1759223382.36940,2.14311,8.442853,-4.736629,0.354806,1.008622,-0.425234,4.78,5,WALK
1759223382.38941,2.181567,7.76679,-5.719448,0.09285,0.762269,-0.474695,4.80,5,WALK
1759223382.40938,2.418892,8.098387,-5.209184,-0.305459,0.464774,-0.430418,4.82,5,WALK
1759223382.42939,4.332757,10.896012,-3.674052,-0.679966,-0.064161,-0.244794,4.84,5,WALK
1759223382.44939,6.465691,13.769503,-1.522563,-0.718758,-0.255585,-0.030754,4.86,5,WALK
1759223382.46945,5.900061,12.958317,-0.373944,-0.451789,-0.176935,-0.171791,4.88,5,WALK
1759223382.48939,3.05156,9.535656,-2.659808,-0.018549,-1.499889,-0.478431,4.90,5,WALK
1759223382.50936,1.916858,7.001095,-3.315969,-0.272779,-2.885635,-0.411348,4.92,5,WALK
1759223382.52915,3.504662,4.914847,-1.368735,-1.41864,-2.894467,-0.241949,4.94,5,WALK
1759223382.54879,4.832696,4.966472,0.971597,-2.051451,-2.854362,-0.161072,4.96,5,WALK
1759223382.56951,4.407426,6.034885,2.03148,-2.134431,-2.207094,-0.068189,4.98,5,WALK
1759223382.58939,4.094833,8.098387,3.34455,-1.862387,-1.34841,0.090526,5.00,5,WALK
1759223382.60935,3.78658,9.427169,4.402638,-1.458381,-0.967224,0.299078,5.02,5,WALK
1759223382.62939,3.569156,11.328315,5.449951,-0.76668,-0.450377,0.358052,5.04,5,WALK
1759223382.64939,2.609381,11.864616,4.795137,-0.193303,0.192673,0.143909,5.06,5,WALK
1759223382.66939,-1.429937,12.632556,-4.129998,-0.381795,1.172438,-0.070182,5.08,5,WALK
1759223382.68939,-2.086098,11.625345,-6.357354,-1.241113,0.650529,-0.088852,5.10,5,WALK
1759223382.70944,0.895132,10.841095,1.100435,-0.751879,-0.000863,-0.251349,5.12,5,WALK
1759223382.72939,1.578677,9.12939,2.534711,-0.324198,-0.448747,-0.240271,5.14,5,WALK
1759223382.74939,1.770811,8.946683,1.112705,-0.523544,-0.652229,-0.262905,5.16,5,WALK
1759223382.76939,1.262792,8.508993,-0.360926,-0.997162,-0.553108,-0.164351,5.18,5,WALK
1759223382.78945,0.885855,8.775797,0.052822,-1.143858,-0.323868,-0.17202,5.20,5,WALK
1759223382.80937,0.506224,9.517849,0.807744,-0.975453,-0.341899,-0.2584,5.22,5,WALK
1759223382.82938,0.122104,9.778817,0.388758,-0.89359,-0.7203,-0.130668,5.24,5,WALK
1759223382.84939,0.197671,9.532813,-0.170886,-0.965111,-1.142908,-0.057781,5.26,5,WALK
1759223382.86939,0.785747,9.222465,-0.715866,-1.083575,-1.3427,-0.16154,5.28,5,WALK
1759223382.88939,1.310376,9.067889,-1.250671,-1.127305,-1.325802,-0.176838,5.30,5,WALK
1759223382.90936,1.85805,9.419388,-0.591517,-0.831013,-1.181636,-0.044207,5.32,5,WALK
1759223382.92939,1.546954,9.586234,0.42512,-0.337804,-0.937193,0.187589,5.34,5,WALK
1759223382.94939,0.824653,9.525481,0.463278,-0.090904,-0.658406,0.331419,5.36,5,WALK
1759223382.96939,0.33444,9.73647,-0.007632,-0.122448,-0.490064,0.292078,5.38,5,WALK
1759223382.98938,0.488716,9.854684,0.310797,-0.183219,-0.540951,0.157388,5.40,5,WALK
1759223383.00937,0.559345,9.544485,1.555782,-0.183394,-0.389879,0.032432,5.42,5,WALK
1759223383.02939,0.430058,9.389011,2.051532,-0.259445,-0.044417,-0.015278,5.44,5,WALK
1759223383.04939,0.374543,9.790639,1.926584,-0.420675,0.177689,-0.073178,5.46,5,WALK
1759223383.06939,0.381726,10.103531,1.401805,-0.505443,-0.02779,-0.132,5.48,5,WALK
1759223383.08938,1.006762,10.619182,0.224007,-0.63404,-0.670214,-0.206535,5.50,5,WALK
1759223383.10935,1.836652,11.134085,-1.341501,-0.878594,-1.387779,-0.248856,5.52,5,WALK
1759223383.12940,1.892766,10.884639,-1.572841,-0.850543,-1.988872,-0.177333,5.54,5,WALK
1759223383.14938,1.431583,11.129596,-0.668132,-0.493701,-2.037809,-0.166499,5.56,5,WALK
1759223383.16940,-0.117615,12.238261,0.809839,-0.068127,-1.480406,-0.232915,5.58,5,WALK
1759223383.18940,-1.788618,13.406631,0.961721,0.227196,-0.721058,-0.376655,5.60,5,WALK
1759223383.20937,-2.788497,13.580061,0.388908,0.644209,-0.364641,-0.486931,5.62,5,WALK
1759223383.22939,-3.329287,12.381315,-0.533757,1.364846,-0.490595,-0.22052,5.64,5,WALK
1759223383.24943,1.294066,10.094403,-2.054225,2.112355,-0.46136,-0.159068,5.66,5,WALK
1759223383.26938,4.21589,8.92289,-2.990059,2.544217,-0.921297,-0.020271,5.68,5,WALK
1759223383.28938,4.695778,9.131036,-0.85054,2.642552,-0.731488,0.295565,5.70,5,WALK
1759223383.30854,5.612009,10.88015,0.592266,2.540856,-0.450478,0.52005,5.72,5,WALK
1759223383.32938,6.361693,13.330316,1.414225,2.499451,-0.710019,0.138901,5.74,5,WALK
1759223383.34892,4.127753,13.029844,1.101632,2.415586,-1.551214,-0.284607,5.76,5,WALK
1759223383.36937,1.485004,12.039692,0.445172,2.183065,-2.580918,-0.32257,5.78,5,WALK
1759223383.38938,0.78021,11.408521,-0.217423,1.99792,-3.419206,-0.064928,5.80,5,WALK
1759223383.40936,1.546654,10.093056,-1.645265,1.724517,-3.81521,0.075862,5.82,5,WALK
1759223383.42938,1.961599,9.438841,-1.720683,1.463749,-3.05368,0.001513,5.84,5,WALK
1759223383.44892,1.456124,8.95192,-1.148618,0.904855,-0.845166,-0.24121,5.86,5,WALK
1759223383.46860,0.961272,8.604312,0.739659,0.812931,1.15035,-0.371207,5.88,5,WALK
1759223383.48939,0.53271,7.854029,2.160468,1.580345,1.861006,-0.47478,5.90,5,WALK
1759223383.50935,0.367959,6.870461,0.586729,1.664532,1.491944,-0.333685,5.92,5,WALK
1759223383.52938,1.259051,6.782324,-1.546654,1.142679,0.753854,-0.241296,5.94,5,WALK
1759223383.54893,1.429638,6.162376,-2.112584,0.303233,0.773368,-0.303604,5.96,5,WALK
1759223383.56936,1.289876,5.803694,-1.45328,-0.271838,1.252525,-0.277755,5.98,5,WALK
1759223383.58938,0.314987,4.545093,-1.42051,-0.539323,1.459053,0.05548,6.00,5,WALK
1759223383.60936,0.699556,3.858855,-0.944961,-0.696029,1.757659,0.341737,6.02,5,WALK
1759223383.62938,1.710956,4.539257,-1.555333,-0.941937,2.120846,0.407377,6.04,5,WALK
1759223383.64892,1.760337,6.031593,-2.189497,-1.157189,2.780049,0.391769,6.06,5,WALK
1759223383.66938,2.173636,7.599046,-3.768473,-1.191139,3.424996,0.162697,6.08,5,WALK
1759223383.68941,2.950405,9.413253,-6.02456,-1.004658,3.397894,0.028692,6.10,5,WALK
1759223383.70935,3.557335,12.219107,-11.379491,-0.700183,1.653715,-0.338569,6.12,5,WALK
1759223383.72939,2.165555,14.22904,-12.999916,-0.484865,-0.322679,-0.762194,6.14,5,WALK
1759223383.74873,0.617105,12.505065,-5.056255,0.105412,0.296093,-0.609821,6.16,5,WALK
1759223383.76939,-0.266355,8.813954,-0.236876,0.659429,1.783697,-0.079821,6.18,5,WALK
1759223383.78867,3.27437,11.236737,0.497695,0.552812,1.634125,-0.162805,6.20,5,WALK
1759223383.80936,5.556942,15.430929,0.890793,0.23672,0.125558,-0.534678,6.22,5,WALK
1759223383.82938,5.096058,17.085173,-3.477129,-0.652479,-1.843,-0.460036,6.24,5,WALK
1759223383.84893,2.885761,8.154651,0.601394,-1.296355,-1.865289,-0.505703,6.26,5,WALK
1759223383.86939,2.561646,4.355801,1.584812,-1.315318,-1.534204,-0.333156,6.28,5,WALK
1759223383.88938,3.211373,4.383185,0.965911,-1.189982,-0.227281,-0.263857,6.30,5,WALK
1759223383.90934,4.458153,6.872257,1.361253,-0.775004,1.71085,0.258283,6.32,5,WALK
1759223383.92938,3.621829,10.642526,2.991705,-0.715868,2.41296,0.185313,6.34,5,WALK
1759223383.94893,2.067992,12.671911,2.392556,-0.871819,2.460283,-0.051805,6.36,5,WALK
1759223383.96937,0.19004,11.90427,1.277905,-0.967219,1.827102,-0.238778,6.38,5,WALK
1759223383.98935,-0.662745,10.386047,-0.151583,-0.945517,0.606571,-0.320111,6.40,5,WALK
1759223384.00937,0.312593,9.325116,-0.820014,-0.756579,-0.092123,-0.304596,6.42,5,WALK
1759223384.02938,2.335843,8.777293,-2.20925,-0.758731,-0.231691,-0.270452,6.44,5,WALK
1759223384.04894,3.017592,8.619425,-1.133056,-0.502928,-0.211053,-0.072028,6.46,5,WALK
1759223384.06937,1.944391,8.488343,1.285836,-0.258613,-0.22255,0.057637,6.48,5,WALK
1759223384.08937,1.073799,9.521291,1.733851,-0.519739,-0.015863,-0.032804,6.50,5,WALK
1759223384.10936,0.267702,10.223989,0.260669,-0.578668,-0.131586,-0.084724,6.52,5,WALK
1759223384.12937,0.15278,10.48391,0.59885,-0.350395,-0.240518,-0.088569,6.54,5,WALK
1759223384.14892,0.275184,9.652673,0.856825,-0.403971,-0.238789,-0.039866,6.56,5,WALK
1759223384.16936,0.323965,9.396493,0.335936,-0.631231,-0.505731,0.049526,6.58,5,WALK
1759223384.18936,1.083975,9.238775,1.08173,-0.641144,-0.524624,0.113339,6.60,5,WALK
1759223384.20936,1.608904,8.752453,1.246332,-0.561465,-0.546143,0.189498,6.62,5,WALK
1759223384.22936,1.793107,8.483405,1.384297,-0.541186,-0.327534,0.308525,6.64,5,WALK
1759223384.24893,1.319804,9.042451,1.292121,-0.559078,0.014769,0.456952,6.66,5,WALK
1759223384.26939,0.105644,9.479692,0.71826,-0.616999,-0.014123,0.507411,6.68,5,WALK
1759223384.28935,-0.452354,9.631873,0.909048,-0.598171,0.035096,0.452727,6.70,5,WALK
1759223384.30899,-0.120907,9.710882,0.481983,-0.642744,0.205932,0.363978,6.72,5,WALK
1759223384.32881,0.324414,9.985617,0.128688,-0.637722,0.333005,0.252342,6.74,5,WALK
1759223384.34880,-0.083199,9.985317,0.292841,-0.38485,0.33779,0.22515,6.76,5,WALK
1759223384.36939,-0.642843,10.053402,0.93314,-0.200702,0.669855,0.205224,6.78,5,WALK
1759223384.38937,-0.418387,10.441113,0.651522,-0.229913,1.076169,0.051241,6.80,5,WALK
1759223384.40936,0.044442,10.884939,-1.410783,-0.335084,0.952237,-0.136092,6.82,5,WALK
1759223384.42893,0.597054,10.685322,-2.352453,-0.221676,0.180267,-0.171144,6.84,5,WALK
1759223384.44892,0.736067,10.324995,-1.44116,-0.089122,-0.471095,-0.133363,6.86,5,WALK
1759223384.46937,0.807893,10.21142,-0.586579,-0.063979,-0.602678,-0.074952,6.88,5,WALK
1759223384.48936,0.439935,10.28968,-1.141286,0.127203,-0.363526,0.034108,6.90,5,WALK
1759223384.50934,0.139612,10.807277,-1.876456,0.522282,-0.161169,0.120929,6.92,5,WALK
1759223384.52861,0.16086,12.587066,-1.501763,0.89363,0.245357,-0.001829,6.94,5,WALK
1759223384.54857,-0.673968,14.52203,-0.915483,1.698361,0.29706,-0.15192,6.96,5,WALK
1759223384.56939,-1.790564,13.522451,-0.640299,2.452237,-0.155658,-0.060117,6.98,5,WALK
1759223384.58936,-0.075118,11.029189,-0.560692,2.727468,-0.35761,0.108183,7.00,5,WALK
1759223384.60936,2.994847,8.713697,-0.918775,3.020411,-0.459674,0.438324,7.02,5,WALK
1759223384.62904,6.035483,9.069834,-1.092355,2.8699,-0.865486,0.739927,7.04,5,WALK
1759223384.64886,7.922563,10.683676,-1.891719,2.231798,-2.461199,0.398232,7.06,5,WALK
1759223384.66953,7.879767,12.411691,-1.554884,1.786179,-3.34383,-0.514508,7.08,5,WALK
1759223384.68937,2.611326,11.876437,0.256928,1.46676,-2.561383,-0.870364,7.10,5,WALK
1759223384.70935,-0.541538,10.766575,2.257283,1.470453,-0.979761,-0.743858,7.12,5,WALK
1759223384.72937,-1.480514,9.151237,1.305588,0.898001,0.538297,-0.791944,7.14,5,WALK
1759223384.74891,-1.328333,9.431209,0.485724,0.883224,1.316651,-0.943683,7.16,5,WALK
1759223384.76948,-1.146074,10.259603,-0.902913,1.160574,1.262364,-0.813343,7.18,5,WALK
1759223384.78939,0.888698,9.244611,-0.369156,1.274284,1.457232,-0.619105,7.20,5,WALK
1759223384.80937,3.49718,8.521413,-1.066766,1.182187,1.759063,-0.601354,7.22,5,WALK
1759223384.82937,4.973954,7.716961,-2.60953,0.841006,1.714862,-0.761224,7.24,5,WALK
1759223384.84891,4.156484,6.335357,-3.287987,0.324712,1.487303,-0.8509,7.26,5,WALK
1759223384.86941,2.135478,4.941782,-3.619734,-0.214094,0.874063,-0.590451,7.28,5,WALK
1759223384.88934,2.629731,5.308244,-2.485331,-0.589063,0.747225,-0.365258,7.30,5,WALK
1759223384.90881,3.325995,6.405238,-1.380108,-0.781706,0.959357,-0.214188,7.32,5,WALK
1759223384.92850,3.892972,7.044041,-2.120365,-1.047918,1.021279,-0.170706,7.34,5,WALK
1759223384.94897,3.074753,6.423344,-3.333477,-1.469933,1.012764,-0.065896,7.36,5,WALK
1759223384.96940,2.245761,5.948244,-4.102165,-1.94389,0.865306,0.184029,7.38,5,WALK
1759223384.98937,2.326416,5.899612,-3.622876,-2.171858,0.894338,0.477028,7.40,5,WALK
1759223385.00936,2.421885,6.893954,-3.529951,-2.065698,1.008194,0.574095,7.42,5,WALK
1759223385.02939,2.493711,9.553164,-3.581426,-1.547547,1.079586,0.552435,7.44,5,WALK
1759223385.04891,1.997063,11.748497,-4.654927,-1.086981,0.754674,0.49335,7.46,5,WALK
1759223385.06940,1.515679,12.691513,-6.997354,-0.702119,-0.756326,0.140628,7.48,5,WALK
1759223385.08935,1.464503,13.247866,-6.118532,-0.110214,-2.333142,-0.358645,7.50,5,WALK
1759223385.10938,2.272247,14.314782,-2.312051,-0.278507,-2.786411,-0.290764,7.52,5,WALK
1759223385.12940,4.117877,11.890354,4.282179,-0.634049,-1.748598,-0.429866,7.54,5,WALK
1759223385.14891,2.906561,9.138817,3.010709,-0.987978,-1.456438,-0.06967,7.56,5,WALK
1759223385.16942,3.166032,7.574955,2.998588,-1.169042,-0.782937,0.048913,7.58,5,WALK
1759223385.18937,2.378041,6.242881,2.710685,-1.219942,0.164784,0.084248,7.60,5,WALK
1759223385.20935,1.99841,6.681319,2.926313,-1.207421,1.058503,0.302493,7.62,5,WALK
1759223385.22940,3.497779,8.639177,2.567781,-0.998168,1.110132,0.427563,7.64,5,WALK
1759223385.24891,4.346823,10.943597,2.866907,-0.810756,1.407082,0.229477,7.66,5,WALK
1759223385.26946,2.840271,13.189807,-0.884807,-1.946113,3.368554,0.082931,7.68,5,WALK
1759223385.28940,2.108394,13.58874,-3.078046,-2.081218,2.829197,-0.377019,7.70,5,WALK
1759223385.30935,0.91683,10.918008,-5.403115,-0.675924,-0.359209,-0.248812,7.72,5,WALK
1759223385.32945,0.708983,10.855011,-2.553865,-0.029051,-1.852621,-0.136404,7.74,5,WALK
1759223385.34891,2.123058,10.677242,-0.960524,-0.140699,-1.755536,-0.375563,7.76,5,WALK
1759223385.36947,1.93257,10.077195,1.068412,-0.155929,-1.296203,-0.619256,7.78,5,WALK
1759223385.38936,0.685041,8.465448,2.314146,0.047122,-1.195046,-0.532785,7.80,5,WALK
1759223385.40869,0.334889,7.760954,2.365172,0.110654,-1.489874,-0.226151,7.82,5,WALK
1759223385.42941,0.722301,8.504055,2.108843,0.00789,-1.448348,-0.087291,7.84,5,WALK
1759223385.44891,1.43697,8.714146,1.000028,-0.335529,-1.677167,0.065744,7.86,5,WALK
1759223385.46947,1.773655,8.488792,0.277727,-0.84414,-2.370041,0.382474,7.88,5,WALK
1759223385.48936,2.767248,8.800487,1.083975,-1.068522,-2.82038,0.379706,7.90,5,WALK
1759223385.50933,3.634997,9.346215,2.108843,-1.017056,-2.841507,0.237118,7.92,5,WALK
1759223385.52925,4.01747,9.700856,1.506102,-1.195917,-2.021977,0.129763,7.94,5,WALK
1759223385.54943,3.979313,10.2816,-0.601992,-1.551332,-0.396385,0.245988,7.96,5,WALK
1759223385.56944,1.764527,8.561665,-0.162656,-0.857774,-0.896933,0.450652,7.98,5,WALK
1759223385.58934,0.021398,7.354688,-0.33444,0.095152,-2.36965,0.476149,8.00,5,WALK
1759223385.60935,0.315137,8.318654,1.218349,0.471445,-2.992723,0.197972,8.02,5,WALK
1759223385.62939,0.627131,9.444826,2.264017,0.423326,-2.734867,-0.285013,8.04,5,WALK
1759223385.64936,-0.247052,10.667216,3.135357,0.264147,-1.729927,-0.64,8.06,5,WALK
1759223385.66948,-1.502062,11.988965,3.127426,0.160487,-0.517569,-0.913818,8.08,5,WALK
1759223385.68936,-3.066374,12.601132,2.346318,-0.091735,0.518668,-1.070164,8.10,5,WALK
1759223385.70879,-8.434922,11.869853,-11.044153,-1.936923,-2.363795,-0.457072,8.12,5,WALK
1759223385.72946,-8.225429,13.179631,-3.308039,-1.489776,-4.003763,-0.568363,8.14,5,WALK
1759223385.74939,-8.31596,13.979444,0.510863,1.0117,-3.212779,-0.84696,8.16,5,WALK
1759223385.76947,-5.363311,14.262409,0.535104,2.297309,-0.191093,-1.429792,8.18,5,WALK
1759223385.78841,-0.356736,11.035025,-5.904101,1.861534,1.23694,-1.818892,8.20,5,WALK
1759223385.80941,0.701351,8.966884,-4.246566,2.379794,1.250632,-1.216595,8.22,5,WALK
1759223385.82940,0.796521,8.410232,-0.89603,2.825257,1.404195,0.044089,8.24,5,WALK
1759223385.84936,2.524237,9.355343,-1.207276,2.751086,1.276454,1.600593,8.26,5,WALK
1759223385.86946,6.336704,15.279795,-1.364096,2.681523,0.296461,2.124776,8.28,5,WALK
1759223385.88934,10.421661,19.924397,-1.332822,2.619611,-1.359866,0.966313,8.30,5,WALK
1759223385.90932,9.872341,15.482554,-2.100613,2.112521,-2.398902,-0.472788,8.32,5,WALK
1759223385.92940,4.749797,9.016563,-1.49473,1.204972,-1.783447,-0.674011,8.34,5,WALK
1759223385.94936,1.796399,7.991097,-0.915483,1.024368,-0.54499,-0.46354,8.36,5,WALK
1759223385.96947,1.854608,8.245182,4.371513,1.608426,2.158703,-0.254247,8.38,5,WALK
1759223385.98935,0.858471,7.290643,2.215235,2.593085,2.464222,-0.171176,8.40,5,WALK
1759223386.00936,-0.325911,6.996007,-1.984195,2.44837,0.932665,-0.356153,8.42,5,WALK
1759223386.02855,0.872238,6.890961,-1.504756,1.529938,1.022853,-0.546409,8.44,5,WALK
1759223386.04940,1.699883,6.37516,-0.584036,0.791862,1.670704,-0.67594,8.46,5,WALK
1759223386.06939,2.051681,6.006304,-0.588674,0.321328,1.704382,-0.515896,8.48,5,WALK
1759223386.08935,2.962226,5.713014,-0.839168,-0.089874,1.451249,-0.450247,8.50,5,WALK
1759223386.10932,3.673603,4.2738,-1.183633,-0.494,1.403351,-0.387857,8.52,5,WALK
1759223386.12940,3.787777,2.554613,-2.19249,-0.980118,1.309764,-0.274492,8.54,5,WALK
1759223386.14936,2.82426,2.208651,-4.613627,-1.735033,1.043303,-0.05226,8.56,5,WALK
1759223386.16940,1.622371,2.443133,-5.316774,-2.373049,0.920428,0.172379,8.58,5,WALK
1759223386.18857,0.671574,3.706374,-4.084658,-2.571214,1.276672,0.198979,8.60,5,WALK
1759223386.20941,0.459238,6.442198,-3.160197,-2.263462,1.70703,0.324505,8.62,5,WALK
1759223386.22946,1.90354,12.92405,-3.638738,-1.086789,2.402237,0.447828,8.64,5,WALK
1759223386.24936,1.80448,20.586393,-7.677905,1.004258,2.68097,0.270731,8.66,5,WALK
1759223386.26941,-1.091307,19.972281,-13.909563,1.51047,1.089573,-0.09767,8.68,5,WALK
1759223386.28935,-0.98267,9.429264,-10.496779,0.704049,0.652003,-0.124514,8.70,5,WALK
1759223386.30934,2.771737,6.05748,-6.917746,-0.306909,0.965579,-0.394052,8.72,5,WALK
1759223386.32939,6.721871,11.311555,-1.277755,-0.35134,0.580257,-0.681897,8.74,5,WALK
1759223386.34857,8.765771,20.01807,1.501763,-0.020513,-0.599819,-1.060953,8.76,5,WALK
1759223386.36944,1.268927,15.666309,5.245247,-0.762245,-2.173,-1.035029,8.78,5,WALK
1759223386.38935,1.097891,4.773888,7.304111,-1.172377,-1.28697,-0.847968,8.80,5,WALK
1759223386.40940,1.037737,1.97357,3.622577,-1.704061,-0.430344,-0.73344,8.82,5,WALK
1759223386.42945,2.020856,3.053505,4.783316,-1.427382,0.71303,-0.334654,8.84,5,WALK
1759223386.44935,3.683779,8.488343,6.9161,-0.317904,1.337506,0.257498,8.86,5,WALK
1759223386.46946,5.166837,13.150901,5.887641,0.368271,0.953962,0.514137,8.88,5,WALK
1759223386.48935,5.969493,13.863475,4.007295,0.201465,1.087973,0.349044,8.90,5,WALK
1759223386.50932,8.363246,10.671855,-4.926968,-2.615374,3.943824,-0.109136,8.92,5,WALK
1759223386.52938,6.285228,8.776694,-6.282984,-1.661712,1.835325,-0.067528,8.94,5,WALK
1759223386.54935,2.98931,7.898322,-5.613804,-0.652787,-1.425193,0.093492,8.96,5,WALK
1759223386.56947,1.560571,8.963442,-1.062427,-0.596307,-2.045346,-0.238735,8.98,5,WALK
1759223386.58910,0.440234,9.95958,2.234538,-0.647988,-1.697658,-0.65045,9.00,5,WALK
1759223386.60936,-0.087089,8.43163,3.268085,-0.537363,-0.895089,-0.786281,9.02,5,WALK
1759223386.62939,-1.015441,7.430554,1.772607,-0.684538,-0.215947,-0.605531,9.04,5,WALK
1759223386.64936,-2.504485,6.96578,-1.085322,-1.285895,-0.101717,0.023114,9.06,5,WALK
1759223386.66941,-3.255665,7.979276,-1.962647,-1.673005,-0.552077,0.421143,9.08,5,WALK
1759223386.68935,-2.646341,8.652495,-2.079963,-1.492114,-1.503415,0.224449,9.10,5,WALK
1759223386.70931,-1.942895,8.775647,-1.047463,-1.22308,-1.928854,0.040129,9.12,5,WALK
1759223386.72941,-0.893336,9.299977,0.024391,-1.144003,-1.532088,0.118238,9.14,5,WALK
1759223386.74935,0.654665,10.374974,-1.520617,-1.433687,-0.342469,0.212881,9.16,5,WALK
1759223386.76907,1.909226,9.863213,-2.207454,-1.142242,0.562409,0.344165,9.18,5,WALK
1759223386.78934,1.798494,9.928006,0.216376,-0.050425,0.538817,0.481819,9.20,5,WALK
1759223386.80932,1.016039,11.260679,2.100014,0.439162,0.522369,0.331353,9.22,5,WALK
1759223386.82939,-1.03235,12.319065,2.245462,0.215176,0.898245,0.052083,9.24,5,WALK
1759223386.84935,-1.777246,12.592154,0.603638,-0.309121,0.868616,-0.437068,9.26,5,WALK
1759223386.86940,-4.326622,11.954399,-4.772542,-1.295922,-0.433138,-0.402815,9.28,5,WALK
1759223386.88934,-5.183297,13.115586,-5.098452,-1.133597,-2.04415,-0.266316,9.30,5,WALK
1759223386.90931,-1.777395,14.915577,-0.748787,1.048021,-1.665286,-0.667953,9.32,5,WALK
1759223386.92947,0.171485,13.788956,0.490961,2.385135,0.341521,-0.934824,9.34,5,WALK
1759223386.94935,0.628179,12.923003,0.075866,2.454346,2.170552,-0.699246,9.36,5,WALK
1759223386.96946,1.315913,12.14354,-1.026215,2.522935,2.052317,-0.255629,9.38,5,WALK
1759223386.98897,1.897255,11.490073,1.905485,2.457339,2.206367,0.252107,9.40,5,WALK
1759223387.00934,2.809446,13.568988,2.215085,2.376312,1.026702,0.879691,9.42,5,WALK
1759223387.02946,4.392612,15.34788,1.223437,2.59939,-1.723801,1.181659,9.44,5,WALK
1759223387.04935,6.076035,14.000543,1.408988,3.211008,-3.792013,0.305884,9.46,5,WALK
1759223387.06945,6.019771,10.9834,-1.092205,3.373655,-4.532949,-0.277223,9.48,5,WALK
1759223387.08936,3.432238,9.37734,-1.238401,2.574054,-2.45075,-0.056321,9.50,5,WALK
1759223387.10931,2.101959,8.524256,0.503082,1.710373,-0.092565,0.221801,9.52,5,WALK
1759223387.12940,1.280599,8.209568,2.402432,1.496665,1.549281,0.220588,9.54,5,WALK
1759223387.14935,1.182137,7.296928,1.689708,1.822878,1.787468,-0.141858,9.56,5,WALK
1759223387.16945,0.297629,6.755839,1.398064,2.113472,1.266483,-0.473551,9.58,5,WALK
1759223387.18901,-0.188992,8.077288,2.409315,2.282356,1.444697,-0.444912,9.60,5,WALK
1759223387.20845,1.021127,6.664859,0.349254,1.802477,1.690117,-0.247013,9.62,5,WALK
1759223387.22938,2.834884,5.616498,0.249745,1.176885,2.099935,-0.233153,9.64,5,WALK
1759223387.24936,4.069544,4.275895,-1.318008,0.35835,1.609648,-0.28708,9.66,5,WALK
1759223387.26941,4.437054,2.713528,-1.549797,-0.38121,1.15861,-0.42806,9.68,5,WALK
1759223387.28934,3.550451,1.237952,-2.350358,-1.09551,1.115486,-0.374003,9.70,5,WALK
1759223387.30872,1.972224,0.562787,-4.057573,-1.904121,0.939944,-0.14009,9.72,5,WALK
1759223387.32944,1.183633,1.820042,-4.835988,-2.617729,1.176726,-0.052358,9.74,5,WALK
1759223387.34877,1.185429,4.063259,-3.660585,-2.723372,2.042662,-0.082839,9.76,5,WALK
1759223387.36948,1.454926,9.0429,-6.883779,-1.430801,1.95883,0.178393,9.78,5,WALK
1759223387.38888,1.027561,21.00882,-16.486473,-0.262523,-0.13257,-0.011273,9.80,5,WALK
1759223387.40876,1.613692,22.332215,-10.985495,-0.529865,-0.054753,-0.313164,9.82,5,WALK
1759223387.42947,1.973121,14.364761,-8.09719,-0.025275,0.600678,-0.248881,9.84,5,WALK
1759223387.44935,4.809652,7.075913,-5.085135,0.452532,0.820384,-0.131633,9.86,5,WALK
1759223387.46941,6.09878,6.859687,-1.875109,0.149893,1.027823,-0.356468,9.88,5,WALK
1759223387.48941,6.737283,12.67655,-0.730232,-0.814195,0.638683,-0.144088,9.90,5,WALK
1759223387.50931,6.410924,16.155325,2.533814,-1.330398,-0.720916,0.844903,9.92,5,WALK
1759223387.52937,6.603507,12.860305,5.096806,-0.888389,-2.402127,0.711136,9.94,5,WALK
1759223387.54935,5.467908,7.728333,1.83725,-1.116438,-3.742963,-0.089308,9.96,5,WALK
1759223387.56939,3.140145,4.418649,0.648679,-1.826498,-4.361506,-0.453378,9.98,5,WALK
1759223387.58901,1.985841,3.185485,2.666542,-1.956193,-3.228049,-0.454284,10.00,5,WALK
1759223387.60941,1.716942,5.377975,5.163994,-1.800742,-0.729155,-0.203471,10.02,5,WALK
1759223387.62937,2.437148,10.147076,7.872135,-1.100914,1.882746,0.143361,10.04,5,WALK
1759223387.64940,2.661454,12.793417,3.343353,-1.023068,1.462927,0.358736,10.06,5,WALK
1759223387.66944,2.458247,11.073931,2.327463,-1.07917,1.171344,0.402438,10.08,5,WALK
1759223387.68932,2.255039,8.428488,1.045069,-2.826476,1.172086,0.03335,10.10,5,WALK
1759223387.70932,2.707842,8.561515,-9.456797,-3.148153,-0.748135,-0.652414,10.12,5,WALK
1759223387.72873,2.596063,8.651597,-4.096479,-2.103076,-1.990407,-0.807643,10.14,5,WALK
1759223387.74933,-0.308852,9.040954,2.34527,-0.275045,-2.397028,-0.542313,10.16,5,WALK
1759223387.76939,-0.731578,9.207351,1.706168,-0.192067,-1.778531,-0.118731,10.18,5,WALK
1759223387.78938,-0.948403,8.603264,0.321571,-0.623602,-0.967093,0.21986,10.20,5,WALK
1759223387.80931,-1.067814,8.270919,-0.663643,-1.269608,-0.511192,0.432374,10.22,5,WALK
1759223387.82916,-0.620996,8.510788,-0.543783,-1.618817,-0.596312,0.303582,10.24,5,WALK
1759223387.84934,0.56144,8.759187,-0.939275,-1.712103,-1.215315,0.240454,10.26,5,WALK
1759223387.86933,1.074398,9.152285,-1.704522,-1.618658,-1.707946,0.224884,10.28,5,WALK
1759223387.88932,0.76405,8.657732,-0.306458,-1.116271,-1.441015,0.309157,10.30,5,WALK
1759223387.90932,-0.397437,8.453776,0.149488,-0.549562,-0.787919,0.441503,10.32,5,WALK
1759223387.92935,-0.785448,10.75221,1.197101,-0.200732,-0.066334,0.295979,10.34,5,WALK
1759223387.94877,-0.844106,11.926865,1.287931,-0.152561,0.247293,0.192556,10.36,5,WALK
1759223387.96934,-2.392855,14.593856,-1.764078,-0.330075,0.334273,-0.373812,10.38,5,WALK
1759223387.98910,-3.433584,13.742867,-4.756979,-0.081931,-0.741238,-0.483732,10.40,5,WALK
1759223388.00934,-1.769914,13.62181,-1.799542,1.557761,-1.293511,-0.679073,10.42,5,WALK
1759223388.02934,-0.553809,15.034539,1.136797,2.948409,-0.69655,-1.22176,10.44,5,WALK
1759223388.04934,-0.060454,14.356681,-3.400215,3.453048,-1.140538,-1.52667,10.46,5,WALK
1759223388.06876,0.87957,15.671397,-2.712182,3.395529,-0.820485,-1.819008,10.48,5,WALK
1759223388.08932,0.51191,15.134497,2.937985,2.580655,1.830904,-1.346916,10.50,5,WALK
1759223388.10932,2.357241,15.38499,3.042881,2.083678,1.425012,0.238392,10.52,5,WALK
1759223388.12934,4.865916,16.239271,2.944569,2.550834,-0.611007,1.392771,10.54,5,WALK
1759223388.14934,6.991069,13.265972,0.364517,3.884673,-3.542379,1.021131,10.56,5,WALK
1759223388.16935,7.459435,10.214412,-3.336021,3.690694,-3.586741,-0.016833,10.58,5,WALK
1759223388.18935,3.680187,7.511658,-1.332373,1.953417,-0.657409,-0.261873,10.60,5,WALK
1759223388.20932,1.806874,7.030424,2.803311,0.920598,1.986055,-0.242398,10.62,5,WALK
1759223388.22935,0.873285,6.488885,1.287632,1.043844,2.551624,-0.63154,10.64,5,WALK
1759223388.24933,-0.306907,7.990199,0.284611,1.783313,1.09339,-1.14031,10.66,5,WALK
1759223388.26934,-0.829591,9.026589,3.53444,2.111019,1.13764,-1.482615,10.68,5,WALK
1759223388.28933,-1.111508,6.497414,4.461744,2.051895,2.123229,-0.808065,10.70,5,WALK
1759223388.30930,1.36275,4.348768,2.777872,1.822183,2.731074,-0.200024,10.72,5,WALK
1759223388.32933,3.807828,4.031985,0.811485,1.23995,2.708508,-0.172728,10.74,5,WALK
1759223388.34933,4.617667,3.665373,-0.685191,0.438254,2.243478,-0.451922,10.76,5,WALK
1759223388.36934,4.51322,1.905336,-2.681655,-0.435191,1.936301,-0.673418,10.78,5,WALK
1759223388.38913,3.069666,0.741005,-5.16968,-1.494426,1.82609,-0.437681,10.80,5,WALK
1759223388.40939,1.474529,1.573888,-6.217293,-2.4284,1.985474,-0.193166,10.82,5,WALK
1759223388.42935,1.625364,2.868852,-3.958962,-2.925584,2.599163,0.120633,10.84,5,WALK
1759223388.44842,3.453187,6.055235,-1.768866,-2.207796,2.790838,0.168983,10.86,5,WALK
1759223388.46935,4.133589,12.633155,-6.555474,-0.00077,0.820091,0.371569,10.88,5,WALK
1759223388.48932,4.695029,24.053796,-16.745645,0.491155,-0.857352,-0.122952,10.90,5,WALK
1759223388.50886,1.515829,19.423111,-14.071471,-0.467659,-0.105825,-0.365299,10.92,5,WALK
1759223388.52933,0.530615,9.330802,-6.050148,0.076479,1.182642,-0.143497,10.94,5,WALK
1759223388.54933,1.248576,7.320122,-1.980454,0.487657,1.577002,-0.096898,10.96,5,WALK
1759223388.56937,5.089923,14.767436,-2.604891,-0.281118,0.859002,-0.493596,10.98,5,WALK
1759223388.58933,7.851485,19.409045,3.804686,-0.809015,-0.329775,-0.096755,11.00,5,WALK
1759223388.60932,7.462577,15.660473,6.275502,-0.8864,-2.772784,-0.641432,11.02,5,WALK
1759223388.62933,3.683779,5.079149,5.828684,-0.933078,-3.176586,-0.729456,11.04,5,WALK
1759223388.64933,2.037017,2.045247,1.467795,-1.298809,-3.589118,-0.4757,11.06,5,WALK
1759223388.66931,1.772457,1.944391,0.104447,-1.678785,-3.107345,-0.054514,11.08,5,WALK
1759223388.68933,3.661034,4.197784,0.629974,-2.199556,-0.446091,0.370299,11.10,5,WALK
1759223388.70930,3.836259,10.582371,6.640468,-1.49174,1.898058,0.419279,11.12,5,WALK
1759223388.72933,5.250035,16.203059,6.03683,-1.141423,2.056931,0.266395,11.14,5,WALK
1759223388.74939,3.219902,13.363685,2.44433,-1.420551,0.973806,0.310072,11.16,5,WALK
1759223388.76847,-0.225654,8.354118,-5.469554,-2.204744,-0.322987,0.275715,11.18,5,WALK
1759223388.78932,-0.502932,8.839542,-7.785196,-2.075671,-1.859531,-0.328085,11.20,5,WALK
1759223388.80927,0.103699,8.834006,1.030853,-1.404952,-1.373041,-0.709739,11.22,5,WALK
1759223388.82931,0.082301,7.63047,3.548656,-0.841975,-0.636294,-0.431219,11.24,5,WALK
1759223388.84933,0.127491,7.672219,2.435951,-0.707103,-0.042874,0.17257,11.26,5,WALK
1759223388.86931,1.369184,7.745392,0.811185,-0.998422,0.283093,0.249795,11.28,5,WALK
1759223388.88843,1.326986,7.935132,-0.170886,-1.371265,0.320595,0.181242,11.30,5,WALK
1759223388.90929,0.798167,8.504204,-0.023643,-1.453271,0.010987,0.3056,11.32,5,WALK
1759223388.92944,0.583287,8.161235,-0.510713,-1.378664,-0.541707,0.477104,11.34,5,WALK
1759223388.94933,0.550966,8.342596,-1.06108,-1.262261,-1.036424,0.551034,11.36,5,WALK
1759223388.96931,0.046837,9.235783,0.004339,-1.046458,-1.064748,0.510497,11.38,5,WALK
1759223388.98933,-0.451756,10.134057,-0.143652,-0.928643,-0.566759,0.443334,11.40,5,WALK
1759223389.00932,-0.313341,10.807576,-0.003591,-0.73755,-0.198976,0.356734,11.42,5,WALK
1759223389.02935,-0.757017,11.713482,0.545728,-0.418394,0.102905,0.285394,11.44,5,WALK
1759223389.04932,-0.519991,13.310414,2.619556,-0.068316,0.712471,0.043072,11.46,5,WALK
1759223389.06945,-1.605163,13.848362,-0.849044,-0.343923,0.506239,-0.160178,11.48,5,WALK
1759223389.08932,-2.462586,12.934674,-4.870405,-0.527938,-0.713168,-0.308047,11.50,5,WALK
1759223389.10931,-1.608904,13.688998,-2.881571,0.528571,-1.437241,-0.453638,11.52,5,WALK
1759223389.12931,-0.09921,13.979145,-0.029329,1.814068,-0.919713,-0.771712,11.54,5,WALK
1759223389.14933,0.157419,11.76391,1.760337,2.48417,0.825088,-0.946249,11.56,5,WALK
1759223389.16944,1.274912,11.957541,-0.52433,3.218113,1.228259,-1.080709,11.58,5,WALK
1759223389.18870,2.396745,13.459454,-0.399083,3.17283,0.92273,-0.925381,11.60,5,WALK
1759223389.20929,3.541922,14.116961,0.861464,3.14945,-0.107396,-0.296671,11.62,5,WALK
1759223389.22935,4.735282,13.739725,1.706617,3.309533,-1.53818,0.42529,11.64,5,WALK
1759223389.24934,6.728305,13.388825,0.714968,3.486862,-3.018029,0.766919,11.66,5,WALK
1759223389.26932,7.323564,11.825411,-1.806276,3.205138,-3.804993,0.085624,11.68,5,WALK
1759223389.28916,3.661034,10.617686,-1.726519,2.638505,-2.673378,-0.148449,11.70,5,WALK
1759223389.30929,0.977882,9.910648,0.098462,2.038697,-0.564486,-0.195653,11.72,5,WALK
1759223389.32933,-0.392799,8.794052,0.370652,1.651897,0.964642,-0.161957,11.74,5,WALK
1759223389.34928,0.374543,8.374917,-2.190096,1.239617,0.204783,-0.407158,11.76,5,WALK
1759223389.36931,1.303493,8.692299,-0.946458,0.752868,-0.253417,-0.985985,11.78,5,WALK
1759223389.38932,1.39148,8.194454,3.337068,1.150441,1.143444,-1.309576,11.80,5,WALK
1759223389.40931,1.350779,5.954978,4.343082,1.713262,2.740647,-0.927409,11.82,5,WALK
1759223389.42930,0.947805,3.724181,0.70614,1.686242,2.733985,-0.327736,11.84,5,WALK
1759223389.44888,2.046893,3.565415,-2.26686,0.740266,2.15427,-0.226795,11.86,5,WALK
1759223389.46932,2.452111,3.462614,-2.571971,-0.319423,1.531894,-0.336128,11.88,5,WALK
1759223389.48887,2.017713,2.504784,-1.201291,-1.119391,1.370677,-0.346536,11.90,5,WALK
1759223389.50929,1.686865,2.041356,-0.339977,-1.775504,1.579234,-0.273224,11.92,5,WALK
1759223389.52931,1.409586,2.012476,-0.184204,-2.427217,2.049254,-0.156691,11.94,5,WALK
1759223389.54885,1.094449,2.100613,-0.942567,-2.753591,2.148994,0.28833,11.96,5,WALK
1759223389.56930,2.44044,3.762488,-1.339257,-2.561944,2.378419,0.528339,11.98,5,WALK
1759223389.58933,5.152771,9.262717,-4.908413,-1.146575,2.516087,0.667766,12.00,5,WALK
1759223389.60856,5.576096,26.020184,-21.717055,0.79515,0.205678,0.16169,12.02,5,WALK
1759223389.62934,2.297985,25.587432,-19.379117,-0.721524,-0.801464,-0.624802,12.04,5,WALK
1759223389.64928,0.518644,10.319458,-7.796119,-0.469524,0.607802,-0.488778,12.06,5,WALK
1759223389.66944,2.919579,6.443545,-0.044742,0.362383,1.560375,-0.081324,12.08,5,WALK
1759223389.68932,9.440636,16.439038,-1.03235,0.20404,1.093711,-0.052885,12.10,5,WALK
1759223389.70932,9.533561,22.981792,1.315165,-0.749993,0.013427,0.006181,12.12,5,WALK
1759223389.72940,4.053982,14.027777,6.200533,-1.156199,-2.112098,-0.792103,12.14,5,WALK
1759223389.74932,2.875287,4.83928,6.031742,-0.996655,-2.801889,-0.6811,12.16,5,WALK
1759223389.76944,1.984195,1.306336,2.463334,-0.774129,-3.034708,-0.379791,12.18,5,WALK
1759223389.78837,1.24304,0.680701,1.885284,-0.885365,-2.369913,-0.203819,12.20,5,WALK
1759223389.80845,1.429189,2.392705,1.912967,-1.509331,-1.486688,0.346898,12.22,5,WALK
1759223389.82943,3.879953,7.859565,3.359663,-1.724874,-1.198646,0.923395,12.24,5,WALK
1759223389.84927,7.129484,14.234427,6.488436,-1.212662,-0.587766,0.675079,12.26,5,WALK
1759223389.86943,5.618144,12.970438,4.324527,-1.05566,0.036886,0.310382,12.28,5,WALK
1759223389.88932,2.177676,10.503512,1.260547,-2.511763,2.639161,0.538234,12.30,5,WALK
1759223389.90889,-0.16924,10.367492,-5.479579,-3.863913,3.926645,-0.027088,12.32,5,WALK
1759223389.92933,-1.906233,9.446622,-7.149984,-0.71222,-0.880455,-0.715179,12.34,5,WALK
1759223389.94932,-1.262492,8.961497,1.920449,0.313564,-1.974185,-0.624175,12.36,5,WALK
1759223389.96944,-0.587627,8.79914,2.010381,0.222623,-2.063343,-0.431799,12.38,5,WALK
1759223389.98930,-0.295235,8.108862,1.672799,-0.267738,-1.695498,-0.37377,12.40,5,WALK
1759223390.00928,-0.758663,7.745991,0.658256,-0.980017,-1.062718,-0.134843,12.42,5,WALK
1759223390.02937,-1.128268,8.273014,1.075146,-1.507953,-0.131774,0.285039,12.44,5,WALK
1759223390.04926,-0.072275,8.780884,1.646911,-1.663855,0.406386,0.45341,12.46,5,WALK
1759223390.06930,0.662895,9.007735,0.8673,-1.832381,0.486504,0.550994,12.48,5,WALK
1759223390.08932,1.969081,8.602666,-1.068712,-2.204206,0.22977,0.553568,12.50,5,WALK
1759223390.10904,3.373281,8.929923,-2.330905,-2.101092,-0.424929,0.493587,12.52,5,WALK
1759223390.12894,3.805883,9.568876,-0.530465,-0.716496,-1.267429,0.508542,12.54,5,WALK
1759223390.14921,1.033846,9.786299,0.851288,0.156232,-1.022624,0.763546,12.56,5,WALK
1759223390.16881,-0.213234,11.370962,2.487725,0.395533,-0.0574,0.561571,12.58,5,WALK
1759223390.18857,-0.299275,12.665476,3.108572,0.264452,0.901672,0.108744,12.60,5,WALK
1759223390.20928,-1.876755,13.501502,-1.358111,-0.416597,0.347234,-0.404984,12.62,5,WALK
1759223390.22932,-3.227982,12.207136,-2.537704,-0.679665,-0.849475,-0.488723,12.64,5,WALK
1759223390.24932,-0.952443,13.238289,-1.010652,0.491237,-1.752579,-0.438192,12.66,5,WALK
1759223390.26932,1.480066,14.632313,1.633743,2.475247,-1.395175,-0.741763,12.68,5,WALK
1759223390.28932,2.059163,12.979566,-0.176123,3.489181,-0.740847,-1.071817,12.70,5,WALK
1759223390.30928,2.527828,12.167931,-3.019238,3.305415,-0.700992,-1.091215,12.72,5,WALK
1759223390.32890,3.456778,11.86701,-1.821239,2.738623,-0.369645,-0.66188,12.74,5,WALK
1759223390.34932,3.950582,12.239309,0.228646,2.489168,-0.599287,0.029085,12.76,5,WALK
1759223390.36932,5.305701,14.699351,1.603965,2.449911,-1.770475,0.376207,12.78,5,WALK
1759223390.38891,5.683236,15.699229,0.035464,2.646416,-3.648476,0.063609,12.80,5,WALK
1759223390.40928,3.893122,12.258761,-1.254861,2.472731,-3.612099,-0.608361,12.82,5,WALK
1759223390.42937,0.477643,9.251046,0.56997,1.76918,-0.93806,-1.049646,12.84,5,WALK
1759223390.44931,-1.509544,8.951172,0.403573,1.548553,0.590286,-1.263344,12.86,5,WALK
1759223390.46933,-2.169895,7.709329,0.71826,1.518147,1.604763,-0.874035,12.88,5,WALK
1759223390.48931,-1.139341,8.824429,-0.350601,1.370037,1.655578,-0.608965,12.90,5,WALK
1759223390.50848,0.245855,9.753229,0.539892,1.433662,1.445056,-0.532837,12.92,5,WALK
1759223390.52930,2.355894,9.098266,3.677045,1.857421,1.805341,-0.501858,12.94,5,WALK
1759223390.54926,3.849577,6.112546,2.691232,1.872688,2.087304,-0.477544,12.96,5,WALK
1759223390.56932,4.899734,4.186262,1.800889,1.466848,2.599195,-0.455656,12.98,5,WALK
1759223390.58931,5.06658,3.27437,-0.80924,0.692551,2.595271,-0.51512,13.00,5,WALK
1759223390.60928,3.46845,2.65921,-2.948459,-0.356101,1.964747,-0.54955,13.02,5,WALK
1759223390.62932,2.166902,1.344943,-2.802263,-1.218327,1.419299,-0.529455,13.04,5,WALK
1759223390.64881,1.310676,-0.100257,-2.736872,-1.934658,1.240877,-0.396681,13.06,5,WALK
1759223390.66932,0.457143,0.991798,-2.826654,-2.49381,1.508838,-0.133962,13.08,5,WALK
1759223390.68931,0.337582,4.028843,-2.36607,-2.770963,2.104446,0.237748,13.10,5,WALK
1759223390.70930,1.941698,7.998878,-1.627309,-2.230132,2.516809,0.664727,13.12,5,WALK
1759223390.72930,4.018069,17.774852,-5.620089,-0.00315,1.956754,0.921761,13.14,5,WALK
1759223390.74931,4.204966,29.08551,-17.980155,0.86051,-0.061049,0.166062,13.16,5,WALK
1759223390.76935,2.277185,15.265879,-13.972411,0.052197,-0.031165,-0.134999,13.18,5,WALK
1759223390.78937,4.524742,7.243657,-6.903082,-0.194106,0.550629,-0.287135,13.20,5,WALK
1759223390.80928,7.631667,10.608708,-1.780837,-0.235862,0.213765,-0.03413,13.22,5,WALK
1759223390.82932,11.712135,20.654478,2.160617,-0.304566,-1.13874,-0.12174,13.24,5,WALK
1759223390.84919,6.648848,17.844883,3.204639,-0.683331,-3.299985,-0.24112,13.26,5,WALK
1759223390.86931,3.309236,5.818808,6.859986,-0.494742,-3.272106,0.000391,13.28,5,WALK
1759223390.88865,1.978658,2.057068,3.339313,-0.661014,-3.361839,0.130938,13.30,5,WALK
1759223390.90927,1.432182,0.629226,2.32866,-0.641602,-3.196595,0.343276,13.32,5,WALK
1759223390.92931,1.248576,1.487847,2.819472,-0.5663,-2.280538,0.459585,13.34,5,WALK
1759223390.94888,2.20491,6.401946,5.057601,-0.963998,-0.354103,0.649552,13.36,5,WALK
1759223390.96935,3.905841,14.218116,7.293038,-1.343913,1.623697,0.660872,13.38,5,WALK
1759223390.98929,3.557784,16.761656,5.23552,-1.827718,2.510576,0.245065,13.40,5,WALK
1759223391.00927,1.109413,11.694478,2.170643,-2.356393,2.906579,0.280254,13.42,5,WALK
1759223391.02933,0.294636,9.265411,-3.480122,-4.158243,2.980584,0.169601,13.44,5,WALK
1759223391.04931,1.3831,8.308179,-8.732402,-4.215997,-0.765734,-0.466427,13.46,5,WALK
1759223391.06942,1.062128,7.918672,0.557999,-0.781627,-2.922013,-0.626432,13.48,5,WALK
1759223391.08930,-0.560692,8.661473,3.556736,0.372258,-1.502855,-0.373373,13.50,5,WALK
1759223391.10927,-1.248875,8.881441,0.392499,-0.010181,-0.426927,0.269515,13.52,5,WALK
1759223391.12930,-0.357335,9.460538,0.574309,-0.701672,0.598894,0.354531,13.54,5,WALK
1759223391.14931,0.327108,9.655965,1.068113,-1.169719,0.997702,0.023482,13.56,5,WALK
1759223391.16931,0.359878,8.260445,-0.359878,-1.561311,0.341721,-0.085136,13.58,5,WALK
1759223391.18930,1.555184,7.482479,-2.454805,-1.892676,-0.83954,-0.053879,13.60,5,WALK
1759223391.20932,2.321179,8.346486,-1.611597,-1.593649,-1.684221,0.030943,13.62,5,WALK
1759223391.22932,1.978808,9.660005,-0.026486,-0.856947,-0.992569,0.288345,13.64,5,WALK
1759223391.24931,1.791611,10.609905,0.360178,-0.295095,0.126946,0.42874,13.66,5,WALK
1759223391.26935,0.813131,10.304794,-0.474501,-0.261338,0.043031,0.475667,13.68,5,WALK
1759223391.28928,-0.596156,11.06196,0.653617,-0.157092,-0.307728,0.415156,13.70,5,WALK
1759223391.30992,-1.048361,13.74152,1.877653,-0.088324,0.054647,0.213846,13.72,5,WALK
1759223391.32932,-1.93242,15.223232,-3.309834,-0.382379,-0.112567,-0.072689,13.74,5,WALK
1759223391.34929,-1.219397,12.704831,-1.918354,0.706519,-0.321051,-0.333102,13.76,5,WALK
1759223391.36941,-0.864606,13.427431,1.856105,2.22819,0.096258,-0.661013,13.78,5,WALK
1759223391.38930,-0.940772,12.71351,1.252616,2.881104,0.651739,-0.891029,13.80,5,WALK
1759223391.40927,-0.211737,12.084733,-2.395997,3.495707,-0.216677,-0.882348,13.82,5,WALK
1759223391.42933,2.775478,13.571682,-2.44029,3.208697,-0.908905,-1.265056,13.84,5,WALK
1759223391.44879,3.206135,12.54442,-0.873584,2.38561,-0.895684,-0.982543,13.86,5,WALK
1759223391.46940,4.114136,14.198065,1.210718,1.916624,-1.099318,-0.390851,13.88,5,WALK
1759223391.48931,4.850353,16.709433,1.528847,2.34578,-2.401823,-0.200204,13.90,5,WALK
1759223391.50927,4.128801,15.476868,0.06195,3.129618,-3.403931,-0.386675,13.92,5,WALK
1759223391.52931,1.737891,12.448801,-0.137816,2.643555,-1.737239,-0.530556,13.94,5,WALK
1759223391.54832,0.244209,9.567828,1.334917,1.692401,0.672628,-0.297462,13.96,5,WALK
1759223391.56931,0.642544,8.376264,-0.965761,1.105645,0.502238,-0.490797,13.98,5,WALK
1759223391.58927,1.342698,8.646809,-0.412551,0.69498,-0.120969,-1.069795,14.00,5,WALK
1759223391.60929,1.352874,8.238747,1.489044,0.886211,0.058585,-1.308071,14.02,5,WALK
1759223391.62930,1.962946,6.71394,4.413561,1.286001,1.43345,-1.134246,14.04,5,WALK
1759223391.64878,3.277213,4.950461,6.51971,1.833935,3.070093,-0.803695,14.06,5,WALK
1759223391.66940,2.745102,3.599233,3.543119,2.077927,3.108147,-0.434901,14.08,5,WALK
1759223391.68928,2.615965,3.688567,-0.484975,1.395113,2.492634,-0.355364,14.10,5,WALK
1759223391.70927,2.638111,2.593369,-3.58397,0.098687,1.869214,-0.343282,14.12,5,WALK
1759223391.72933,1.667262,0.670975,-4.028244,-1.217711,1.710955,-0.10551,14.14,5,WALK
1759223391.74930,1.063774,1.012897,-3.285144,-2.294842,1.677461,0.20849,14.16,5,WALK
1759223391.76936,0.89603,2.5395,-1.850419,-2.877535,1.829484,0.576523,14.18,5,WALK
1759223391.78937,1.926285,3.985298,-1.247978,-2.769006,1.914659,0.78067,14.20,5,WALK
1759223391.80930,3.350685,6.689998,-1.169717,-1.940511,2.242743,0.666706,14.22,5,WALK
1759223391.82930,5.281908,14.692916,-4.554819,-0.195433,2.016975,0.223541,14.24,5,WALK
1759223391.84913,3.9021,26.95078,-18.847754,0.203529,-0.615518,-0.450038,14.26,5,WALK
1759223391.86905,-0.104896,19.244294,-14.308647,-0.493627,-1.245769,-0.455919,14.28,5,WALK
1759223391.88883,-0.964265,9.116521,-4.051288,-0.258727,0.614899,0.077184,14.30,5,WALK
1759223391.90926,3.115156,15.758785,-0.993893,0.079312,1.261693,0.559594,14.32,5,WALK
1759223391.92930,7.684041,21.819108,1.133654,0.337693,0.447954,0.373498,14.34,5,WALK
1759223391.94832,5.156362,13.45691,3.707721,0.300049,-1.952162,-0.718372,14.36,5,WALK
1759223391.96940,2.936937,4.42224,6.218789,-0.151983,-2.590202,-1.024575,14.38,5,WALK
1759223391.98928,2.234089,2.705747,4.432864,-0.961335,-2.545741,-0.519724,14.40,5,WALK
1759223392.00929,3.884742,5.089474,4.175338,-1.356668,-1.841618,-0.054581,14.42,5,WALK
1759223392.02935,4.894047,5.97877,4.363732,-1.534537,-0.91401,-0.076868,14.44,5,WALK
1759223392.04930,5.039495,8.45213,6.632238,-1.18942,1.057142,-0.030581,14.46,5,WALK
1759223392.06934,4.478055,10.015245,4.882974,-0.993398,2.189875,0.379153,14.48,5,WALK
1759223392.08930,3.87726,10.931027,2.946963,-1.008843,2.476939,0.619787,14.50,5,WALK
1759223392.10926,3.029713,9.570971,0.888847,-1.619464,2.582695,0.542711,14.52,5,WALK
1759223392.12930,-0.807145,9.979332,-17.069161,-2.979677,0.601021,0.2193,14.54,5,WALK
1759223392.14930,0.851588,9.839421,-4.904223,-1.339735,-1.686159,-0.455636,14.56,5,WALK
1759223392.16935,0.381875,9.191191,4.110395,-0.399078,-1.240898,-0.586689,14.58,5,WALK
1759223392.18929,0.397288,7.700052,3.897611,-0.236142,-1.090136,-0.359503,14.60,5,WALK
1759223392.20928,0.114024,7.941866,2.296937,-0.321259,-0.95355,-0.332758,14.62,5,WALK
1759223392.22933,-0.363021,8.406491,1.163432,-0.65515,-0.759143,-0.212716,14.64,5,WALK
1759223392.24905,-0.824653,8.449287,0.636858,-1.115672,-0.457453,0.036316,14.66,5,WALK
1759223392.26935,-1.296759,8.424747,-1.029207,-1.84703,-0.268421,0.317307,14.68,5,WALK
1759223392.28929,-0.478092,8.783578,-2.30801,-2.500723,-0.492714,0.303867,14.70,5,WALK
1759223392.30926,0.063596,9.167847,-1.048062,-2.275934,-1.213665,0.201525,14.72,5,WALK
1759223392.32937,0.45849,10.671705,-1.553687,-1.414604,-2.130907,0.189611,14.74,5,WALK
1759223392.34914,0.495001,9.840019,-0.21877,-0.506958,-1.597083,0.362577,14.76,5,WALK
1759223392.36935,-0.32202,9.777321,1.63524,-0.061161,-0.251002,0.429018,14.78,5,WALK
1759223392.38929,-1.229423,11.221623,3.064129,0.22576,1.023877,0.365877,14.80,5,WALK
1759223392.40898,-1.439514,13.884424,1.258752,-0.017055,1.588728,0.198869,14.82,5,WALK
1759223392.42892,-1.155202,13.179332,-3.591602,-0.778956,0.732158,-0.131308,14.84,5,WALK
1759223392.44929,-0.485275,11.775282,-5.027674,-0.392708,-1.171805,-0.231619,14.86,5,WALK
1759223392.46934,0.30137,13.41142,-1.762581,1.164058,-1.876792,-0.335808,14.88,5,WALK
1759223392.48928,0.561141,12.756905,0.419883,2.063251,-0.741684,-0.567629,14.90,5,WALK
1759223392.50926,1.633145,11.991359,-0.655413,2.742063,-0.019269,-0.639039,14.92,5,WALK
1759223392.52934,2.930952,13.53098,-2.212542,2.831457,-0.689495,-0.987771,14.94,5,WALK
1759223392.54928,1.946037,13.057377,1.18079,2.309399,-0.67377,-0.965356,14.96,5,WALK
1759223392.56932,2.840421,12.331785,4.09588,2.547702,-0.332642,-0.669119,14.98,5,WALK
1759223392.58929,3.10498,14.215722,3.273472,2.753845,-0.724766,0.015962,15.00,5,WALK
1759223392.60927,3.726126,14.453197,0.118064,3.08963,-2.11278,0.358955,15.02,5,WALK
1759223392.62847,4.023007,12.491149,-2.171691,3.339414,-3.100009,0.053639,15.04,5,WALK
1759223392.64880,2.672677,10.113557,-2.808997,2.672326,-2.802073,-0.150492,15.06,5,WALK
1759223392.66934,1.593192,9.750237,-2.243966,1.613475,-1.793378,-0.212098,15.08,5,WALK
1759223392.68928,1.646163,8.584859,0.416441,1.210178,-0.156201,0.03126,15.10,5,WALK
1759223392.70925,2.801066,8.710555,2.608782,0.557808,2.289947,-0.184239,15.12,5,WALK
1759223392.72928,1.778293,8.026411,1.269525,1.197186,2.370643,-0.678065,15.14,5,WALK
1759223392.74929,1.249923,7.996634,3.676596,2.073222,2.115932,-0.663144,15.16,5,WALK
1759223392.76931,0.700753,6.71379,4.480748,2.200149,2.223911,-0.323745,15.18,5,WALK
1759223392.78936,1.934665,5.736358,0.642394,1.671849,2.146858,-0.188681,15.20,5,WALK
1759223392.80925,3.640384,6.002712,-1.442058,0.800727,1.954502,-0.403969,15.22,5,WALK
1759223392.82858,3.618387,4.501698,-2.057667,-0.041643,1.556583,-0.45347,15.24,5,WALK
1759223392.84919,2.758719,1.562516,-2.078466,-0.749464,1.210157,-0.3064,15.26,5,WALK
1759223392.86933,2.122011,0.187795,-2.921375,-1.622777,1.03186,-0.137498,15.28,5,WALK
1759223392.88927,0.984316,1.634192,-3.905242,-2.480906,1.149177,0.077222,15.30,5,WALK
1759223392.90924,0.625784,3.796306,-3.267936,-2.927581,1.817548,0.257565,15.32,5,WALK
1759223392.92927,1.354969,8.310873,-4.23639,-1.637478,2.703799,0.384385,15.34,5,WALK
1759223392.94843,0.795474,18.423681,-12.208782,-0.102457,1.195523,0.636423,15.36,5,WALK
1759223392.96932,4.937293,21.659145,-18.236784,-0.494294,-1.281311,-0.004152,15.38,5,WALK
1759223392.98927,5.671265,9.299678,-9.292196,-0.664244,-0.801795,-0.50215,15.40,5,WALK
1759223393.00926,2.978537,4.977246,0.382923,0.11189,0.649136,-0.261884,15.42,5,WALK
1759223393.02931,1.611148,8.577078,2.941127,-0.041609,1.049896,-0.13895,15.44,5,WALK
1759223393.04927,4.648791,15.962142,3.710863,-0.651138,-0.519221,-0.337053,15.46,5,WALK
1759223393.06932,6.16073,18.331804,6.237943,-1.10563,-2.508111,-0.118433,15.48,5,WALK
1759223393.08926,4.266318,11.370213,3.637391,-1.489457,-3.244419,-0.419166,15.50,5,WALK
1759223393.10894,2.067243,7.540538,4.316297,-1.467855,-2.023945,-0.430645,15.52,5,WALK
1759223393.12931,0.873435,5.908142,0.79293,-1.212923,0.442055,-0.009959,15.54,5,WALK
1759223393.14876,2.093131,11.620108,5.631162,-1.158857,3.168916,0.004957,15.56,5,WALK
1759223393.16932,1.752256,12.111817,4.582203,-1.253365,3.584114,0.109175,15.58,5,WALK
1759223393.18879,2.982277,9.987113,-1.190068,-1.549037,1.566337,-0.12943,15.60,5,WALK
1759223393.20926,4.909759,8.467094,-6.275352,-1.497503,-1.271665,-0.548828,15.62,5,WALK
1759223393.22929,2.19249,7.924957,-1.694047,-1.261085,-2.024135,-0.543786,15.64,5,WALK
1759223393.24913,0.995838,7.621791,1.266982,-1.004014,-1.564992,-0.058033,15.66,5,WALK
1759223393.26932,0.280122,8.974515,1.145177,-0.879871,-0.665411,0.083942,15.68,5,WALK
1759223393.28927,-0.659004,9.611672,0.870292,-0.787684,0.244132,-0.162164,15.70,5,WALK
1759223393.30923,-1.417816,9.233837,-0.255731,-0.824725,0.632513,-0.333509,15.72,5,WALK
1759223393.32929,-1.745373,8.027758,-1.246182,-0.944053,0.379104,-0.274336,15.74,5,WALK
1759223393.34925,-1.0322,8.314613,-1.5483,-1.086298,-0.627867,-0.012647,15.76,5,WALK
1759223393.36932,0.350302,8.060978,-0.712125,-1.113283,-1.227593,0.087633,15.78,5,WALK
1759223393.38924,0.884807,7.654113,-0.523432,-1.198805,-1.385599,0.226312,15.80,5,WALK
1759223393.40924,1.934066,7.846547,-0.968903,-1.348585,-0.910867,0.410367,15.82,5,WALK
1759223393.42929,3.001281,9.283816,-0.477045,-1.068518,-0.122362,0.506904,15.84,5,WALK
1759223393.44925,2.223016,9.796325,-0.174477,-0.402786,-0.087208,0.604228,15.86,5,WALK
1759223393.46935,-0.104746,10.017639,-0.401478,-0.183821,-0.321293,0.666478,15.88,5,WALK
1759223393.48929,-0.629974,12.452841,1.507,-0.241757,0.020226,0.457234,15.90,5,WALK
1759223393.50921,-1.21401,13.677476,1.41647,-0.405273,0.595498,-0.034823,15.92,5,WALK
1759223393.52928,-3.089119,12.257415,-2.323423,-0.577053,0.203186,-0.173972,15.94,5,WALK
1759223393.54828,-3.316568,13.595624,-2.137124,0.559118,-0.486129,-0.194365,15.96,5,WALK
1759223393.56935,-1.685817,16.656162,1.337461,1.761583,-0.069418,-0.610733,15.98,5,WALK
1759223393.58923,-0.268001,12.406903,-0.514005,2.549054,0.362803,-0.760993,16.00,5,WALK
1759223393.60922,2.091335,12.978219,-2.843114,2.978782,0.001899,-0.859045,16.02,5,WALK
1759223393.62927,2.00694,12.819753,-1.336862,2.650834,-0.666666,-0.580347,16.04,5,WALK
1759223393.64872,1.72577,11.09907,1.868225,1.886794,-0.772991,-0.179486,16.06,5,WALK
1759223393.66935,2.523189,12.861651,3.806182,1.554755,-1.040384,-0.181026,16.08,5,WALK
1759223393.68926,2.225261,14.073417,2.336292,2.470062,-2.731075,-0.468906,16.10,5,WALK
1759223393.70920,1.06946,13.170503,1.085621,3.487025,-3.587781,-0.323796,16.12,5,WALK
1759223393.72934,1.381604,11.250054,-1.670255,3.101563,-2.369467,0.000256,16.14,5,WALK
1759223393.74901,2.616862,9.951798,-0.598999,1.788548,0.040951,0.060529,16.16,5,WALK
1759223393.76928,3.251475,9.853636,1.204283,0.768816,1.923718,-0.209854,16.18,5,WALK
1759223393.78921,2.557157,9.624391,-0.444424,0.686792,1.544965,-0.806404,16.20,5,WALK
1759223393.80920,1.190068,9.745598,-0.924012,1.21957,-0.209164,-1.307411,16.22,5,WALK
1759223393.82930,0.990302,8.55957,3.230077,1.544905,0.866705,-1.260844,16.24,5,WALK
1759223393.84923,1.439813,6.124218,5.616797,2.010854,2.782074,-0.807645,16.26,5,WALK
1759223393.86887,1.616984,5.316026,2.810643,2.220355,2.887662,-0.348814,16.28,5,WALK
1759223393.88874,2.268356,4.676923,0.471957,1.907194,2.572356,-0.195481,16.30,5,WALK
1759223393.90847,2.61791,3.407548,-1.582118,0.969195,2.36011,-0.099457,16.32,5,WALK
1759223393.92929,2.494908,1.246032,-2.757073,-0.154519,1.958064,0.069547,16.34,5,WALK
1759223393.94922,2.56823,0.407912,-2.565986,-1.059545,1.860436,0.148336,16.36,5,WALK
1759223393.96933,1.591695,1.930325,-3.223194,-1.924257,1.85796,0.272489,16.38,5,WALK
1759223393.98922,0.761805,3.271826,-3.381361,-2.622475,2.007605,0.492594,16.40,5,WALK
1759223394.00922,1.930475,5.509806,-3.287089,-2.502222,2.236684,0.538638,16.42,5,WALK
1759223394.02927,3.85661,10.363751,-5.532102,-1.53467,2.21782,0.330755,16.44,5,WALK
1759223394.04922,6.073641,19.047221,-11.665149,-0.685086,0.368974,-0.186315,16.46,5,WALK
1759223394.06932,4.361038,21.695507,-11.792491,-0.610306,-0.919389,-0.667705,16.48,5,WALK
1759223394.08921,0.48318,13.423391,-6.250812,-0.405429,-0.27736,-0.205908,16.50,5,WALK
1759223394.10918,0.511611,7.963414,-3.399916,-0.055056,0.713689,0.28254,16.52,5,WALK
1759223394.12921,4.519505,14.021492,-4.148403,-0.415102,0.608102,0.303327,16.54,5,WALK
1759223394.14927,6.772149,17.491588,-1.220295,-0.633943,-0.404487,0.456342,16.56,5,WALK
1759223394.16935,5.593304,13.237691,1.824082,-0.806702,-2.330234,-0.011292,16.58,5,WALK
1759223394.18921,4.494515,5.783643,4.445584,-1.083287,-3.789998,-0.300802,16.60,5,WALK
1759223394.20926,3.203143,3.995174,4.155137,-1.008358,-3.400434,0.106487,16.62,5,WALK
1759223394.22924,3.538929,4.624251,3.182493,-1.073137,-2.759819,0.19389,16.64,5,WALK
1759223394.24921,3.259406,5.541529,4.070292,-1.087869,-1.278717,0.24407,16.66,5,WALK
1759223394.26932,3.430442,8.44809,5.653159,-0.85112,0.581916,0.355489,16.68,5,WALK
1759223394.28921,3.645771,12.421567,6.028001,-0.546123,1.803006,0.314291,16.70,5,WALK
1759223394.30917,2.410662,11.959785,3.10528,-0.753909,2.170617,0.444396,16.72,5,WALK
1759223394.32921,0.446818,10.108619,-2.568529,-2.376965,2.508125,0.465212,16.74,5,WALK
1759223394.34872,-0.119112,9.800964,-10.345046,-2.458065,-0.461524,-0.275523,16.76,5,WALK
1759223394.36926,-0.022446,10.503063,-2.962825,-1.250022,-1.863962,-0.786334,16.78,5,WALK
1759223394.38920,-0.610671,10.102484,2.577508,-0.582916,-1.038555,-0.620513,16.80,5,WALK
1759223394.40918,-0.726341,8.656386,3.723881,-0.215093,-0.28717,-0.148238,16.82,5,WALK
1759223394.42925,0.134823,7.716063,0.752378,-0.702581,-0.258831,0.065592,16.84,5,WALK
1759223394.44920,1.181987,8.200739,-1.253065,-1.6165,0.071971,-0.09561,16.86,5,WALK
1759223394.46931,0.85488,8.599972,-1.023222,-1.857679,0.207177,-0.160333,16.88,5,WALK
1759223394.48920,0.678607,8.737489,-1.026215,-1.357332,-0.343285,0.075009,16.90,5,WALK
1759223394.50919,1.104026,8.396016,-0.536002,-0.710957,-0.6154,0.261869,16.92,5,WALK
1759223394.52923,1.037587,8.516175,-0.055216,-0.63753,-0.336617,0.397926,16.94,5,WALK
1759223394.54920,0.824653,8.841039,-0.438139,-0.946389,-0.065843,0.512404,16.96,5,WALK
1759223394.56854,0.727388,9.829545,-2.418443,-1.329385,0.000441,0.58705,16.98,5,WALK
1759223394.58850,-0.443077,10.31437,-2.555361,-0.84651,-0.470393,0.643776,17.00,5,WALK
1759223394.60918,-1.520318,10.074801,0.630872,-0.080043,-0.145199,0.71452,17.02,5,WALK
1759223394.62924,-1.223287,12.250382,1.558027,0.149288,0.909875,0.526726,17.04,5,WALK
1759223394.64865,-1.668459,13.980941,0.506972,0.071378,1.56014,0.129748,17.06,5,WALK
1759223394.66930,-2.771588,13.508385,-2.506131,0.246089,0.814998,-0.101558,17.08,5,WALK
1759223394.68919,-1.655291,13.628544,-1.305588,1.132509,0.354433,-0.384509,17.10,5,WALK
1759223394.70915,0.312892,12.902951,0.49156,2.610024,0.282136,-0.784074,17.12,5,WALK
1759223394.72922,2.368614,13.162722,-2.021005,3.45988,-0.667197,-0.878226,17.14,5,WALK
1759223394.74919,3.90629,12.775161,-2.066196,2.900003,-1.268565,-0.684289,17.16,5,WALK
1759223394.76930,5.055806,12.294974,1.202637,2.52735,-0.507879,-0.623748,17.18,5,WALK
1759223394.78921,5.642235,13.937246,3.162142,2.519977,-0.637845,-0.432691,17.20,5,WALK
1759223394.80915,6.082769,16.03352,1.904438,2.496459,-2.319812,-0.231743,17.22,5,WALK
1759223394.82923,5.110124,14.529662,-0.407762,2.796745,-4.0625,-0.365028,17.24,5,WALK
1759223394.84918,2.254739,11.563844,-1.452831,2.718199,-3.545563,-0.132445,17.26,5,WALK
1759223394.86927,1.203835,9.955839,0.366014,1.980022,-0.865357,-0.15841,17.28,5,WALK
1759223394.88918,0.425869,8.760085,1.731756,1.28217,1.427304,-0.459188,17.30,5,WALK
1759223394.90915,0.238522,7.347506,0.463128,1.626776,1.739159,-0.614402,17.32,5,WALK
1759223394.92920,0.145597,7.770082,-0.778564,1.606208,0.914349,-0.579098,17.34,5,WALK
1759223394.94918,0.953491,8.411728,-0.244957,1.340959,0.364927,-0.702695,17.36,5,WALK
1759223394.96878,2.685247,7.963264,4.291307,1.718726,1.800656,-0.873113,17.38,5,WALK
1759223394.98918,3.132514,5.889437,2.594267,1.71937,2.442214,-0.580971,17.40,5,WALK
1759223395.00915,3.805584,5.072715,0.407463,1.301497,2.212415,-0.459414,17.42,5,WALK
1759223395.02921,3.940108,4.616919,-0.563386,0.586219,2.052387,-0.561663,17.44,5,WALK
1759223395.04887,3.048717,3.686322,-1.49488,-0.174241,1.855925,-0.57867,17.46,5,WALK
1759223395.06921,2.224213,1.778293,-2.565686,-0.931148,1.520829,-0.436249,17.48,5,WALK
1759223395.08918,1.369034,0.245705,-3.450045,-1.742331,1.494784,-0.22568,17.50,5,WALK
1759223395.10914,0.05372,2.434005,-3.864092,-2.94669,2.212195,0.115286,17.52,5,WALK
1759223395.12921,0.098162,2.953248,-3.587711,-3.000285,2.388521,0.301965,17.54,5,WALK
1759223395.14890,1.631349,5.957522,-3.03884,-1.96821,2.6579,0.427914,17.56,5,WALK
1759223395.16921,3.990685,14.803499,-6.758083,-0.659839,1.372743,0.286499,17.58,5,WALK
1759223395.18916,5.992238,23.693469,-13.033136,-0.242981,-0.844789,-0.217761,17.60,5,WALK
1759223395.20920,3.310133,12.30889,-8.53488,-0.465103,-0.346237,-0.437815,17.62,5,WALK
1759223395.22915,3.4065,9.743952,-3.550003,-0.11949,1.169489,-0.140675,17.64,5,WALK
1759223395.24919,5.112219,14.445416,-4.287866,0.01345,0.48058,-0.226523,17.66,5,WALK
1759223395.26858,7.663091,23.615956,-1.254562,0.126157,-0.313374,-0.338821,17.68,5,WALK
1759223395.28830,2.854936,12.583026,3.757849,-0.193092,-1.923135,-0.503956,17.70,5,WALK
1759223395.30847,2.741511,4.740968,6.552631,-1.335937,-2.852084,-1.032605,17.72,5,WALK
1759223395.32915,1.703175,2.183961,2.682703,-1.539635,-2.734425,-0.216689,17.74,5,WALK
1759223395.34917,2.025944,3.2621,1.614739,-1.568026,-2.604741,-0.07281,17.76,5,WALK
1759223395.36918,2.400935,6.221782,4.745457,-1.291108,-1.084294,0.381312,17.78,5,WALK
1759223395.38820,3.077746,8.982446,7.152977,-0.970587,0.344886,0.53516,17.80,5,WALK
1759223395.40914,1.945887,17.557728,-2.288258,-1.895254,3.861879,0.496182,17.82,5,WALK
1759223395.42916,0.46238,11.729643,-5.989095,-1.007864,0.965576,0.158635,17.84,5,WALK
1759223395.44901,0.131232,8.90224,-1.170914,-0.518639,-0.591562,0.066375,17.86,5,WALK
1759223395.46839,0.326509,7.93633,0.69372,-0.819119,-0.512359,0.017842,17.88,5,WALK
1759223395.48839,0.325911,6.473622,1.590498,-1.315088,0.160738,-0.096928,17.90,5,WALK
1759223395.50916,0.573262,8.029703,2.689137,-1.138514,0.230188,-0.094476,17.92,5,WALK
1759223395.52860,1.069011,8.822483,2.04824,-1.080725,0.025144,-0.08738,17.94,5,WALK
1759223395.54915,0.235679,9.837026,0.310797,-1.396918,-0.083465,-0.039154,17.96,5,WALK
1759223395.56915,0.15263,8.900594,-0.701501,-1.730869,-0.30021,-0.01914,17.98,5,WALK
1759223395.58915,0.584185,7.806893,-0.570119,-1.687888,-0.810827,-0.005768,18.00,5,WALK
1759223395.60913,0.185401,6.733243,-0.004788,-1.491722,-1.048132,0.24234,18.02,5,WALK
1759223395.62916,0.251391,7.086388,-0.397587,-1.430212,-0.770445,0.457094,18.04,5,WALK
1759223395.64915,0.799813,9.270199,-1.556231,-1.449241,-0.298719,0.450607,18.06,5,WALK
1759223395.66915,0.94556,11.205163,-1.563713,-1.298468,-0.05911,0.415349,18.08,5,WALK
1759223395.68833,2.079813,11.800721,-2.314146,-0.79587,-0.205377,0.413803,18.10,5,WALK
1759223395.70911,2.846107,11.582848,-3.060239,0.131295,-0.645096,0.267382,18.12,5,WALK
1759223395.72824,1.811363,12.208483,-1.208024,0.575657,-0.707322,0.10777,18.14,5,WALK
1759223395.74915,-1.153706,12.790125,1.613842,0.967847,-0.318879,-0.663245,18.16,5,WALK
1759223395.76916,-2.659958,12.357822,-1.646014,0.956057,-1.07933,-0.752879,18.18,5,WALK
1759223395.78920,-2.935441,13.966875,1.639579,1.942693,-1.028509,-0.987548,18.20,5,WALK
1759223395.80918,-3.498378,13.52694,2.476203,3.632322,-0.622851,-1.009438,18.22,5,WALK
1759223395.82914,-0.985064,12.626421,-3.011457,4.337964,-1.343167,-0.470698,18.24,5,WALK
1759223395.84913,4.040215,14.057405,-5.055058,3.193165,-1.494999,0.020539,18.26,5,WALK
1759223395.86832,4.942829,13.22138,-2.665195,2.303916,-0.598412,0.247154,18.28,5,WALK
1759223395.88820,7.24246,15.974413,2.563891,2.230863,-0.923885,0.1001,18.30,5,WALK
1759223395.90911,7.843105,16.666038,0.685191,2.889363,-2.544244,-0.282233,18.32,5,WALK
1759223395.92914,3.806631,13.641712,-0.330101,3.142486,-2.579349,-0.477464,18.34,5,WALK
1759223395.94914,1.226579,9.730484,-1.033547,2.445156,-1.408935,-0.364731,18.36,5,WALK
1759223395.96915,-0.068534,8.127118,-0.38382,1.737139,-0.046507,0.088579,18.38,5,WALK
1759223395.98914,0.969652,7.381623,-0.892289,1.326775,0.489145,0.519162,18.40,5,WALK
1759223396.00913,2.15957,7.80824,-1.104475,1.052261,0.363336,0.121524,18.42,5,WALK
1759223396.02913,3.230676,8.855853,0.468366,1.310641,0.996906,-0.873528,18.44,5,WALK
1759223396.04913,2.190395,5.773468,3.662081,1.958056,2.322542,-0.678486,18.46,5,WALK
1759223396.06914,1.039532,3.610157,1.584662,1.965345,2.458095,-0.173553,18.48,5,WALK
1759223396.08849,1.795352,3.270629,-1.7961,0.982895,1.631391,-0.065667,18.50,5,WALK
1759223396.10910,2.4774,2.883666,-1.624765,-0.142834,0.99142,-0.130095,18.52,5,WALK
1759223396.12911,2.63018,2.868852,-0.173879,-0.756933,0.811771,-0.277855,18.54,5,WALK
1759223396.14913,2.253542,2.434005,-0.484527,-1.231021,0.932676,-0.209671,18.56,5,WALK
1759223396.16901,1.794753,1.953519,-1.109264,-1.814172,1.339137,-0.011766,18.58,5,WALK
1759223396.18913,0.997185,2.261623,-1.831415,-2.37984,1.674267,0.31617,18.60,5,WALK
1759223396.20909,0.952593,3.833416,-1.992574,-2.536481,2.399934,0.434069,18.62,5,WALK
1759223396.22912,1.559822,8.56391,-4.428076,-1.613349,2.552131,0.612786,18.64,5,WALK
1759223396.24913,2.281375,20.548984,-11.950209,0.288704,1.441343,0.389321,18.66,5,WALK
1759223396.26913,4.491073,28.515091,-21.892131,0.268837,-0.607343,-0.240135,18.68,5,WALK
1759223396.28913,6.770054,11.861324,-9.29055,-0.102738,0.329532,-0.717246,18.70,5,WALK
1759223396.30909,5.892729,5.494543,-0.952294,0.435656,0.908947,-0.417601,18.72,5,WALK
1759223396.32912,3.963302,5.820903,0.868497,0.603432,0.674226,-0.367749,18.74,5,WALK
1759223396.34912,5.441272,12.670265,-0.238522,-0.083685,0.08387,-0.680548,18.76,5,WALK
1759223396.36915,5.538387,20.491972,-0.789638,-1.468187,-0.938104,-0.873896,18.78,5,WALK
1759223396.38912,1.141136,16.812683,-3.824288,-1.912026,-3.802423,-1.077152,18.80,5,WALK
1759223396.40911,2.70889,5.626673,5.152472,-1.324728,-4.025128,-0.683514,18.82,5,WALK
1759223396.42910,2.679261,2.08939,3.24549,-0.861796,-3.516464,-0.312118,18.84,5,WALK
1759223396.44912,2.849399,2.401983,2.293795,-0.626548,-2.323714,-0.081384,18.86,5,WALK
1759223396.46910,5.610812,3.811719,2.543091,-1.063856,2.046854,0.506975,18.88,5,WALK
1759223396.48912,5.158906,9.892542,4.173542,-1.360681,2.554536,0.610559,18.90,5,WALK
1759223396.50908,4.838382,13.950564,4.757728,-1.374298,2.170155,0.434461,18.92,5,WALK
1759223396.52910,2.537405,12.260856,3.086575,-1.617786,1.539424,0.498204,18.94,5,WALK
1759223396.54912,-0.841562,10.382455,-2.313996,-2.891413,2.170936,0.435042,18.96,5,WALK
1759223396.56910,-3.404405,10.633248,-10.319308,-2.874265,0.222581,-0.207619,18.98,5,WALK
1759223396.58838,-2.347365,9.053674,-2.944718,-1.508456,-1.676433,-0.493008,19.00,5,WALK
1759223396.60908,-0.906205,9.020005,1.241693,-0.890519,-1.802597,-0.250971,19.02,5,WALK
1759223396.62912,0.583287,9.616311,1.802235,-0.915122,-1.254994,-0.119542,19.04,5,WALK
1759223396.64911,0.403423,7.551761,0.735768,-1.269128,-0.710047,-0.113061,19.06,5,WALK
1759223396.66918,0.352397,6.033239,-0.335637,-1.600459,-0.125876,-0.224058,19.08,5,WALK
1759223396.68911,-0.058508,6.030994,-0.946907,-1.603922,-0.006645,-0.107927,19.10,5,WALK
1759223396.70908,-1.093851,8.633641,-1.77126,-1.266339,-0.564469,0.270812,19.12,5,WALK
1759223396.72909,-1.300201,9.800814,-0.144999,-0.710347,-0.932802,0.406537,19.14,5,WALK
1759223396.74911,-0.60304,11.044303,-0.156072,-0.592778,-0.427723,0.494499,19.16,5,WALK
1759223396.76909,1.171962,12.076204,-0.572513,-0.748554,0.307357,0.390897,19.18,5,WALK
1759223396.78911,0.65227,10.256012,-0.161758,-0.713106,0.329219,0.39447,19.20,5,WALK
1759223396.80844,-0.455347,10.269329,0.533458,-0.238123,-0.091664,0.309572,19.22,5,WALK
1759223396.82913,-1.426046,12.492046,3.496133,0.157001,0.347113,0.128195,19.24,5,WALK
1759223396.84910,-1.719336,12.937368,0.689829,-0.010348,0.648382,-0.138306,19.26,5,WALK
1759223396.86909,-1.778443,14.526519,1.026963,0.634081,0.517038,-0.643184,19.28,5,WALK
1759223396.88910,-1.619079,17.526155,3.036147,1.713168,0.482816,-1.213823,19.30,5,WALK
1759223396.90907,-2.060959,14.269592,0.676362,2.841133,0.131637,-1.097811,19.32,5,WALK
1759223396.92908,1.769764,10.193314,-2.546233,3.605831,-0.277793,-0.732533,19.34,5,WALK
1759223396.94910,4.057424,11.274445,-4.57502,3.159968,-0.979705,0.052083,19.36,5,WALK
1759223396.96909,5.031415,10.647464,-2.298284,2.508568,-1.266073,0.938076,19.38,5,WALK
1759223396.98895,7.553557,13.658472,0.131232,2.275564,-2.206549,0.935145,19.40,5,WALK
1759223397.00908,9.41849,15.888521,2.082955,2.598462,-2.187856,-0.278317,19.42,5,WALK
1759223397.02911,3.995025,13.716681,2.921076,2.779271,-1.644351,-0.408102,19.44,5,WALK
1759223397.04910,1.396568,11.329362,1.269825,2.46915,-0.925031,-0.149962,19.46,5,WALK
1759223397.06880,1.004218,9.631125,1.836502,1.981801,0.252246,0.302759,19.48,5,WALK
1759223397.08909,1.678036,8.577227,-0.390255,1.755647,-0.174491,0.252739,19.50,5,WALK
1759223397.10906,1.664569,8.804527,-1.580921,1.525245,-0.590175,-0.198449,19.52,5,WALK
1759223397.12818,1.650652,8.656386,-0.724845,1.384404,-0.028032,-0.679422,19.54,5,WALK
1759223397.14864,1.642273,7.29214,1.167473,1.336367,0.982312,-1.002692,19.56,5,WALK
1759223397.16908,1.067066,5.242853,4.086902,1.619137,2.154936,-0.757578,19.58,5,WALK
1759223397.18879,0.648829,3.712808,3.268684,1.696752,2.317014,-0.222496,19.60,5,WALK
1759223397.20908,1.813159,3.290531,0.364966,1.059364,2.072757,0.025642,19.62,5,WALK
1759223397.22908,3.341707,3.975422,-1.3005,0.069132,1.698253,-0.151635,19.64,5,WALK
1759223397.24848,3.021183,3.078794,-1.419163,-0.765472,1.524218,-0.16936,19.66,5,WALK
1759223397.26913,1.933318,1.467795,-1.352275,-1.333827,1.423415,0.002398,19.68,5,WALK
1759223397.28908,1.11495,1.61848,-1.394922,-1.882158,1.453291,0.160737,19.70,5,WALK
1759223397.30877,0.967557,3.206883,-1.386392,-2.4386,2.095994,0.066905,19.72,5,WALK
1759223397.32909,1.913715,5.653907,-0.52044,-2.552054,2.988677,0.178889,19.74,5,WALK
1759223397.34908,4.320038,13.90253,-4.313902,-0.687941,3.184629,0.484557,19.76,5,WALK
1759223397.36914,4.052934,28.658444,-19.426552,0.602414,0.069089,-0.11442,19.78,5,WALK
1759223397.38841,0.291494,19.999964,-18.687642,-0.327486,-1.426362,-0.254111,19.80,5,WALK
1759223397.40908,5.279215,7.864055,-8.644564,-0.403182,-0.348091,-0.230204,19.82,5,WALK
1759223397.42909,7.932738,4.743662,1.505654,0.44938,0.842094,0.110845,19.84,5,WALK
1759223397.44909,11.614422,14.358776,1.458667,0.623746,0.215236,0.463108,19.86,5,WALK
1759223397.46907,10.508301,17.90369,3.631256,-0.909402,-0.811961,0.614097,19.88,5,WALK
1759223397.48911,2.293645,10.395175,1.253065,-2.810679,-2.539108,-0.827462,19.90,5,WALK
1759223397.50905,1.393874,4.001609,5.564424,-2.952676,-2.802523,-1.341296,19.92,5,WALK
1759223397.52860,0.53675,1.938256,3.632902,-2.289248,-2.790196,-0.936882,19.94,5,WALK
1759223397.54908,0.865803,3.711013,3.645022,-1.128365,-2.606225,-0.143363,19.96,5,WALK
1759223397.56825,1.290624,9.098266,5.875371,0.562132,-1.364892,0.6713,19.98,5,WALK
1759223397.58906,1.704971,16.866103,5.754015,0.302823,1.314558,0.701495,20.00,5,WALK
1759223397.60911,1.159093,16.492458,-2.856283,-1.759777,2.665294,-0.007395,20.02,5,WALK
1759223397.62908,1.053449,9.020903,-2.630479,-1.282828,0.071008,-0.413442,20.04,5,WALK
1759223397.64908,1.410933,8.384494,0.232238,-0.921303,-1.545197,-0.687283,20.06,5,WALK
1759223397.66913,1.220295,6.888118,-0.890044,-1.386915,-1.665577,-0.590792,20.08,5,WALK
1759223397.68913,1.216554,7.305009,1.992874,-1.236549,-0.456676,-0.386708,20.10,5,WALK
1759223397.70905,0.595408,7.914632,1.208174,-1.12485,0.252295,0.176669,20.12,5,WALK
1759223397.72906,1.235109,8.933066,0.773626,-0.989117,0.476943,0.45068,20.14,5,WALK
1759223397.74901,0.957681,9.47221,0.530465,-0.928944,0.46986,0.32267,20.16,5,WALK
1759223397.76908,0.146346,9.149292,0.585981,-1.020417,0.422516,0.124254,20.18,5,WALK
1759223397.78911,0.225055,8.491635,0.049829,-1.267234,0.038918,0.043679,20.20,5,WALK
1759223397.80910,0.823755,7.648427,-1.000178,-1.586519,-0.555005,0.058628,20.22,5,WALK
1759223397.82855,1.754052,7.331794,-2.748992,-1.857098,-1.366772,0.172014,20.24,5,WALK
1759223397.84907,1.945289,7.722049,-1.483358,-1.41492,-1.540648,0.422812,20.26,5,WALK
1759223397.86912,1.633444,8.80348,1.328183,-0.337443,-0.678995,0.587539,20.28,5,WALK
1759223397.88914,1.013047,10.891523,-0.243909,-0.135456,0.078239,0.590602,20.30,5,WALK
1759223397.90910,-0.37559,11.642105,0.228946,-0.204054,0.373569,0.328826,20.32,5,WALK
1759223397.92914,-0.414945,12.943653,2.570026,0.009386,0.727906,-0.170835,20.34,5,WALK
1759223397.94914,-2.053028,13.358149,-0.089184,-0.026472,0.253909,-0.492289,20.36,5,WALK
1759223397.96817,-4.420444,12.388198,-5.505167,-0.217265,-1.729816,-0.4278,20.38,5,WALK
1759223397.98914,-3.104681,13.088652,-1.953669,0.775877,-2.30337,-0.549559,20.40,5,WALK
1759223398.00901,-0.309151,13.355306,0.149787,2.357799,-1.104139,-0.952065,20.42,5,WALK
1759223398.02913,1.278953,13.130999,-3.316867,3.450271,-0.326864,-1.11943,20.44,5,WALK
1759223398.04914,1.7961,13.629442,-2.958784,3.424822,0.477714,-1.114914,20.46,5,WALK
1759223398.06910,2.259528,13.45257,0.171036,2.992004,1.264932,-0.952909,20.48,5,WALK
1759223398.08900,2.641104,13.371317,2.305317,2.594857,1.064743,-0.428038,20.50,5,WALK
1759223398.10901,3.12982,15.803676,2.5805,2.257043,-1.112023,0.212203,20.52,5,WALK
1759223398.12905,5.423465,16.065392,0.851887,3.135742,-3.880649,0.203043,20.54,5,WALK
1759223398.14907,5.324106,13.101371,-3.191321,3.361318,-4.341957,-0.275048,20.56,5,WALK
1759223398.16917,2.512864,10.052205,-2.348861,2.239916,-1.578817,-0.185852,20.58,5,WALK
1759223398.18907,0.902015,8.064569,2.226458,1.174675,1.439203,0.107392,20.60,5,WALK
1759223398.20891,0.982969,7.670573,2.615067,0.732775,3.036717,-0.1522,20.62,5,WALK
1759223398.22906,-0.292242,7.532458,1.368885,1.67996,1.948396,-0.744926,20.64,5,WALK
1759223398.24907,-0.110133,8.155848,4.494365,2.544124,1.928064,-0.793313,20.66,5,WALK
1759223398.26918,-0.436493,6.533028,2.800168,2.558161,2.124252,-0.421356,20.68,5,WALK
1759223398.28906,1.91177,3.907636,-0.376937,1.811771,1.902576,-0.081866,20.70,5,WALK
1759223398.30903,4.22412,3.370138,-0.360178,0.822537,1.968199,-0.187655,20.72,5,WALK
1759223398.32906,5.291635,3.269133,-1.107169,-0.097467,1.53141,-0.340119,20.74,5,WALK
1759223398.34906,5.457433,3.019088,-1.634791,-0.822363,1.358304,-0.443518,20.76,5,WALK
1759223398.36910,3.301155,2.243217,-3.349937,-1.674639,1.259729,-0.261343,20.78,5,WALK
1759223398.38885,1.27162,1.664569,-5.049072,-2.82511,1.218478,-0.053046,20.80,5,WALK
1759223398.40907,0.512958,2.87394,-5.513996,-3.746354,1.558613,0.158841,20.82,5,WALK
1759223398.42890,1.925686,5.829881,-2.7457,-3.557657,2.415052,0.115885,20.84,5,WALK
1759223398.44869,4.103362,12.230031,-3.200299,-1.970064,2.690598,0.161187,20.86,5,WALK
1759223398.46917,5.574749,22.448933,-11.48738,0.231211,-0.334751,0.143226,20.88,5,WALK
1759223398.48906,3.824588,22.797588,-12.282554,0.737367,-0.99932,-0.051239,20.90,5,WALK
1759223398.50902,1.193958,10.576386,-5.65705,0.660261,0.55123,0.22432,20.92,5,WALK
1759223398.52906,2.380136,8.231714,-2.476951,0.187571,0.814938,0.08354,20.94,5,WALK
1759223398.54905,5.273977,15.392472,-2.820669,-0.863059,-0.920616,-0.619966,20.96,5,WALK
1759223398.56907,2.809147,17.921198,1.55653,-1.564477,-1.056803,-0.996555,20.98,5,WALK
1759223398.58902,2.872144,8.371625,6.473622,-1.950324,-1.977186,-0.912315,21.00,5,WALK
1759223398.60904,1.910274,2.725948,5.067178,-1.48278,-2.152723,-0.595278,21.02,5,WALK
1759223398.62910,2.270751,2.313547,1.604714,-1.440439,-2.779099,-0.386649,21.04,5,WALK
1759223398.64905,3.124732,3.709815,1.269376,-1.582524,-2.879159,0.050877,21.06,5,WALK
1759223398.66910,5.191078,7.728034,4.95495,-1.259289,-1.523001,0.408361,21.08,5,WALK
1759223398.68847,6.285079,12.121843,5.130774,-0.772473,0.333164,0.805734,21.10,5,WALK
1759223398.70904,5.606322,15.512033,3.954473,-0.79003,2.429494,0.767192,21.12,5,WALK
1759223398.72845,1.721581,14.217518,-3.628712,-1.847882,3.217966,0.38006,21.14,5,WALK
1759223398.74907,-0.853982,10.484359,-7.281964,-1.24033,0.206425,-0.109718,21.16,5,WALK
1759223398.76911,-0.228796,8.871116,0.942867,-0.393762,-1.169189,-0.19827,21.18,5,WALK
1759223398.78904,1.019032,8.300996,3.636044,-0.165323,-1.185242,-0.433547,21.20,5,WALK
1759223398.80904,0.758513,7.01127,2.987515,-0.314318,-0.986285,-0.439758,21.22,5,WALK
1759223398.82913,0.135422,7.155371,1.369633,-0.575532,-0.37009,-0.463275,21.24,5,WALK
1759223398.84903,-0.98686,7.776217,-1.329081,-1.376153,0.076921,-0.234117,21.26,5,WALK
1759223398.86911,-0.52852,8.867674,0.984167,-1.617105,0.681918,-0.121304,21.28,5,WALK
1759223398.88904,-0.374244,8.945935,1.843835,-1.46153,0.790897,0.008816,21.30,5,WALK
1759223398.90901,-0.026187,9.092879,1.058237,-1.294811,0.069159,0.170448,21.32,5,WALK
1759223398.92904,1.727416,9.702353,-1.925237,-1.570305,-0.914967,0.019055,21.34,5,WALK
1759223398.94906,2.748693,8.908824,-3.181595,-1.627005,-1.841549,0.05419,21.36,5,WALK
1759223398.96909,2.055272,8.008605,1.027113,-0.768237,-1.56924,0.419889,21.38,5,WALK
1759223398.98904,1.619977,8.372822,2.185158,-0.275015,-0.148753,0.662392,21.40,5,WALK
1759223399.00905,0.127491,9.297284,0.907253,-0.346407,0.727083,0.713477,21.42,5,WALK
1759223399.02864,-0.749235,10.194361,0.382324,-0.325282,0.733611,0.449449,21.44,5,WALK
1759223399.04819,-1.149965,11.075278,0.770933,-0.029399,0.384917,0.145964,21.46,5,WALK
1759223399.06907,-1.123479,11.493664,2.086996,0.403417,0.145944,-0.206067,21.48,5,WALK
1759223399.08833,-0.997335,10.520721,0.207398,0.576506,-0.36937,-0.445222,21.50,5,WALK
1759223399.10901,-0.183605,12.932131,-1.912668,0.932749,-1.052114,-0.724094,21.52,5,WALK
1759223399.12916,-0.29718,15.733646,0.268599,2.187181,-1.141019,-1.090606,21.54,5,WALK
1759223399.14908,-0.251092,16.00045,-1.971924,3.676944,-1.279116,-1.073277,21.56,5,WALK
1759223399.16909,1.350928,13.090447,-3.200449,3.788926,-0.841183,-0.790333,21.58,5,WALK
1759223399.18903,3.021632,11.948862,-3.520823,2.950357,-0.827303,-0.284773,21.60,5,WALK
1759223399.20908,3.645022,12.772018,-1.048361,2.381711,-1.095909,0.334888,21.62,5,WALK
1759223399.22911,5.916372,15.764172,2.322226,2.484009,-1.411256,0.237683,21.64,5,WALK
1759223399.24903,4.609586,15.697134,2.454356,2.886376,-1.833573,-0.014039,21.66,5,WALK
1759223399.26907,2.177077,13.556419,0.269647,3.094338,-1.663153,-0.455501,21.68,5,WALK
1759223399.28901,-0.496647,10.923994,-1.023372,2.573123,-0.815288,-0.460831,21.70,5,WALK
1759223399.30900,-1.546654,8.330774,-0.895132,1.769828,0.321816,-0.014031,21.72,5,WALK
1759223399.32908,0.045639,8.176199,-1.26369,1.345412,0.684162,0.040042,21.74,5,WALK
1759223399.34903,1.205331,8.835203,-1.194557,1.214286,0.486952,-0.357257,21.76,5,WALK
1759223399.36908,1.825429,8.408885,1.545158,1.207523,0.880584,-1.017533,21.78,5,WALK
1759223399.38896,1.328183,6.298247,3.472939,1.441707,2.024633,-0.928581,21.80,5,WALK
1759223399.40891,1.43278,4.031237,3.874118,1.839124,2.704459,-0.237259,21.82,5,WALK
1759223399.42888,2.405424,3.845836,0.756119,1.489536,1.885826,-0.026968,21.84,5,WALK
1759223399.44903,3.697246,4.566341,-1.07769,0.568529,1.289213,-0.341659,21.86,5,WALK
1759223399.46888,3.976021,5.080496,-1.673397,-0.421716,1.255369,-0.616468,21.88,5,WALK
1759223399.48888,2.891298,3.684826,-1.508646,-1.07292,1.255369,-0.48263,21.90,5,WALK
1759223399.50899,2.083404,1.706916,-2.094926,-1.71292,1.102584,-0.287637,21.92,5,WALK
1759223399.52908,1.211316,1.323545,-3.21676,-2.477874,1.096989,-0.019676,21.94,5,WALK
1759223399.54906,0.391302,2.165406,-3.951331,-3.05211,1.478605,0.299743,21.96,5,WALK
1759223399.56859,1.204283,4.782567,-3.049315,-2.58862,2.429439,0.390517,21.98,5,WALK
1759223399.58903,3.10498,12.222699,-4.980388,-0.905102,2.808097,0.370161,22.00,5,WALK
1759223399.60902,4.62455,23.041198,-14.787188,0.224053,0.288737,0.036489,22.02,5,WALK
1759223399.62902,3.773711,23.072921,-15.532533,-0.366119,-0.980668,-0.36358,22.04,5,WALK
1759223399.64902,1.922843,10.940604,-5.895422,-0.178389,0.746904,-0.317857,22.06,5,WALK
1759223399.66908,0.563834,7.329549,-2.179322,0.246733,2.008512,0.101039,22.08,5,WALK
1759223399.68898,3.36116,15.13734,-4.994005,0.200374,1.409733,0.146788,22.10,5,WALK
1759223399.70899,4.957195,21.359421,-1.820491,-0.215304,0.596158,-0.142679,22.12,5,WALK
1759223399.72906,2.922572,13.263279,2.5187,-1.446729,-0.720198,-0.421117,22.14,5,WALK
1759223399.74902,3.287688,5.95423,7.466916,-1.236459,-1.308987,-0.829136,22.16,5,WALK
1759223399.76908,1.842189,3.751115,3.875015,-1.041862,-1.825843,-0.496709,22.18,5,WALK
1759223399.78901,1.693149,2.810643,1.715745,-1.392384,-1.717631,-0.361169,22.20,5,WALK
1759223399.80880,1.845481,2.811092,2.982577,-1.573715,-0.568415,-0.143881,22.22,5,WALK
1759223399.82906,2.689287,5.513846,5.377227,-1.011069,0.74122,0.081214,22.24,5,WALK
1759223399.84902,4.309862,11.20651,6.867767,-0.168544,1.233369,0.108604,22.26,5,WALK
1759223399.86882,4.520253,14.094815,4.411915,-0.104862,0.330967,0.089524,22.28,5,WALK
1759223399.88835,3.684826,11.870302,2.16346,-0.362538,0.004763,0.205552,22.30,5,WALK
1759223399.90901,2.603844,10.222643,-3.860949,-2.760168,0.863383,0.034014,22.32,5,WALK
1759223399.92923,1.370531,8.428637,-13.087903,-3.122301,-1.389169,-0.948061,22.34,5,WALK
1759223399.94907,1.707066,8.389881,1.505504,-0.635379,-2.169717,-1.238017,22.36,5,WALK
1759223399.96912,0.060454,8.920496,5.141997,0.022645,-1.018088,-0.619917,22.38,5,WALK
1759223399.98906,-0.42542,9.390059,3.079692,0.08485,-0.439388,-0.162331,22.40,5,WALK
1759223400.00906,-0.49126,9.489718,1.117643,-0.383516,-0.375018,0.196686,22.42,5,WALK
1759223400.02923,-0.322619,9.655067,-0.075268,-1.265098,-0.428908,0.299474,22.44,5,WALK
1759223400.04902,-0.439635,9.243115,-3.122787,-2.643452,-0.420172,0.241374,22.46,5,WALK
1759223400.06927,0.160412,9.255235,-0.781258,-2.906048,-0.613651,0.134496,22.48,5,WALK
1759223400.08922,0.556502,8.450933,-0.657059,-2.125407,-1.012758,0.228865,22.50,5,WALK
1759223400.10901,1.517924,8.243536,-1.227328,-0.594816,-1.041672,0.498556,22.52,5,WALK
1759223400.12925,1.534683,9.431658,-0.465373,-0.150354,-0.168704,0.421547,22.54,5,WALK
1759223400.14901,0.427215,9.910199,0.106392,-0.346559,0.061073,0.364556,22.56,5,WALK
1759223400.16912,-0.579846,9.802161,-0.328155,-0.652745,-0.32082,0.308057,22.58,5,WALK
1759223400.18922,-1.934515,10.671855,0.695516,-0.546243,-0.715863,0.18809,22.60,5,WALK
1759223400.20915,-1.649755,12.439075,2.953846,-0.14499,-0.433974,-0.304216,22.62,5,WALK
1759223400.22911,-2.656816,12.110171,0.025738,-0.13759,-0.608719,-0.522238,22.64,5,WALK
1759223400.24906,-3.353528,11.762713,-3.954323,-0.115807,-1.435133,-0.462541,22.66,5,WALK
1759223400.26912,-1.412729,15.478364,-0.967257,1.203559,-1.250651,-0.750819,22.68,5,WALK
1759223400.28921,-1.240795,15.368231,1.772757,2.818342,-0.210142,-1.246285,22.70,5,WALK
1759223400.30917,-0.310797,12.047922,-0.341024,3.120539,0.699003,-1.048574,22.72,5,WALK
1759223400.32874,1.971176,12.830377,-2.402581,2.904802,0.112562,-0.648054,22.74,5,WALK
1759223400.34907,2.387468,11.639711,-0.34701,2.44132,-0.523037,0.140073,22.76,5,WALK
1759223400.36916,4.233697,12.609362,1.657386,2.496651,-0.838628,0.600498,22.78,5,WALK
1759223400.38921,6.741473,15.192407,1.684321,3.154906,-1.054675,0.657187,22.80,5,WALK
1759223400.40918,7.524377,14.033763,-0.213084,3.162023,-1.542498,0.329459,22.82,5,WALK
1759223400.42924,4.729446,11.932402,-2.269703,2.827445,-2.199388,0.093342,22.84,5,WALK
1759223400.44920,1.685668,10.596437,-0.087239,2.492177,-1.656913,0.18188,22.86,5,WALK
1759223400.46912,0.728735,10.183437,0.979079,2.116863,-0.765911,0.310894,22.88,5,WALK
1759223400.48910,1.783381,9.106196,1.343895,1.850486,0.340436,0.271767,22.90,5,WALK
1759223400.50916,2.875436,9.327959,0.535104,1.191075,0.874047,-0.345845,22.92,5,WALK
1759223400.52919,1.747019,9.008184,-0.449511,1.406746,0.357862,-0.868047,22.94,5,WALK
1759223400.54915,1.930475,7.785944,3.209727,1.672481,1.29595,-0.795061,22.96,5,WALK
1759223400.56904,1.643919,5.073613,3.108871,1.709579,2.038673,-0.593535,22.98,5,WALK
1759223400.58897,1.510891,3.565714,1.939902,1.438278,2.188123,-0.329787,23.00,5,WALK
1759223400.60898,1.706617,3.013252,-0.999729,0.648731,1.806801,-0.269369,23.02,5,WALK
1759223400.62900,2.110788,2.176479,-1.640028,-0.259364,1.620205,-0.303167,23.04,5,WALK
1759223400.64899,1.974019,0.537498,-2.184709,-1.133764,1.514181,-0.252945,23.06,5,WALK
1759223400.66905,1.178097,-0.477943,-2.850596,-1.979891,1.550563,-0.257907,23.08,5,WALK
1759223400.68899,-0.562188,0.510713,-2.823811,-2.734132,2.086662,0.089966,23.10,5,WALK
1759223400.70835,0.076764,2.599654,-2.081609,-3.028152,3.290777,0.370556,23.12,5,WALK
1759223400.72899,3.298462,9.114576,-3.156306,-1.30312,3.811923,0.409093,23.14,5,WALK
1759223400.74899,6.266075,24.706066,-13.218088,0.899237,0.893886,-0.204719,23.16,5,WALK
1759223400.76900,6.020519,26.806529,-21.373786,-0.205017,-1.313,-0.620778,23.18,5,WALK
1759223400.78899,4.985925,10.433781,-6.826019,-0.277691,0.200633,-0.341427,23.20,5,WALK
1759223400.80897,4.969016,5.133917,-1.056441,0.183481,1.120211,-0.020017,23.22,5,WALK
1759223400.82898,5.803545,8.157195,-2.681955,0.118346,0.935161,-0.184277,23.24,5,WALK
1759223400.84899,8.305635,18.145954,-2.059013,-0.44644,0.09795,0.265488,23.26,5,WALK
1759223400.86908,5.17791,19.603723,-0.608576,-1.832905,-0.806445,0.418358,23.28,5,WALK
1759223400.88899,3.937564,9.337536,8.137592,-1.874726,-2.260299,-0.419398,23.30,5,WALK
1759223400.90915,2.196381,3.300108,5.368848,-1.243481,-2.709474,-0.519303,23.32,5,WALK
1759223400.92901,1.231218,2.466626,2.61806,-1.310493,-3.24885,-0.352944,23.34,5,WALK
1759223400.94907,1.229722,3.29098,2.256984,-1.320673,-3.100477,0.270754,23.36,5,WALK
1759223400.96911,2.430863,6.811055,6.840085,-0.509892,-0.721171,0.443912,23.38,5,WALK
1759223400.98903,3.073856,14.025533,9.262418,0.280291,1.716943,0.306488,23.40,5,WALK
1759223401.00909,2.961029,15.254057,3.945046,-0.063128,2.221246,0.32639,23.42,5,WALK
1759223401.02916,1.442058,10.603321,-2.545186,-2.038801,2.423873,0.393619,23.44,5,WALK
1759223401.04905,2.736572,9.066393,-10.331579,-3.677803,0.23651,-0.439752,23.46,5,WALK
1759223401.06910,3.726276,9.165603,-4.540155,-2.110366,-2.855007,-1.096308,23.48,5,WALK
1759223401.08916,1.416918,9.33589,3.16723,-0.770566,-2.335159,-0.948573,23.50,5,WALK
1759223401.10898,-0.365265,7.412748,4.113687,-0.18539,-1.322244,-0.107832,23.52,5,WALK
1759223401.12899,-0.276231,6.774693,2.03163,-0.259659,-0.713687,0.486085,23.54,5,WALK
1759223401.14918,1.444452,7.838467,-0.489764,-1.053482,-0.31594,0.324472,23.56,5,WALK
1759223401.16904,1.244087,8.355165,-0.503231,-1.717327,-0.077997,0.14931,23.58,5,WALK
1759223401.18919,0.369006,8.515726,0.169689,-1.890264,-0.094516,0.219852,23.60,5,WALK
1759223401.20898,0.877774,9.090185,-0.931494,-1.851654,-0.541933,0.267826,23.62,5,WALK
1759223401.22902,1.317409,9.366566,-1.77545,-1.518043,-1.226567,0.296518,23.64,5,WALK
1759223401.24918,1.188871,9.268553,-1.524957,-1.051002,-1.280499,0.325324,23.66,5,WALK
1759223401.26909,1.44535,9.01372,-1.284788,-0.672724,-0.65008,0.395557,23.68,5,WALK
1759223401.28909,1.332822,9.125051,-0.428263,-0.393986,-0.120364,0.57286,23.70,5,WALK
1759223401.30902,0.200814,10.601375,0.168193,-0.244333,-0.074733,0.468956,23.72,5,WALK
1759223401.32917,-0.374244,12.666674,3.27452,0.084299,0.401032,0.083858,23.74,5,WALK
1759223401.34897,-1.239598,14.709526,1.859995,0.019224,0.659279,-0.397302,23.76,5,WALK
1759223401.36905,-4.361787,13.070545,-6.820183,-0.618583,-1.243289,-0.383675,23.78,5,WALK
1759223401.38915,-2.993351,13.099276,-2.335993,0.487726,-1.948209,-0.597657,23.80,5,WALK
1759223401.40907,-1.361553,13.258939,2.205958,2.335063,-0.502602,-0.970344,23.82,5,WALK
1759223401.42921,-0.715118,12.831275,-1.264288,3.140688,-0.191337,-1.310579,23.84,5,WALK
1759223401.44917,0.179715,13.570335,-1.422006,2.8871,0.272037,-1.426065,23.86,5,WALK
1759223401.46908,2.364873,13.172,0.102801,2.545667,1.094075,-1.079128,23.88,5,WALK
1759223401.48915,3.155558,13.553426,1.876755,2.468534,1.15371,-0.502813,23.90,5,WALK
1759223401.50913,3.189675,14.908245,2.384326,2.09164,-0.199079,0.46469,23.92,5,WALK
1759223401.52908,5.619191,15.087511,2.061707,2.530505,-3.022349,0.844902,23.94,5,WALK
1759223401.54906,7.551611,12.240057,-1.824232,3.461298,-4.214439,0.101224,23.96,5,WALK
1759223401.56911,5.699996,10.116549,-2.524386,2.382775,-1.456557,-0.270671,23.98,5,WALK
1759223401.58896,1.985092,8.285883,0.803255,1.426926,0.760648,-0.232531,24.00,5,WALK
1759223401.60895,1.18498,7.952341,1.955015,1.129066,1.830634,-0.493935,24.02,5,WALK
1759223401.62901,0.032771,8.10542,1.327884,1.492124,1.895835,-0.961581,24.04,5,WALK
1759223401.64896,-0.656311,8.287529,1.798494,1.918854,1.281993,-1.12168,24.06,5,WALK
1759223401.66908,-0.274136,8.34499,4.717924,2.449179,2.008043,-1.054587,24.08,5,WALK
1759223401.68894,0.55755,6.013935,3.887735,2.452904,2.814669,-0.430334,24.10,5,WALK
1759223401.70893,3.082086,4.835838,0.555754,1.777204,2.91075,-0.212206,24.12,5,WALK
1759223401.72909,4.629339,4.42209,-0.840066,0.779522,2.161051,-0.35555,24.14,5,WALK
1759223401.74809,5.092018,3.461567,-0.863708,-0.039423,1.528217,-0.519221,24.16,5,WALK
1759223401.76901,4.937742,1.99033,-1.854608,-0.79569,1.210914,-0.542472,24.18,5,WALK
1759223401.78896,3.401562,1.087117,-3.05545,-1.757858,1.282944,-0.445703,24.20,5,WALK
1759223401.80900,1.430535,1.350928,-4.141071,-2.808181,1.437584,-0.187731,24.22,5,WALK
1759223401.82896,0.420931,2.462137,-3.704578,-3.596115,2.279285,0.04564,24.24,5,WALK
1759223401.84896,1.955614,4.893599,-1.998261,-3.221632,2.959655,0.377745,24.26,5,WALK
1759223401.86907,6.010943,14.776115,-1.899649,-0.274769,3.237653,0.292322,24.28,5,WALK
1759223401.88894,6.514174,27.724855,-15.336807,1.455899,0.49186,-0.105687,24.30,5,WALK
1759223401.90892,3.287239,19.804238,-18.727745,-0.291245,-0.943959,-0.132965,24.32,5,WALK
1759223401.92897,5.499182,8.625111,-7.565079,-0.768645,-0.415597,-0.347755,24.34,5,WALK
1759223401.94896,7.191583,11.778275,-0.650026,-0.183411,0.729038,-0.026564,24.36,5,WALK
1759223401.96899,9.387964,20.99236,-1.496376,0.470698,-0.196536,0.269776,24.38,5,WALK
1759223401.98895,2.186654,13.949816,2.561796,-0.324597,-0.557823,0.850313,24.40,5,WALK
1759223402.00902,3.016544,5.988796,5.362264,-1.980737,-2.409241,-0.475193,24.42,5,WALK
1759223402.02890,2.152088,1.340603,5.959318,-1.708107,-2.779006,-0.959951,24.44,5,WALK
1759223402.04895,1.19725,1.427992,3.058144,-1.661129,-3.195479,-0.864332,24.46,5,WALK
1759223402.06906,1.211765,2.829049,1.567753,-1.983961,-3.322775,-0.294636,24.48,5,WALK
1759223402.08896,2.562843,6.275352,6.587347,-1.348373,-1.23553,0.041779,24.50,5,WALK
1759223402.10893,2.936339,12.208034,10.929082,0.039275,1.888332,0.403306,24.52,5,WALK
1759223402.12902,3.167678,16.23553,6.555025,0.417535,2.724797,0.734709,24.54,5,WALK
1759223402.14895,2.285565,12.990789,-0.85892,-1.281658,1.727356,0.877604,24.56,5,WALK
1759223402.16906,2.617311,9.939079,-18.46139,-2.283576,-2.526942,0.117793,24.58,5,WALK
1759223402.18893,3.213617,10.585065,-2.752434,-1.90724,-2.351575,-0.836736,24.60,5,WALK
1759223402.20891,1.172111,8.682872,3.738845,-1.402361,-0.488575,-0.895647,24.62,5,WALK
1759223402.22895,-0.439486,7.00289,4.410419,-0.878153,-0.007938,-0.565138,24.64,5,WALK
1759223402.24818,-0.700154,6.212205,3.178901,-0.859352,-0.269599,0.081898,24.66,5,WALK
1759223402.26905,-0.101305,7.500884,2.405275,-0.960638,-0.183704,0.370987,24.68,5,WALK
1759223402.28900,1.013944,9.487772,0.021997,-1.607386,0.170622,0.157407,24.70,5,WALK
1759223402.30878,0.964564,9.159467,-3.427,-2.418998,-0.140206,0.015604,24.72,5,WALK
1759223402.32901,1.344943,8.644714,-1.519271,-1.948969,-0.818131,0.160777,24.74,5,WALK
1759223402.34894,1.49458,8.366687,0.261866,-0.909001,-1.148671,0.466093,24.76,5,WALK
1759223402.36898,1.330578,8.699032,-0.09517,-0.647972,-0.86267,0.563123,24.78,5,WALK
1759223402.38810,1.572542,9.241169,-2.14311,-0.887043,-0.363895,0.429937,24.80,5,WALK
1759223402.40891,-0.178069,10.102783,-1.514931,-0.651404,-0.216766,0.49213,24.82,5,WALK
1759223402.42904,-1.16433,10.947637,-0.600945,-0.245413,-0.436483,0.396549,24.84,5,WALK
1759223402.44894,-1.887978,12.665626,0.639252,0.056674,-0.295615,0.113698,24.86,5,WALK
1759223402.46906,-2.095525,13.963732,0.83393,0.076378,0.093121,-0.29096,24.88,5,WALK
1759223402.48897,-3.219603,13.246519,-2.24217,0.091513,-0.317839,-0.660208,24.90,5,WALK
1759223402.50894,-3.45603,13.644406,-0.470461,1.070539,-0.173403,-0.766593,24.92,5,WALK
1759223402.52850,-1.839345,14.31568,1.06512,2.808952,0.432058,-1.05331,24.94,5,WALK
1759223402.54899,1.537077,15.206772,-3.616591,3.121302,0.262771,-1.848801,24.96,5,WALK
1759223402.56895,2.518251,13.268067,-2.503138,2.901165,0.48298,-1.710494,24.98,5,WALK
1759223402.58891,3.000683,12.974777,1.604863,2.536556,0.92331,-0.406367,25.00,5,WALK
1759223402.60895,3.936217,14.331542,3.407697,2.125671,0.160031,0.669124,25.02,5,WALK
1759223402.62898,6.108656,15.308077,4.026299,2.59839,-1.71562,1.012262,25.04,5,WALK
1759223402.64895,7.751378,13.243526,-0.464176,3.695658,-2.960766,0.459133,25.06,5,WALK
1759223402.66896,6.937648,10.770017,-5.230882,2.77744,-2.186082,0.150536,25.08,5,WALK
1759223402.68892,4.270657,9.564836,-0.980426,1.835359,-0.917252,0.017141,25.10,5,WALK
1759223402.70895,3.20823,9.325864,2.365322,1.37128,-0.126408,0.00006,25.12,5,WALK
1759223402.72895,2.422334,7.416788,1.699285,1.147202,0.220188,-0.136847,25.14,5,WALK
1759223402.74904,1.945139,7.277326,2.239327,1.58464,0.317371,-0.611919,25.16,5,WALK
1759223402.76881,2.059762,7.450606,3.82339,1.95518,0.776067,-0.825563,25.18,5,WALK
1759223402.78894,0.263811,5.85517,2.229151,2.065061,1.512446,-0.667476,25.20,5,WALK
1759223402.80892,0.898723,4.157681,0.811036,1.325404,2.037986,-0.284217,25.22,5,WALK
1759223402.82862,1.558176,3.439121,0.01661,0.882347,2.052002,-0.135553,25.24,5,WALK
1759223402.84893,2.781913,1.815403,-0.73517,-0.193933,1.527701,0.229697,25.26,5,WALK
1759223402.86892,2.994697,0.73891,-1.850269,-0.884316,1.316184,0.216164,25.28,5,WALK
1759223402.88892,1.684471,1.211316,-3.410091,-1.661149,1.286112,0.366944,25.30,5,WALK
1759223402.90893,0.589871,3.442862,-4.272752,-2.522103,1.825391,0.520916,25.32,5,WALK
1759223402.92892,1.194108,6.077531,-4.286968,-2.373789,2.962195,0.526991,25.34,5,WALK
1759223402.94893,3.540725,13.507487,-6.677578,-0.601188,3.197063,0.527872,25.36,5,WALK
1759223402.96893,6.621165,22.735638,-15.696685,0.255082,0.565084,-0.190744,25.38,5,WALK
1759223402.98893,6.635231,16.565032,-13.680019,-0.704904,-0.316348,-0.323041,25.40,5,WALK
1759223403.00891,7.695114,11.500847,-3.698593,-0.348041,0.478477,-0.004663,25.42,5,WALK
1759223403.02893,9.982624,15.486295,-1.627309,0.246284,1.209443,0.270009,25.44,5,WALK
1759223403.04893,7.939771,20.996101,-2.378639,0.487807,-0.314519,0.574023,25.46,5,WALK
1759223403.06893,-1.108216,10.792762,-1.012298,-0.538071,-3.624339,-0.369441,25.48,5,WALK
1759223403.08891,1.978359,2.615216,6.621614,-1.560923,-4.041643,-0.875169,25.50,5,WALK
1759223403.10889,1.675043,0.779462,4.381389,-1.872681,-3.628025,-0.567583,25.52,5,WALK
1759223403.12892,2.45256,2.29978,4.012532,-1.81921,-2.556134,-0.125412,25.54,5,WALK
1759223403.14893,3.668515,5.943905,5.120748,-1.511396,-1.017777,0.229139,25.56,5,WALK
1759223403.16894,4.796633,10.243293,7.776666,-0.804368,1.160413,0.376693,25.58,5,WALK
1759223403.18892,4.599112,13.5434,7.149535,-0.358215,2.485692,0.239279,25.60,5,WALK
1759223403.20869,2.389413,12.121843,2.421286,-0.723463,2.440987,0.473322,25.62,5,WALK
1759223403.22844,-0.323666,10.455479,-7.441777,-3.137129,1.743285,0.74751,25.64,5,WALK
1759223403.24892,0.175824,12.224644,-13.582007,-2.735591,-2.408831,-0.516063,25.66,5,WALK
1759223403.26893,-0.004489,10.059388,0.130783,-1.024349,-1.987897,-1.148014,25.68,5,WALK
1759223403.28890,-1.085621,8.689755,3.591602,-0.339809,-0.050807,-0.284118,25.70,5,WALK
1759223403.30890,0.200514,7.306505,3.18758,-0.224083,0.752327,0.438841,25.72,5,WALK
1759223403.32893,1.835604,7.468862,1.631499,-0.692927,0.346351,0.345345,25.74,5,WALK
1759223403.34892,2.536507,8.818892,1.049857,-1.25191,0.503821,0.259793,25.76,5,WALK
1759223403.36892,2.672827,8.822783,-0.269348,-1.662407,0.990451,0.245849,25.78,5,WALK
1759223403.38890,2.143858,8.243087,0.153977,-1.391684,0.837662,0.391969,25.80,5,WALK
1759223403.40888,1.753154,8.08073,-0.048632,-0.970815,0.141707,0.618988,25.82,5,WALK
1759223403.42893,1.423802,8.73719,-0.042497,-0.921207,-0.107335,0.618567,25.84,5,WALK
1759223403.44891,0.763002,10.048464,-0.853982,-1.208925,-0.038709,0.486099,25.86,5,WALK
1759223403.46892,0.179864,10.510845,-1.120337,-1.264305,-0.064241,0.349837,25.88,5,WALK
1759223403.48897,0.393248,9.809044,-1.080982,-0.887355,-0.38462,0.260493,25.90,5,WALK
1759223403.50888,0.443675,10.174759,-1.083526,-0.390895,-0.689513,0.223335,25.92,5,WALK
1759223403.52891,-0.401328,12.066776,1.823185,0.15446,-0.273858,0.015373,25.94,5,WALK
1759223403.54891,-0.604087,12.974029,2.509572,0.269729,0.655111,-0.32145,25.96,5,WALK
1759223403.56891,-2.382231,13.029545,-1.883189,-0.224277,0.78246,-0.502603,25.98,5,WALK
1759223403.58888,-3.166032,14.298921,-1.580772,0.187711,0.402871,-0.687911,26.00,5,WALK
1759223403.60823,-2.790741,15.680076,1.060781,1.416578,0.343297,-1.120713,26.02,5,WALK
1759223403.62805,-2.09358,14.37359,1.249175,2.119313,0.532471,-1.44652,26.04,5,WALK
1759223403.64891,0.443675,10.503063,-0.896928,2.725126,0.213239,-1.213928,26.06,5,WALK
1759223403.66898,3.408445,10.043826,-0.651971,2.915826,0.451547,-0.801261,26.08,5,WALK
1759223403.68890,4.799028,10.532243,-1.553687,2.855492,-0.113927,0.615754,26.10,5,WALK
1759223403.70808,7.324611,13.205519,1.483058,2.814985,-0.230405,1.112139,26.12,5,WALK
1759223403.72893,9.813384,14.631415,2.547879,2.614177,-0.774338,0.729662,26.14,5,WALK
1759223403.74891,9.95539,13.72117,-1.147571,2.377849,-2.269664,-0.354334,26.16,5,WALK
1759223403.76816,4.487332,10.54975,-2.450914,2.091611,-3.017917,-0.487106,26.18,5,WALK
1759223403.78890,1.879299,9.615114,0.340126,1.941865,-2.489984,-0.175452,26.20,5,WALK
1759223403.80897,2.075922,9.598055,3.516334,1.798342,-0.53639,-0.094709,26.22,5,WALK
1759223403.82892,1.897704,8.830863,2.369362,1.352463,1.089375,-0.281293,26.24,5,WALK
1759223403.84891,0.789488,8.718485,0.104447,1.733288,0.696164,-0.791569,26.26,5,WALK
1759223403.86891,0.659603,8.718485,0.225803,2.019443,0.083375,-0.852459,26.28,5,WALK
1759223403.88848,1.781436,7.615357,1.633893,1.918562,1.27402,-0.797968,26.30,5,WALK
1759223403.90889,2.57646,5.402965,1.663521,1.75835,2.273147,-0.508371,26.32,5,WALK
1759223403.92889,2.951751,3.60477,0.068384,1.356009,2.149552,-0.299351,26.34,5,WALK
1759223403.94890,3.33647,3.099593,-1.055843,0.574682,1.901316,-0.32184,26.36,5,WALK
1759223403.96901,3.226336,2.093879,-1.42036,-0.288171,1.838078,-0.25295,26.38,5,WALK
1759223403.98889,2.352453,0.848595,-2.928857,-1.199152,1.424068,-0.063601,26.40,5,WALK
1759223404.00889,1.96145,0.814926,-3.773711,-2.106477,1.173738,0.044829,26.42,5,WALK
1759223404.02884,1.344195,1.988235,-3.43119,-2.715677,1.516053,0.220389,26.44,5,WALK
1759223404.04874,1.803133,3.839102,-2.892645,-2.651194,2.213091,0.273728,26.46,5,WALK
1759223404.06892,2.87379,9.603442,-4.817283,-1.264472,2.035743,0.426017,26.48,5,WALK
1759223404.08897,4.349666,22.146515,-8.755595,0.520839,0.781858,-0.262077,26.50,5,WALK
1759223404.10888,2.038363,24.788367,-14.769231,0.339152,-0.385687,-0.471834,26.52,5,WALK
1759223404.12889,1.160589,12.707375,-10.482563,-0.190168,0.289518,-0.221858,26.54,5,WALK
1759223404.14890,3.452439,7.433248,-5.529409,-0.054218,0.865563,-0.086251,26.56,5,WALK
1759223404.16896,4.514567,6.21834,-1.689708,0.198534,1.042028,-0.22637,26.58,5,WALK
1759223404.18890,6.481254,10.565762,-2.823063,-0.397694,0.048278,-0.13767,26.60,5,WALK
1759223404.20890,8.029853,15.07943,1.014543,-1.229744,-0.366571,0.295616,26.62,5,WALK
1759223404.22888,6.390274,15.662269,1.406743,-1.358166,-1.568508,0.404207,26.64,5,WALK
1759223404.24890,5.608268,8.100632,2.595614,-0.911262,-3.721611,-0.269976,26.66,5,WALK
1759223404.26888,3.349189,4.065803,2.78296,-1.088251,-4.503407,-0.436476,26.68,5,WALK
1759223404.28889,2.04794,2.817078,1.374421,-1.455351,-4.502066,-0.19436,26.70,5,WALK
1759223404.30888,2.71263,4.48823,2.596212,-1.966092,-1.71584,0.2218,26.72,5,WALK
1759223404.32901,3.237559,9.98427,7.108684,-1.484693,0.998551,0.254405,26.74,5,WALK
1759223404.34889,2.806154,14.494198,8.499416,-0.764876,2.422783,0.216417,26.76,5,WALK
1759223404.36896,1.299902,12.225841,3.54267,-0.787956,2.240514,0.541589,26.78,5,WALK
1759223404.38889,0.402226,8.587253,-7.413197,-1.76853,0.631315,0.491776,26.80,5,WALK
1759223404.40888,2.115726,10.502914,-6.608894,-1.475135,-1.477361,-0.319112,26.82,5,WALK
1759223404.42890,0.954987,10.022727,1.27177,-1.175522,-1.147272,-0.515776,26.84,5,WALK
1759223404.44889,0.564882,8.862886,3.634997,-0.89456,-0.43374,-0.431728,26.86,5,WALK
1759223404.46901,0.345962,7.292888,2.527828,-1.052068,-0.013888,-0.103928,26.88,5,WALK
1759223404.48896,0.418387,7.753622,0.211737,-1.389773,-0.027387,0.090356,26.90,5,WALK
1759223404.50886,0.981473,9.511415,-1.228674,-1.632971,-0.380528,-0.056752,26.92,5,WALK
1759223404.52890,0.605434,9.326313,-0.469264,-1.399494,-0.629471,-0.069769,26.94,5,WALK
1759223404.54889,0.450858,8.503306,-0.435146,-1.161522,-0.686471,0.069459,26.96,5,WALK
1759223404.56896,1.495927,7.975834,-0.33429,-1.034479,-0.705888,0.1648,26.98,5,WALK
1759223404.58887,1.530793,7.808838,0.049979,-1.056404,-0.612845,0.302697,27.00,5,WALK
1759223404.60887,1.872266,8.236203,-0.462679,-1.18409,-0.556983,0.342697,27.02,5,WALK
1759223404.62896,2.044199,9.444228,-0.592864,-1.086298,-0.441308,0.391932,27.04,5,WALK
1759223404.64889,1.470938,10.040234,-0.60678,-0.685307,-0.431242,0.453743,27.06,5,WALK
1759223404.66900,-0.015712,10.944794,-0.093075,-0.348608,-0.310594,0.425302,27.08,5,WALK
1759223404.68889,-0.514604,12.055853,1.573888,-0.115046,0.007788,0.166929,27.10,5,WALK
1759223404.70885,-0.880767,13.109002,0.36766,-0.234467,0.061748,-0.299576,27.12,5,WALK
1759223404.72889,-2.500145,12.278214,-3.201945,-0.529511,-0.750859,-0.483339,27.14,5,WALK
1759223404.74888,-2.292897,13.526342,-1.710807,0.198038,-1.213328,-0.594451,27.16,5,WALK
1759223404.76900,-0.895581,15.125219,1.747618,1.549305,-0.646561,-1.212289,27.18,5,WALK
1759223404.78887,-1.029806,13.730597,0.301969,2.611758,-0.348794,-1.498197,27.20,5,WALK
1759223404.80883,0.17762,12.906842,-1.349282,2.951945,0.078057,-1.529757,27.22,5,WALK
1759223404.82892,2.346767,11.592276,-1.291073,2.704842,0.525311,-1.134152,27.24,5,WALK
1759223404.84888,2.630031,11.733982,0.192135,2.328314,-0.124738,0.099355,27.26,5,WALK
1759223404.86891,4.706851,14.538191,1.565359,2.139457,-0.918542,1.070327,27.28,5,WALK
1759223404.88888,8.771008,16.24376,1.888427,2.780035,-1.603308,0.968149,27.30,5,WALK
1759223404.90886,8.632144,12.899809,-1.794454,2.822788,-2.52558,0.139826,27.32,5,WALK
1759223404.92900,4.331859,9.731233,-2.793435,2.131613,-2.546559,-0.163999,27.34,5,WALK
1759223404.94886,1.854908,9.498845,1.026065,1.79976,-1.286772,-0.14163,27.36,5,WALK
1759223404.96895,1.767519,8.847323,2.932149,1.669579,0.542325,-0.019431,27.38,5,WALK
1759223404.98887,1.512836,7.603386,1.76737,1.301311,1.837455,-0.039688,27.40,5,WALK
1759223405.00887,0.989404,7.579444,0.532111,1.356939,1.321285,-0.455608,27.42,5,WALK
1759223405.02894,1.091307,9.003096,1.830966,1.614388,0.342509,-1.171386,27.44,5,WALK
1759223405.04888,0.52014,7.376685,3.807678,2.031418,1.049399,-0.965817,27.46,5,WALK
1759223405.06899,0.580893,5.456834,2.478448,1.70651,1.987488,-0.40487,27.48,5,WALK
1759223405.08888,2.641104,4.384232,0.625186,1.055352,2.107465,-0.173966,27.50,5,WALK
1759223405.10884,4.278738,3.968389,-0.612018,0.444831,1.921583,-0.230805,27.52,5,WALK
1759223405.12887,4.501548,2.800767,-1.624915,-0.157575,1.535721,-0.280124,27.54,5,WALK
1759223405.14888,3.446603,1.18094,-2.781613,-0.98395,1.538,-0.229867,27.56,5,WALK
1759223405.16894,1.494131,1.533337,-4.296245,-1.962227,1.409873,0.036141,27.58,5,WALK
1759223405.18894,0.937031,3.064578,-4.778078,-2.713012,1.566052,0.369632,27.60,5,WALK
1759223405.20886,2.144756,5.408801,-3.500472,-2.598454,1.985785,0.324872,27.62,5,WALK
1759223405.22887,4.164265,10.771214,-4.771045,-1.051508,1.666273,0.237495,27.64,5,WALK
