SamplingTime, AccelerationX, AccelerationY, AccelerationZ, GyroX, GyroY, GyroZ, MagneticFieldX, MagneticFieldY, MagneticFieldZ, Latitude, Longitude
1759229784.254971, 0.146794, -1.757494, -10.382156, 0.276233, -0.344664, 0.031146, 24.362045, 29.445221, -272.864868, , 
1759229784.274929, 0.419733, -1.859995, -9.592668, 0.376705, -0.280932, 0.145067, 23.960785, 29.356781, -272.930847, , 
1759229784.294961, 0.325761, -2.119467, -9.157522, 0.278813, -0.174846, 0.219720, 23.945663, 29.300903, -272.890045, , 
1759229784.314938, -0.170288, -2.597410, -9.318532, 0.050339, -0.092798, 0.226266, 24.500809, 29.521210, -273.844391, , 
1759229784.334323, -0.411354, -2.606388, -9.921572, -0.114810, 0.014789, 0.128051, 24.126907, 29.251022, -273.756836, 13.727698, 100.772460
1759229784.354932, -0.172532, -2.228104, -9.933393, 0.007441, 0.058329, 0.015406, 24.650238, 29.338455, -273.893982, 13.727698, 100.772460
1759229784.374596, 0.472705, -1.882890, -9.716568, 0.149226, 0.027126, 0.015832, 24.631866, 29.262039, -273.376160, 13.727698, 100.772460
1759229784.394918, 0.540491, -1.814954, -9.430760, 0.186903, -0.055264, 0.075520, 24.504990, 29.697342, -273.938324, 13.727698, 100.772460
1759229784.414954, 0.358083, -2.038513, -9.448866, 0.045402, 0.003748, 0.067284, 24.657394, 29.219391, -273.746887, 13.727698, 100.772460
1759229784.434939, 0.233435, -2.092233, -9.620950, 0.001765, 0.082721, 0.040048, 24.356918, 29.321808, -274.216858, 13.727698, 100.772460
1759229784.455117, 0.230292, -2.002750, -9.623942, -0.013695, 0.140617, 0.025818, 24.127869, 29.188614, -274.288391, 13.727698, 100.772460
1759229784.474941, 0.414795, -2.008885, -9.533711, -0.003208, 0.137080, 0.062883, 24.704437, 29.283630, -273.214478, 13.727698, 100.772460
1759229784.494926, 0.490362, -2.046444, -9.725397, 0.056375, 0.115901, 0.109699, 24.658478, 29.215927, -273.745972, 13.727698, 100.772460
1759229784.514952, 0.268899, -2.086996, -9.740061, 0.149206, 0.114879, 0.132791, 25.046524, 29.493576, -274.088440, 13.727698, 100.772460
1759229784.534968, 0.213682, -2.202965, -9.628581, 0.266717, 0.083939, 0.127611, 24.842865, 29.167511, -274.914368, 13.727698, 100.772460
1759229784.554962, 0.194978, -2.328660, -9.574562, 0.344764, 0.068635, 0.108257, 25.015869, 28.896683, -274.630676, 13.727698, 100.772460
1759229784.574174, 0.199916, -2.438195, -9.453505, 0.344086, 0.095851, 0.087909, 25.156876, 28.932785, -275.129761, 13.727698, 100.772460
1759229784.594934, 0.188992, -2.408866, -9.227403, 0.319503, 0.157872, 0.119704, 25.094849, 29.083023, -274.564178, 13.727698, 100.772460
1759229784.615036, 0.454300, -2.254739, -9.188347, 0.324637, 0.182647, 0.231460, 25.108688, 29.309219, -275.349976, 13.727698, 100.772460
1759229784.634935, 0.363769, -2.265513, -9.337087, 0.400853, 0.232644, 0.314018, 25.658752, 28.786118, -275.271179, 13.727698, 100.772460
1759229784.654975, 0.056713, -1.927183, -9.530120, 0.588621, 0.512687, 0.393040, 25.951813, 28.696701, -275.340881, 13.727698, 100.772460
1759229784.674951, -0.423474, -0.837372, -9.297284, 0.762686, 1.026931, 0.556113, 26.278732, 28.376617, -276.591736, 13.727698, 100.772460
1759229784.695017, 0.185700, -0.516250, -8.586505, 0.704322, 1.450506, 1.044088, 27.270813, 28.296890, -276.684448, 13.727698, 100.772460
1759229784.714938, -0.929399, -0.711826, -9.435399, 0.657455, 0.884854, 1.684851, 28.434509, 28.136047, -277.945068, 13.727698, 100.772460
1759229784.734948, -0.866402, -2.309058, -9.009530, 0.442206, 1.834152, 2.686094, 30.271683, 28.233978, -278.265015, 13.727698, 100.772460
1759229784.754939, 0.529867, -4.250905, -8.676736, -0.127337, 1.926493, 2.561049, 33.022003, 28.046036, -277.361176, 13.727698, 100.772460
1759229784.775003, 2.957438, -5.770176, -7.560440, -0.402614, 2.957220, 1.183522, 35.107224, 28.245346, -277.752289, 13.727698, 100.772460
1759229784.794940, 0.119112, -6.189909, -7.144597, -0.937644, 1.558317, 0.555442, 36.150787, 28.168793, -277.166290, 13.727698, 100.772460
1759229784.814936, -0.772729, -3.482067, -7.931990, -1.233966, 1.540858, -0.556902, 36.775406, 29.063339, -276.600586, 13.727698, 100.772460
1759229784.834938, 0.725742, -4.367922, -8.369231, -1.277265, 1.831844, -0.859089, 36.915253, 29.248245, -274.974487, 13.727698, 100.772460
1759229784.854945, 2.834435, -3.186383, -10.118944, -0.972720, 2.143818, -1.076873, 36.971710, 29.666245, -274.505676, 13.727698, 100.772460
1759229784.874953, 4.222025, -2.677017, -10.479870, -0.575291, 2.339674, -0.831519, 37.021530, 29.943954, -274.333252, 13.727698, 100.772460
1759229784.895007, 4.374206, -1.158045, -9.046790, -0.066715, -0.082971, -0.429041, 37.072052, 30.489380, -273.142639, 13.727698, 100.772460
1759229784.914948, 4.835838, -1.820341, -5.896021, -0.376721, -1.645761, 0.003216, 36.529144, 30.318939, -273.451569, 13.727698, 100.772460
1759229784.934972, 4.802170, -2.285565, -7.836372, -0.511389, -1.626227, 0.428627, 36.143616, 30.654663, -273.012299, 13.727698, 100.772460
1759229784.955005, 3.217208, -1.892167, -10.042479, -0.171185, -1.193793, 0.383669, 36.262939, 30.738556, -273.681946, 13.727698, 100.772460
1759229784.975014, 2.587683, -2.743755, -11.436503, 0.345217, -0.878516, 0.064996, 36.278427, 30.713272, -273.466370, 13.727698, 100.772460
1759229784.994932, 1.679532, -2.599804, -10.858153, 0.325824, -0.264157, -0.337483, 35.959213, 30.476303, -273.426025, 13.727698, 100.772460
1759229785.014464, 1.470040, -2.311901, -9.290400, 0.036736, 0.021828, -0.791066, 35.615906, 30.491135, -274.082581, 13.727698, 100.772460
1759229785.034944, 3.448847, -1.240945, -10.040833, 0.408034, -0.349124, -0.426809, 34.980743, 30.462967, -274.119202, 13.727699, 100.772461
1759229785.054041, 5.665579, -2.567332, -10.150667, 0.743149, -0.786754, 0.425676, 35.097595, 30.418640, -274.554199, 13.727699, 100.772461
1759229785.074443, 4.468478, -1.854459, -8.832360, 0.701137, -1.225701, 0.915419, 35.060608, 30.038589, -275.372498, 13.727699, 100.772461
1759229785.094962, 2.198625, -2.790592, -9.618256, 0.608448, -0.859072, 0.713893, 35.353500, 29.363632, -275.527283, 13.727699, 100.772461
1759229785.114956, -0.346710, -2.721609, -9.107094, 0.255514, -0.456552, 0.043178, 35.138931, 29.766754, -275.865479, 13.727699, 100.772461
1759229785.134971, 1.283741, -3.128623, -8.836998, 0.053020, -0.121822, -0.052172, 35.355469, 29.508377, -275.860901, 13.727699, 100.772461
1759229785.154962, 2.977788, -2.619556, -9.528923, 0.123268, -0.108301, 0.194138, 35.085251, 29.460510, -276.096436, 13.727699, 100.772461
1759229785.174150, 2.410512, -2.916138, -9.355493, 0.175250, -0.323470, 0.249007, 35.519012, 29.523590, -276.174225, 13.727699, 100.772461
1759229785.194944, 1.646313, -2.918382, -9.348609, 0.244325, -0.446272, 0.254710, 35.785645, 29.123093, -275.908844, 13.727699, 100.772461
1759229785.214934, 2.076371, -3.048567, -9.675867, 0.292678, -0.283079, 0.236287, 35.277283, 29.051193, -276.438843, 13.727699, 100.772461
1759229785.234964, 1.607258, -2.734478, -9.223512, 0.184296, -0.145908, 0.136413, 35.232803, 28.984253, -276.790436, 13.727699, 100.772461
1759229785.255026, 2.019509, -2.647837, -8.762030, 0.035005, 0.023207, 0.208694, 35.474838, 29.207260, -276.436035, 13.727699, 100.772461
1759229785.274333, 1.775899, -2.708890, -8.673145, -0.059671, -0.044807, 0.226724, 35.480362, 29.369278, -276.448730, 13.727699, 100.772461
1759229785.294969, 1.113902, -3.025074, -9.058312, -0.066204, -0.137330, 0.161569, 35.738495, 29.392960, -275.975952, 13.727699, 100.772461
1759229785.314935, 1.182436, -3.044826, -9.422381, 0.020718, 0.000843, 0.114082, 35.867508, 29.485184, -276.458923, 13.727699, 100.772461
1759229785.334351, 1.238999, -2.988413, -9.084798, 0.000058, 0.144192, 0.094936, 36.195633, 29.187042, -276.787750, 13.727699, 100.772461
1759229785.354951, 1.541567, -2.689137, -8.343793, -0.110705, 0.246005, 0.167660, 35.932007, 29.494431, -276.186493, 13.727699, 100.772461
1759229785.374586, 0.826149, -2.581698, -7.911340, -0.212804, 0.218773, 0.261945, 36.319519, 29.376938, -276.946777, 13.727699, 100.772461
1759229785.394941, 1.081281, -2.472612, -8.070405, -0.324275, 0.122343, 0.396248, 36.313507, 29.418335, -276.554199, 13.727699, 100.772461
1759229785.414939, 0.455198, -2.167950, -7.905953, -0.406292, 0.029709, 0.552289, 37.104568, 29.363998, -275.724670, 13.727699, 100.772461
1759229785.434939, -0.238373, -2.157176, -7.735965, -0.645936, -0.221311, 0.610338, 37.283005, 29.763123, -275.843811, 13.727699, 100.772461
1759229785.454943, -0.055815, -1.765424, -8.304737, -0.676217, -0.178544, 0.563413, 37.985733, 29.478836, -275.277435, 13.727699, 100.772461
1759229785.474740, 1.110910, -1.350779, -7.493402, -0.801298, 0.144342, 0.716096, 38.153336, 29.738983, -275.164429, 13.727699, 100.772461
1759229785.494956, 1.976563, -0.833332, -8.378060, -0.947771, 0.131024, 1.234586, 38.704727, 30.139648, -273.992950, 13.727699, 100.772461
1759229785.515007, 1.911920, -1.202189, -9.195829, -0.744377, 0.517991, 1.773020, 40.014694, 30.384338, -273.668152, 13.727699, 100.772461
1759229785.534953, -0.018555, -1.286584, -8.108712, -0.419913, 1.408941, 2.216473, 41.558670, 29.860184, -273.447968, 13.727699, 100.772461
1759229785.554182, -0.297180, -0.436194, -7.438635, 0.168377, 1.303898, 2.536044, 43.860886, 29.603241, -272.686340, 13.727699, 100.772461
1759229785.574864, 0.249147, 1.733402, -6.090250, 0.081177, 1.509221, 2.066648, 45.367035, 28.941315, -272.652222, 13.727699, 100.772461
1759229785.594947, -1.162684, 3.313276, -6.014235, -0.223506, 0.828196, 1.119221, 46.726166, 28.629150, -272.471619, 13.727699, 100.772461
1759229785.614936, -1.157297, 1.617882, -5.312883, -0.660815, 0.870406, 0.524616, 46.917526, 28.712692, -271.290802, 13.727699, 100.772461
1759229785.634941, 1.020977, 1.713051, -6.621763, -1.227893, 0.769681, 0.628835, 47.589722, 28.700516, -270.618042, 13.727699, 100.772461
1759229785.654961, -0.612916, 1.917756, -6.610241, -1.839789, 0.654665, 0.491853, 48.477859, 28.665009, -269.289459, 13.727699, 100.772461
1759229785.674944, -1.205780, 2.532616, -7.076213, -2.489241, 0.717301, -0.286567, 48.275497, 29.251968, -267.769531, 13.727699, 100.772461
1759229785.693956, 2.192789, 3.070564, -7.533356, -3.096593, 0.945881, -0.692428, 48.112000, 30.055511, -265.518372, 13.727699, 100.772461
1759229785.714966, 6.238990, 4.102016, -7.930643, -3.524921, 1.197189, -0.394113, 47.806015, 30.384415, -263.205078, 13.727699, 100.772461
1759229785.734953, 5.641188, 4.407276, -11.050288, -3.653266, 0.798257, 0.027068, 48.028656, 30.527908, -260.737976, 13.727699, 100.772461
1759229785.754053, 4.163666, 2.154482, -12.980613, -3.230017, 0.910753, 0.035337, 47.823944, 30.679642, -257.492493, 13.727699, 100.772461
1759229785.774947, 3.403807, 2.103007, -14.019996, -2.273728, 1.149474, -0.413254, 47.384003, 30.322617, -255.512268, 13.727699, 100.772461
1759229785.794146, 4.240879, 3.422511, -13.623606, -0.812995, 1.311726, -0.720902, 46.920380, 30.501923, -255.108887, 13.727699, 100.772461
1759229785.814953, 6.395062, 1.970129, -11.145158, 0.054250, 1.921913, -0.615868, 46.181747, 30.854706, -254.552032, 13.727699, 100.772461
1759229785.834945, 7.477990, 3.569156, -9.205256, -0.751263, 1.229829, -0.564857, 45.738174, 30.305573, -253.331131, 13.727699, 100.772461
1759229785.854945, 7.846996, 2.945616, -8.119636, -2.176447, 1.139297, -0.470240, 45.381927, 30.672714, -252.282135, 13.727699, 100.772461
1759229785.875004, 7.623587, 2.912247, -10.041282, -2.591458, 1.197258, -0.239769, 44.987228, 30.070038, -249.866669, 13.727699, 100.772461
1759229785.894940, 6.712144, 2.388366, -11.811495, -2.111190, 1.578269, -0.633492, 44.076401, 29.760193, -248.322052, 13.727699, 100.772461
1759229785.914969, 6.086809, 1.256357, -11.501745, -1.521030, 2.293777, -1.121896, 43.364182, 29.599335, -247.031982, 13.727699, 100.772461
1759229785.934959, 8.099584, 1.754052, -9.663746, -1.170429, 3.252756, -1.493091, 41.408936, 29.651932, -245.666611, 13.727699, 100.772461
1759229785.954945, 7.455843, 2.766949, -8.795249, -1.129026, 3.778391, -1.694817, 39.300827, 29.612503, -244.446136, 13.727699, 100.772461
1759229785.974948, 6.712144, 3.061136, -7.779509, -1.146705, 4.020595, -1.688894, 37.304626, 29.525955, -243.119217, 13.727699, 100.772461
1759229785.994550, 5.188834, 4.233846, -6.627001, -1.140815, 3.331375, -2.005052, 34.946808, 29.282806, -241.711487, 13.727699, 100.772461
1759229786.014958, 6.955754, 3.698144, -6.030096, -1.037802, 2.450986, -1.896357, 32.434906, 28.815948, -241.528229, 13.727699, 100.772461
1759229786.034948, 9.165902, 4.953903, -5.760300, -0.720238, 2.293442, -0.751663, 30.970276, 28.464203, -241.388947, 13.727700, 100.772463
1759229786.054967, 11.429619, 5.860407, -5.386654, -0.715516, 1.458990, 0.493292, 31.049179, 28.341064, -241.148590, 13.727700, 100.772463
1759229786.075022, 8.736741, 6.503849, -4.775834, -0.758845, 0.627542, 0.829234, 31.085800, 28.164062, -240.478226, 13.727700, 100.772463
1759229786.094830, 6.570288, 5.288492, -4.822521, -0.827877, 0.830857, 0.349573, 31.050308, 27.609528, -239.865585, 13.727700, 100.772463
1759229786.114944, 7.104943, 5.249586, -4.236989, -0.881551, 1.322977, -0.455886, 30.182678, 27.584503, -239.766953, 13.727700, 100.772463
1759229786.135032, 8.723423, 6.048053, -3.588310, -1.018553, 1.701230, -1.230842, 28.830307, 26.903687, -239.545120, 13.727700, 100.772463
1759229786.154949, 10.268432, 6.294655, -2.923171, -1.406616, 1.604361, -0.831866, 27.630310, 26.360519, -238.881088, 13.727700, 100.772463
1759229786.174962, 12.166435, 6.634782, -2.530522, -1.454435, 1.372288, -0.403773, 26.931824, 25.695480, -238.399628, 13.727700, 100.772463
1759229786.194942, 12.271032, 7.299472, -2.240075, -1.550733, 0.747136, 0.700946, 26.624466, 24.958786, -237.515488, 13.727700, 100.772463
1759229786.214961, 11.062109, 7.128436, -2.283769, -1.566529, 0.641075, 1.076564, 26.958145, 24.684128, -236.967392, 13.727700, 100.772463
1759229786.234947, 9.746945, 6.364536, -1.959804, -1.601310, 0.442091, 1.196161, 27.409393, 23.939987, -235.535828, 13.727700, 100.772463
1759229786.254553, 9.128792, 5.541230, -2.159570, -1.606002, 0.380238, 1.274590, 27.684479, 23.542786, -235.207428, 13.727700, 100.772463
1759229786.274938, 9.340529, 4.318990, -3.298013, -1.471283, 0.268265, 1.423952, 28.019058, 22.827484, -234.721329, 13.727700, 100.772463
1759229786.294991, 9.857078, 2.477101, -3.958962, -1.138982, 0.326329, 1.480925, 28.813553, 22.445999, -234.525208, 13.727700, 100.772463
1759229786.314937, 9.362825, 1.841590, -3.985747, -0.772511, 0.582749, 1.374135, 29.150024, 22.286377, -233.551559, 13.727700, 100.772463
1759229786.334321, 9.298930, 1.471087, -4.307618, -0.374138, 0.792731, 1.315516, 29.571091, 21.810822, -233.802841, 13.727700, 100.772463
1759229786.355007, 8.484003, 1.286285, -4.109946, 0.070753, 0.711903, 1.286367, 29.826813, 22.205887, -233.108841, 13.727700, 100.772463
1759229786.375139, 7.540388, 1.636437, -3.759346, 0.508555, 0.297815, 1.265775, 30.317429, 22.237228, -233.677353, 13.727700, 100.772463
1759229786.394978, 7.327903, 2.299182, -2.650681, 0.633552, -0.314149, 1.242427, 31.148819, 22.865021, -234.206238, 13.727700, 100.772463
1759229786.414999, 7.781305, 2.940529, -1.890372, 0.384926, -0.738888, 1.358596, 31.862900, 22.745148, -233.572815, 13.727700, 100.772463
1759229786.435004, 8.121132, 3.565415, -1.648707, 0.281382, -0.949948, 1.466987, 33.438293, 23.161713, -234.124176, 13.727700, 100.772463
1759229786.454972, 7.763498, 4.026898, -2.625242, 0.574565, -1.053856, 1.408611, 34.361343, 23.285629, -234.544296, 13.727700, 100.772463
1759229786.474939, 7.195923, 4.129848, -2.166154, 0.408513, -0.739143, 1.092628, 35.374649, 23.383194, -234.720749, 13.727700, 100.772463
1759229786.495160, 7.698705, 3.353079, -0.760309, 0.067041, -0.302587, 0.737235, 36.077728, 23.131821, -235.234558, 13.727700, 100.772463
1759229786.515040, 8.175002, 2.485032, -2.395698, 0.137414, 0.137996, 0.498660, 36.426682, 23.985275, -235.124100, 13.727700, 100.772463
1759229786.534955, 8.921095, 4.158728, -2.337190, 0.405314, 0.275651, 0.696408, 36.801773, 23.697617, -235.568268, 13.727700, 100.772463
1759229786.555019, 8.074595, 5.863550, -0.711826, 0.825946, 0.184018, 0.778754, 37.124435, 23.887848, -235.211639, 13.727700, 100.772463
1759229786.574946, 4.994454, 0.127491, -0.697162, 0.362996, 0.131864, -0.166028, 36.826904, 24.134354, -235.542694, 13.727700, 100.772463
1759229786.594974, 5.748927, 1.936011, 0.103998, 0.188685, 0.769527, -0.907807, 36.802963, 24.253967, -235.556473, 13.727700, 100.772463
1759229786.614964, 5.256919, 3.357569, -1.619079, 0.221499, 1.998897, -1.383516, 35.722870, 24.266876, -235.801880, 13.727700, 100.772463
1759229786.634957, 7.229591, 5.867141, -0.254982, 0.329270, 2.678469, -2.065036, 33.982224, 24.604202, -235.905594, 13.727700, 100.772463
1759229786.654960, 6.545747, 6.595277, 3.072509, 0.481400, 1.820588, -2.771764, 31.317612, 24.783356, -235.256149, 13.727700, 100.772463
1759229786.674942, 6.107608, 5.919813, -0.348955, 0.989664, 0.162257, -3.120686, 29.137192, 25.005463, -236.284698, 13.727700, 100.772463
1759229786.694956, 6.347029, 5.111172, -4.028544, 1.111801, -0.792174, -3.440069, 27.412201, 24.632416, -236.869827, 13.727700, 100.772463
1759229786.714945, 6.228216, 2.913893, -2.578256, 0.150099, -0.751276, -3.645649, 26.014954, 24.912109, -237.134048, 13.727700, 100.772463
1759229786.735050, 12.092364, 5.168184, -0.699406, -1.170470, 0.029239, -2.752330, 24.211105, 24.021942, -237.033234, 13.727700, 100.772463
1759229786.754956, 16.873735, 10.909180, 0.642245, -1.473936, 0.623449, -1.669071, 22.801041, 22.984818, -236.653748, 13.727700, 100.772463
1759229786.774948, 11.737574, 10.199748, -1.063774, -0.650357, -0.157855, -1.187001, 21.997299, 22.028915, -236.324661, 13.727700, 100.772463
1759229786.794218, 8.535927, 8.939500, -1.537975, -0.038661, -0.454231, -1.279871, 21.961380, 21.483627, -236.038742, 13.727700, 100.772463
1759229786.814859, 8.104672, 6.847267, -0.635511, -0.154563, 0.219766, -0.922410, 21.444763, 21.358765, -235.961243, 13.727700, 100.772463
1759229786.834800, 8.844331, 5.258116, 0.566678, -0.502779, 1.446299, -0.734249, 20.611221, 20.927948, -235.797745, 13.727700, 100.772463
1759229786.854993, 5.716905, 3.070713, 0.306607, -0.745007, 1.207187, -1.331251, 19.185730, 20.809784, -235.830139, 13.727700, 100.772463
1759229786.874951, 2.782511, 6.705111, -0.845153, -0.558442, 0.034287, -2.040061, 18.450470, 19.575699, -236.306686, 13.727700, 100.772463
1759229786.894371, 1.845481, 8.165125, -0.153379, -0.495677, -0.862103, -2.784474, 18.078323, 18.774689, -235.668686, 13.727700, 100.772463
1759229786.914947, 2.221969, 8.906879, 0.238822, -0.089436, -0.230133, -3.557303, 16.481537, 17.631805, -235.248749, 13.727700, 100.772463
1759229786.934976, -0.082750, 7.747936, 0.110881, -0.400586, 0.561718, -5.435474, 14.900620, 16.124969, -235.902466, 13.727700, 100.772463
1759229786.954960, -1.442656, 9.020903, 0.487519, -0.791664, 1.256897, -5.890291, 12.755844, 13.395996, -235.791321, 13.727700, 100.772463
1759229786.974964, 0.597054, 5.087529, -0.403273, -0.570262, 1.892292, -5.676723, 10.210251, 10.454865, -235.913742, 13.727700, 100.772463
1759229786.994564, 1.930475, 4.255843, 0.715717, -0.233991, 1.969341, -5.262282, 8.208176, 7.648026, -237.207047, 13.727700, 100.772463
1759229787.014952, 1.929128, 4.148852, 1.152509, 0.397271, 0.958134, -4.482574, 6.152344, 5.206924, -237.637375, 13.727700, 100.772463
1759229787.034394, 2.075623, 4.292205, 1.972373, 0.603547, -0.115308, -3.515853, 6.336807, 3.280197, -239.388840, 13.728321, 100.772600
1759229787.054600, 1.814506, 6.526594, 0.771232, 0.544269, -1.280260, -2.184188, 5.879730, 1.537750, -238.825485, 13.728321, 100.772600
1759229787.074290, 1.136947, 16.927604, 1.249474, 0.323905, -3.081346, -1.157419, 6.599991, 1.095444, -237.502960, 13.728321, 100.772600
1759229787.094770, -4.562301, 28.677747, 2.441637, -0.080223, -3.477987, -1.263388, 8.396774, 0.545135, -236.116592, 13.728321, 100.772600
1759229787.115036, -0.118513, 16.649877, -0.821211, -0.689350, -0.896623, 0.211837, 9.230331, 0.039703, -234.472626, 13.728321, 100.772600
1759229787.135022, -1.411532, 7.363218, -1.799093, -0.593494, 1.806682, 0.443826, 9.039520, -0.284714, -234.678345, 13.728321, 100.772600
1759229787.154972, -0.566079, 7.798214, -1.211316, 0.062363, 1.859649, 0.138254, 8.065582, -0.000153, -235.746658, 13.728321, 100.772600
1759229787.174497, -0.969652, 8.736292, 0.157568, 0.519868, 0.453450, 0.133846, 7.721710, -0.245346, -236.007614, 13.728321, 100.772600
1759229787.194162, -1.412130, 10.184485, 1.522712, 0.254962, -0.179170, 0.073456, 7.427170, 0.344788, -235.965714, 13.728321, 100.772600
1759229787.215037, -1.270274, 10.140791, 1.946785, -0.022289, -0.186603, 0.043415, 7.506302, 0.202438, -236.509766, 13.728321, 100.772600
1759229787.234965, -0.515053, 9.624990, 1.884686, -0.138217, -0.315332, -0.007175, 8.019028, -0.028946, -237.023224, 13.728321, 100.772600
1759229787.255035, -0.351349, 9.927108, 1.414824, -0.273038, -0.144367, -0.067048, 7.952881, 0.280014, -236.513504, 13.728321, 100.772600
1759229787.275022, 0.462829, 9.899874, 0.379631, -0.310468, 0.024060, -0.022819, 7.897827, -0.381363, -235.835968, 13.728321, 100.772600
1759229787.294966, 0.072724, 9.825055, -0.252139, -0.237453, 0.245808, 0.091587, 7.826080, -0.094666, -236.399963, 13.728321, 100.772600
1759229787.314952, -0.428562, 9.766248, -0.242862, -0.094717, 0.221823, 0.143688, 7.960236, 0.111862, -236.052490, 13.728321, 100.772600
1759229787.334342, -0.701800, 9.819818, 0.158317, -0.065879, 0.077898, 0.174432, 7.595810, 0.013351, -236.035858, 13.728321, 100.772600
1759229787.354964, -0.989703, 9.811738, 0.407463, -0.079307, 0.079015, 0.168418, 7.911499, 0.122070, -236.298599, 13.728321, 100.772600
1759229787.374958, -1.022773, 9.568277, 0.579098, -0.067985, 0.105218, 0.165624, 7.712738, -0.009537, -235.999634, 13.728321, 100.772600
1759229787.394958, -1.201440, 9.575161, 0.813580, -0.059052, 0.104711, 0.131216, 7.676392, 0.157242, -236.121094, 13.728321, 100.772600
1759229787.414974, -1.354969, 9.799767, 0.993893, -0.055318, 0.048894, 0.088046, 7.676270, 0.021820, -236.358261, 13.728321, 100.772600
1759229787.434997, -1.291522, 9.779566, 1.012598, -0.033476, -0.024135, 0.032490, 7.737198, 0.073547, -236.344711, 13.728321, 100.772600
1759229787.454977, -1.001824, 9.666140, 1.159841, 0.004579, -0.046948, -0.015706, 7.645477, 0.106567, -235.956696, 13.728321, 100.772600
1759229787.474979, -0.737414, 9.576657, 1.410035, 0.039358, -0.000732, -0.033907, 7.300308, 0.069351, -235.715408, 13.728321, 100.772600
1759229787.494973, -0.621445, 9.398738, 1.729960, 0.049276, 0.081669, -0.045022, 7.446564, 0.134979, -236.130920, 13.728321, 100.772600
1759229787.514976, -0.601394, 9.338135, 1.925986, -0.010620, 0.124175, -0.049727, 7.838181, 0.222244, -236.326630, 13.728321, 100.772600
1759229787.535076, -0.560243, 9.300576, 1.880945, -0.097830, 0.061813, -0.053204, 7.391434, 0.127869, -236.647568, 13.728321, 100.772600
1759229787.554603, -0.471209, 9.357588, 1.562366, -0.152868, -0.016151, -0.046442, 7.233124, -0.099579, -236.310959, 13.728321, 100.772600
1759229787.574981, -0.576853, 9.443031, 1.241394, -0.126409, -0.039990, -0.051037, 7.822311, -0.052948, -235.629974, 13.728321, 100.772600
1759229787.594988, -0.799963, 9.529671, 1.208623, -0.074367, -0.082419, -0.077377, 7.384918, -0.404099, -236.370850, 13.728321, 100.772600
1759229787.614467, -0.958429, 9.718962, 1.440262, -0.086939, -0.185129, -0.113204, 7.707031, -0.333069, -236.511032, 13.728321, 100.772600
1759229787.634995, -1.032051, 9.851691, 1.517176, -0.127061, -0.211726, -0.136467, 7.541718, -0.622559, -236.107300, 13.728321, 100.772600
1759229787.654972, -1.018434, 9.724050, 1.408838, -0.157412, -0.190401, -0.159065, 7.699570, -0.587418, -236.331039, 13.728321, 100.772600
1759229787.674963, -0.978181, 9.442432, 1.243937, -0.149390, -0.174122, -0.165923, 8.072174, -0.795303, -236.241928, 13.728321, 100.772600
1759229787.694976, -0.809689, 9.468619, 1.088314, -0.115322, -0.197661, -0.160100, 7.872391, -1.110184, -235.749069, 13.728321, 100.772600
1759229787.714957, -0.828094, 10.016292, 0.888099, -0.058070, -0.242258, -0.160033, 8.130005, -1.186798, -235.774490, 13.728321, 100.772600
1759229787.735009, -0.783203, 10.414777, 0.401927, 0.034926, -0.297052, -0.169598, 8.223129, -1.513687, -235.591232, 13.728321, 100.772600
1759229787.754969, -0.507122, 10.287136, -0.377685, 0.221299, -0.342076, -0.145112, 8.165283, -0.994965, -235.013519, 13.728321, 100.772600
1759229787.774981, -0.234632, 10.374076, -1.377115, 0.518601, -0.368195, -0.091018, 8.459579, -0.832169, -234.977097, 13.728321, 100.772600
1759229787.794969, 0.219219, 10.673650, -2.231546, 0.858870, -0.280076, 0.050959, 8.613617, -0.691879, -234.808731, 13.728321, 100.772600
1759229787.814897, 1.002273, 10.407894, -2.695123, 1.221645, -0.038592, 0.294272, 8.623062, 0.079971, -234.394760, 13.728321, 100.772600
1759229787.834991, 1.790115, 10.149021, -3.173365, 1.630529, 0.179145, 0.612074, 8.136078, 1.187210, -234.659088, 13.728321, 100.772600
1759229787.854994, 2.348562, 10.594642, -3.762338, 2.117222, 0.547761, 0.920570, 8.528046, 2.101501, -234.896057, 13.728321, 100.772600
1759229787.875031, 2.678363, 11.152790, -1.720533, 2.391229, 0.909141, 1.227838, 8.320816, 4.129623, -235.233414, 13.728321, 100.772600
1759229787.895020, 3.896563, 11.037719, 1.182586, 1.887658, 2.388372, 1.892478, 7.479111, 5.718323, -236.696945, 13.728321, 100.772600
1759229787.914977, 3.765630, 11.027394, 3.193117, 0.878527, 3.632381, 2.045608, 7.150909, 7.736969, -237.947769, 13.728321, 100.772600
1759229787.935046, 0.862212, 15.488539, -1.052551, 0.719250, 1.946818, 1.916750, 6.229736, 8.754105, -240.061096, 13.728321, 100.772600
1759229787.955048, -3.419219, 14.254777, -7.755717, 1.536819, -0.134799, 1.430839, 5.912338, 10.396027, -240.978821, 13.728321, 100.772600
1759229787.974590, -3.017143, 11.835736, -2.766500, 1.447773, -0.905498, 1.403105, 6.297043, 11.602798, -241.064499, 13.728321, 100.772600
1759229787.994474, -1.369034, 10.420314, 1.873612, 1.203884, -0.982713, 1.300182, 7.245728, 12.673615, -240.865677, 13.728321, 100.772600
1759229788.014255, -0.542885, 8.643517, 2.910002, 0.534893, -0.420122, 0.981962, 7.694092, 13.787186, -240.506210, 13.728321, 100.772600
1759229788.034125, 0.272340, 6.711845, 1.099387, 0.171507, -0.134435, 0.799753, 7.559753, 14.209320, -240.358658, 13.728343, 100.772580
1759229788.054043, 0.703746, 6.178836, -0.184503, -0.109489, -0.152032, 0.646224, 8.340942, 14.709137, -240.509918, 13.728343, 100.772580
1759229788.074962, 0.647033, 6.025757, -1.515979, -0.405277, -0.441316, 0.175480, 8.298187, 14.958588, -240.392975, 13.728343, 100.772580
1759229788.094992, 0.677260, 5.154417, -2.179322, -0.542423, -0.761702, -0.070966, 8.356964, 14.792282, -240.415115, 13.728343, 100.772580
1759229788.114963, 0.792181, 4.235642, -1.571644, -0.726279, -0.827312, -0.242673, 8.779205, 14.833954, -239.143677, 13.728343, 100.772580
1759229788.135184, 0.775123, 3.691709, -1.579575, -0.899480, -1.019269, -0.365779, 8.910919, 13.860535, -238.383850, 13.728343, 100.772580
1759229788.155013, 0.577751, 4.124910, -2.224662, -0.922684, -1.159848, -0.509832, 9.306641, 13.434906, -238.113708, 13.728343, 100.772580
1759229788.175168, 0.124199, 4.570830, -2.342128, -0.881925, -0.706697, -0.659235, 9.614304, 12.709671, -237.287933, 13.728343, 100.772580
1759229788.195043, 0.349703, 5.526865, -1.947982, -0.837051, 0.570861, -0.698577, 9.338104, 11.825180, -236.566315, 13.728343, 100.772580
1759229788.215036, 0.812831, 7.933337, -3.625420, -0.269427, 0.868941, -0.866797, 8.806656, 11.392502, -236.694061, 13.728343, 100.772580
1759229788.234976, 1.311125, 9.390059, -3.355324, -0.219003, 1.166696, -0.889589, 8.445435, 10.423706, -237.365631, 13.728343, 100.772580
1759229788.255066, 1.623568, 9.285462, -1.494431, -0.381478, 0.920001, -0.742810, 7.839279, 10.375534, -237.364456, 13.728343, 100.772580
1759229788.274959, 1.428291, 8.516624, -1.022324, -0.366563, 0.178109, -0.532367, 7.453613, 9.551010, -237.780945, 13.728343, 100.772580
1759229788.295114, 1.976713, 7.620744, -1.142184, -0.251932, -0.562915, -0.399956, 7.151703, 8.857452, -238.040848, 13.728343, 100.772580
1759229788.313978, 1.987936, 7.951443, -1.698985, -0.247815, -0.491388, -0.492801, 7.383972, 8.972290, -237.360199, 13.728343, 100.772580
1759229788.334778, 1.988235, 9.369708, -2.759018, -0.456809, 0.867949, -0.416148, 7.283340, 8.161743, -236.865585, 13.728343, 100.772580
1759229788.355007, 2.168548, 10.949582, -1.875558, -0.716712, 2.035056, -0.075615, 6.880692, 7.962448, -237.372803, 13.728343, 100.772580
1759229788.375002, 0.946607, 10.554389, -0.728286, -0.860160, 2.149467, 0.061353, 5.637360, 7.405487, -238.517883, 13.728343, 100.772580
1759229788.395046, -0.157119, 8.643966, -1.673547, -0.889782, 1.669958, -0.085767, 4.847107, 7.290466, -239.000427, 13.728343, 100.772580
1759229788.414023, 0.604686, 7.842507, -1.794305, -0.826925, 1.413361, -0.238067, 4.222534, 6.381790, -240.023407, 13.728343, 100.772580
1759229788.434978, 3.226336, 7.196970, -1.726070, -0.798185, 1.448817, -0.078145, 3.961777, 6.102783, -241.131943, 13.728343, 100.772580
1759229788.455001, 5.279364, 8.094048, -1.236456, -0.837055, 1.982826, 0.360010, 3.384125, 5.766754, -241.511108, 13.728343, 100.772580
1759229788.475038, 6.613234, 12.703035, -4.513968, -0.115377, 3.100157, 1.076966, 2.652481, 5.614487, -242.692825, 13.728343, 100.772580
1759229788.495216, 4.648791, 14.832229, -3.647117, 0.692298, 0.834421, 0.735215, 1.899673, 6.496109, -244.332657, 13.728343, 100.772580
1759229788.514300, -0.704943, 12.328941, 3.436876, 0.136736, -2.665479, 0.571788, 2.030487, 7.311035, -244.265366, 13.728343, 100.772580
1759229788.534811, -1.877204, 13.400646, 3.532495, -1.240442, -2.316792, 0.728111, 2.893661, 7.274475, -241.691254, 13.728343, 100.772580
1759229788.554965, 8.393472, 26.559328, -16.158317, 1.578560, 0.476516, 1.459729, 3.234222, 7.878662, -241.790283, 13.728343, 100.772580
1759229788.574518, 1.823035, 15.086014, 3.867234, 2.602531, -1.580744, -0.167743, 3.233078, 9.299515, -241.465134, 13.728343, 100.772580
1759229788.595029, -3.139397, 10.426150, 2.620753, 2.647188, -3.182295, -0.565572, 4.100296, 10.279221, -240.670532, 13.728343, 100.772580
1759229788.614476, -3.577087, 7.361422, 10.628011, 1.230533, -5.479912, -0.455292, 5.456497, 10.524261, -239.032928, 13.728343, 100.772580
1759229788.634983, -2.851943, 8.434772, 10.431088, -0.690645, -4.805809, -0.612939, 7.746017, 10.395218, -235.026245, 13.728343, 100.772580
1759229788.655212, -1.154604, 7.385813, 4.822970, -2.270597, 0.895954, -0.241070, 9.256592, 9.129684, -234.316360, 13.728343, 100.772580
1759229788.674988, -1.192462, 13.296349, 2.483835, -2.361415, 3.522846, 0.230839, 8.360016, 8.411758, -234.931778, 13.728343, 100.772580
1759229788.695195, 0.065092, 16.063297, -0.775721, -1.564061, 4.688510, 0.010692, 6.422516, 7.415985, -236.391708, 13.728343, 100.772580
1759229788.714663, 6.286425, 10.826281, -5.508011, -1.137944, 3.356659, -0.014060, 4.359573, 7.148300, -238.571091, 13.728343, 100.772580
1759229788.734977, 2.840271, 8.253112, -4.720169, -0.734500, 0.392051, -0.162753, 3.741653, 6.711929, -240.187607, 13.728343, 100.772580
1759229788.755056, -0.236727, 6.186467, -2.959233, -0.051555, -0.767496, -0.503334, 3.808914, 6.690567, -239.174561, 13.728343, 100.772580
1759229788.775016, -0.738910, 5.213524, -0.927454, 0.186502, -0.881618, -0.707415, 3.860596, 6.059311, -239.079025, 13.728343, 100.772580
1759229788.795002, 2.800767, 5.529409, -0.345214, -0.073831, -0.545158, -0.651936, 3.911270, 5.703186, -238.462433, 13.728343, 100.772580
1759229788.814869, 4.017770, 6.385037, -1.130512, -0.106087, 0.471568, -0.386929, 3.661209, 5.405106, -237.757721, 13.728343, 100.772580
1759229788.835052, 4.037671, 8.392126, -0.882712, 0.000124, 1.491210, 0.005498, 3.780457, 5.157242, -238.538147, 13.728343, 100.772580
1759229788.855018, 3.381959, 9.226056, -1.691055, 0.177050, 1.489354, 0.205122, 3.145691, 5.438843, -240.011444, 13.728343, 100.772580
1759229788.874972, 0.056713, 9.333346, -0.823456, 0.437949, 0.031826, 0.060310, 2.582901, 5.833618, -239.700241, 13.728343, 100.772580
1759229788.895155, 2.295590, 7.422025, -1.194856, 0.712467, -0.448725, 0.002532, 2.239761, 5.682938, -239.572357, 13.728343, 100.772580
1759229788.915048, 2.453608, 4.622904, -1.031003, 0.802705, -0.012872, 0.141574, 2.738647, 5.976791, -239.372543, 13.728343, 100.772580
1759229788.934517, 3.516633, 4.693683, -2.011728, 0.909010, 1.041088, 0.345339, 2.714325, 6.714905, -239.388596, 13.728343, 100.772580
1759229788.955051, 4.764461, 7.127688, -2.068740, 1.337803, 1.581022, 0.480075, 1.886490, 7.477310, -240.272598, 13.728343, 100.772580
1759229788.975025, 5.632659, 11.080216, -2.426523, 1.671745, 0.721470, 0.784673, 1.776382, 8.289703, -241.545517, 13.728343, 100.772580
1759229788.995055, 6.632088, 16.807745, -5.180155, 1.959999, 0.473621, 1.230341, 1.518906, 9.827164, -242.539459, 13.728343, 100.772580
1759229789.015073, 4.040515, 15.371972, -3.134459, 2.735129, -2.649647, 1.218316, 2.499542, 11.314819, -242.471115, 13.728343, 100.772580
1759229789.034994, 1.964293, 13.302184, -0.036960, 3.201551, -3.718006, 1.285049, 3.834625, 13.039413, -240.558746, 13.728343, 100.772580
1759229789.054997, 2.401534, 16.585682, 3.186383, 2.744461, -3.469737, 1.387562, 5.470184, 14.862381, -239.532211, 13.728358, 100.772562
1759229789.074983, -1.897854, 21.344757, 4.447379, 1.526169, -1.469746, 1.321885, 6.819153, 16.555756, -238.796936, 13.728358, 100.772562
1759229789.095046, -6.424391, 15.282189, 3.662530, 0.402748, 1.236427, 1.104657, 7.697495, 17.419907, -238.735245, 13.728358, 100.772562
1759229789.115040, -5.929689, 7.623288, 1.539023, -0.648897, 1.353065, 0.836871, 7.254272, 18.041977, -239.911301, 13.728358, 100.772562
1759229789.134166, -5.064784, 5.828834, -1.274015, -1.385334, 1.198851, 0.634983, 7.484802, 18.514771, -240.863159, 13.728358, 100.772562
1759229789.154998, -2.809895, 6.895301, -1.116147, -1.744720, 1.441853, 0.146720, 7.106400, 18.064743, -240.275223, 13.728358, 100.772562
1759229789.175178, -1.148768, 8.707412, -1.286285, -2.045662, 1.584113, -0.133969, 6.383591, 17.680969, -240.261124, 13.728358, 100.772562
1759229789.195053, -0.881365, 8.125472, -1.591695, -2.184965, 1.639428, -0.369846, 6.229080, 16.789444, -240.602066, 13.728358, 100.772562
1759229789.215037, 0.053570, 6.509685, -1.549946, -2.075677, 1.338991, -0.585270, 5.342499, 15.779099, -240.548859, 13.728358, 100.772562
1759229789.234992, 1.027711, 4.746206, -1.372177, -1.830362, 0.834896, -1.052263, 4.727844, 14.504562, -240.020966, 13.728358, 100.772562
1759229789.255070, 2.173785, 4.857686, -2.431611, -1.246718, 0.225303, -1.418179, 3.871704, 13.407364, -240.463638, 13.728358, 100.772562
1759229789.275001, 1.857152, 4.564246, -2.290054, -0.652093, -0.219073, -1.653603, 3.858200, 11.949402, -240.400909, 13.728358, 100.772562
1759229789.295007, 2.013075, 4.835988, -1.641225, -0.303401, -0.848684, -1.701491, 2.996262, 10.935989, -239.355850, 13.728358, 100.772562
1759229789.314981, 2.637961, 5.290138, -1.594389, -0.205203, -1.677913, -1.669280, 3.260849, 9.859482, -238.356842, 13.728358, 100.772562
1759229789.334539, 1.079635, 6.674735, -3.964948, -0.357852, -1.009780, -1.619374, 3.576721, 8.548294, -237.666306, 13.728358, 100.772562
1759229789.355041, -0.437241, 10.220248, -6.255600, -0.142374, -0.195786, -1.310940, 3.121124, 7.600433, -237.359619, 13.728358, 100.772562
1759229789.375195, 2.223016, 11.048044, -3.690961, -0.087856, -0.045260, -0.808312, 2.774307, 7.444168, -237.234711, 13.728358, 100.772562
1759229789.395002, 4.510676, 10.555437, -1.808969, 0.095477, -0.431554, -0.136802, 2.937469, 7.085785, -237.274796, 13.728358, 100.772562
1759229789.415079, 5.341614, 11.605593, -0.628628, 0.069142, -0.912763, 0.348522, 3.401413, 7.351456, -236.940323, 13.728358, 100.772562
1759229789.435042, 5.694609, 14.365958, -4.829703, -0.101196, 1.080373, 0.778668, 3.338089, 7.433014, -236.230682, 13.728358, 100.772562
1759229789.455056, 2.402881, 13.941885, 1.849072, -0.331936, 1.731806, 0.975902, 2.955139, 8.329712, -237.199692, 13.728358, 100.772562
1759229789.475015, -0.882862, 13.223924, 3.168576, -0.084784, 1.409852, 0.752954, 2.539352, 8.737228, -237.964066, 13.728358, 100.772562
1759229789.495084, 4.595670, 25.642947, -17.131111, 0.168850, 8.360590, 2.225820, 1.231781, 9.740967, -241.179184, 13.728358, 100.772562
1759229789.515010, 9.738116, 16.246005, 3.381810, 0.924872, 2.870488, 2.030350, -0.385010, 11.486328, -245.857147, 13.728358, 100.772562
1759229789.534963, 0.252888, 9.210793, -2.107496, 1.953244, -3.618379, 0.392060, 0.450607, 12.749222, -245.399719, 13.728358, 100.772562
1759229789.555006, -2.557756, 7.480533, 8.314913, 1.293853, -5.977821, -0.083511, 2.005447, 13.480438, -241.803223, 13.728358, 100.772562
1759229789.575055, -2.862717, 7.460033, 5.832724, 0.518650, -4.840477, -0.717455, 3.701599, 13.140640, -238.901031, 13.728358, 100.772562
1759229789.595070, -1.781136, 10.841544, 6.786963, -0.474655, -3.174006, -1.146739, 4.839905, 12.402557, -236.561279, 13.728358, 100.772562
1759229789.615070, 1.674894, 13.106907, 5.916521, -1.619274, -1.310313, -0.625798, 5.944992, 11.881683, -234.582687, 13.728358, 100.772562
1759229789.635021, 4.199130, 11.606790, 2.121412, -2.039090, 1.844811, -0.096360, 5.628281, 10.576996, -234.470474, 13.728358, 100.772562
1759229789.655052, 5.553051, 10.075100, -2.058116, -1.482347, 5.431830, 0.120829, 3.435440, 10.025742, -236.525665, 13.728358, 100.772562
1759229789.674990, 2.655319, 9.866206, -5.650765, -1.544411, 1.645438, 0.016041, 1.376633, 9.327911, -239.290039, 13.728358, 100.772562
1759229789.695015, 0.789937, 7.236325, -11.896638, 0.615583, -2.213927, -0.282127, 1.103546, 9.023911, -239.091476, 13.728358, 100.772562
1759229789.715074, -1.084424, 5.766285, -3.809324, 1.499422, -3.342915, -0.390304, 1.756744, 9.178055, -238.436890, 13.728358, 100.772562
1759229789.734993, -0.585981, 6.774543, -0.152181, 1.082999, -1.838874, -0.287269, 3.313583, 9.622330, -237.000229, 13.728358, 100.772562
1759229789.755046, -0.455497, 7.126790, 1.651850, 0.260114, 0.046749, -0.148168, 3.927216, 10.222900, -236.468338, 13.728358, 100.772562
1759229789.775108, 0.070180, 7.051223, 2.549077, -0.138927, 1.128700, 0.018757, 3.743958, 10.110535, -236.172562, 13.728358, 100.772562
1759229789.795053, 1.737592, 6.411522, -0.144400, 0.179979, 1.633833, 0.169121, 3.318512, 9.612000, -236.953934, 13.728358, 100.772562
1759229789.815064, 1.800290, 6.553828, -2.417096, 0.465236, 1.337329, 0.162298, 2.610764, 9.994064, -237.913528, 13.728358, 100.772562
1759229789.834995, 1.783381, 8.104223, -0.307655, 0.450057, 0.213835, 0.063667, 1.860291, 10.405487, -238.512085, 13.728358, 100.772562
1759229789.855051, 4.600309, 9.799617, 0.756119, 0.394693, 0.484254, 0.412277, 1.775589, 10.849792, -238.887238, 13.728358, 100.772562
1759229789.875058, 9.037962, 10.051756, -2.261922, 0.968661, 1.607055, 1.241028, 1.300354, 11.334122, -239.359268, 13.728358, 100.772562
1759229789.895191, 9.281871, 12.274922, -2.643049, 1.277392, 0.043220, 1.923697, 1.603348, 12.763428, -240.623505, 13.728358, 100.772562
1759229789.915013, 4.001908, 16.753725, -4.883423, 1.936635, -1.663661, 1.784901, 2.253403, 14.039368, -240.754791, 13.728358, 100.772562
1759229789.935016, 0.539294, 18.181717, -2.714725, 2.156653, -2.672598, 1.478691, 3.509918, 16.097519, -240.344559, 13.728358, 100.772562
1759229789.955066, -1.842488, 19.030761, 1.986439, 1.745763, -1.997118, 1.252882, 4.992294, 17.453369, -238.932800, 13.728358, 100.772562
1759229789.975021, -4.419547, 18.802414, 2.904017, 0.971036, 0.029312, 0.858186, 6.339478, 18.960114, -239.173813, 13.728358, 100.772562
1759229789.995069, -2.787449, 10.140491, 3.142090, -0.053137, 1.284274, 0.832230, 6.218460, 19.683029, -239.856049, 13.728358, 100.772562
1759229790.015045, -3.035848, 7.073968, 0.305410, -0.728430, 1.996325, 0.315588, 6.027908, 20.315002, -240.835480, 13.728358, 100.772562
1759229790.034998, -3.382857, 7.767538, 0.290746, -1.538315, 1.870495, -0.256379, 5.358917, 19.607147, -241.218994, 13.728378, 100.772545
1759229790.055008, -2.153435, 8.691850, 0.079009, -1.671337, 1.727848, -0.662948, 4.649490, 19.056808, -241.525208, 13.728378, 100.772545
1759229790.074989, -1.677138, 8.155998, -1.949628, -1.357503, 1.704904, -0.900977, 3.898285, 18.077072, -242.214142, 13.728378, 100.772545
1759229790.095082, -1.968034, 5.857414, -1.706168, -1.131826, 1.599520, -1.214895, 2.543243, 17.018341, -242.849808, 13.728378, 100.772545
1759229790.115012, -1.569250, 3.431490, -1.138443, -0.838707, 1.282862, -1.594416, 1.601379, 16.069519, -242.811356, 13.728378, 100.772545
1759229790.134154, 1.022025, 2.289306, -1.306636, -0.359622, 0.704101, -1.665477, 1.181488, 14.692352, -243.875336, 13.728378, 100.772545
1759229790.155072, 2.196530, 2.009184, -1.881992, -0.011279, -0.067015, -1.639533, 0.269852, 13.946335, -243.944229, 13.728378, 100.772545
1759229790.175072, 3.131316, 4.160973, -2.038663, -0.016713, -0.916569, -1.483461, -0.028580, 12.690826, -243.350281, 13.728378, 100.772545
1759229790.195074, 4.364181, 6.583755, -0.544980, -0.287958, -1.310434, -0.792123, -0.396927, 11.820419, -243.009918, 13.728378, 100.772545
1759229790.215024, 5.081244, 9.199570, -1.079486, -0.154035, -0.523183, -0.403996, -0.074265, 11.709763, -242.458694, 13.728378, 100.772545
1759229790.234276, 3.440318, 11.109096, -3.969437, -0.030537, 0.922504, -0.502824, -0.271835, 11.244644, -242.186050, 13.728378, 100.772545
1759229790.255026, 4.991162, 10.593445, -0.893336, -0.853009, 0.125761, -0.419789, -0.665466, 11.353271, -242.561874, 13.728378, 100.772545
1759229790.275002, 5.590760, 9.158869, 1.013645, -1.028833, -2.139617, -0.265076, -0.539276, 10.283112, -242.483734, 13.728378, 100.772545
1759229790.294474, 4.143016, 8.470087, -0.984017, -0.633248, -1.848083, 0.020017, -0.104462, 10.236099, -240.309036, 13.728378, 100.772545
1759229790.314995, 4.571429, 9.777770, -3.934571, 0.145043, 0.979347, 0.517886, 0.457016, 10.035294, -239.649384, 13.728378, 100.772545
1759229790.334533, 6.539163, 11.026346, -3.557784, 0.474563, 2.103659, 1.033385, 0.459366, 10.582352, -240.999695, 13.728378, 100.772545
1759229790.354094, 4.209007, 9.681852, 1.745223, -0.610511, 1.094394, 0.998266, -0.110580, 11.264008, -242.269150, 13.728378, 100.772545
1759229790.375070, -0.616806, 15.596129, -2.694973, -1.462862, 1.860588, 1.255537, -0.358948, 11.690598, -242.825623, 13.728378, 100.772545
1759229790.394994, 1.045967, 28.125734, -30.702943, 1.456581, -1.176598, 2.617524, 0.288330, 13.688660, -244.175354, 13.728378, 100.772545
1759229790.415032, 10.918607, 17.651850, 11.921778, 2.542889, -4.412454, 0.805530, 2.167801, 15.246399, -241.183807, 13.728378, 100.772545
1759229790.434646, -0.557400, 13.919140, 3.582025, 1.836289, -3.725385, -0.238813, 2.703430, 15.712723, -241.075455, 13.728378, 100.772545
1759229790.455004, -0.508917, 7.341221, 11.779173, 0.369761, -3.118648, 0.159246, 4.931534, 16.185287, -238.027618, 13.728378, 100.772545
1759229790.475014, -2.414702, 5.947945, 8.691251, -0.925398, 0.591978, 0.090169, 4.826248, 16.244720, -237.825317, 13.728378, 100.772545
1759229790.495012, -4.424485, 6.447136, 5.495291, -1.640688, 1.593649, -0.279895, 4.267502, 15.216660, -237.946915, 13.728378, 100.772545
1759229790.515018, -2.843114, 14.151079, -0.321272, -1.484667, 1.023241, -0.269437, 3.986160, 14.804123, -238.392654, 13.728378, 100.772545
1759229790.534874, 2.834585, 14.609419, -1.217003, -0.717677, 0.788532, -0.650792, 3.676819, 14.383835, -239.304413, 13.728378, 100.772545
1759229790.554074, 7.472752, 11.653477, -3.171419, -0.400530, 0.797008, -0.458831, 2.914322, 13.903946, -239.453659, 13.728378, 100.772545
1759229790.574849, 2.470666, 8.340201, -1.669207, -0.505545, 0.910605, -0.586470, 2.530884, 13.057556, -239.472473, 13.728378, 100.772545
1759229790.595007, 2.499547, 7.598598, -2.541445, -0.184926, 0.773840, -0.509104, 1.808060, 12.805710, -240.052979, 13.728378, 100.772545
1759229790.615059, 2.781613, 7.378331, -0.554856, 0.004355, -0.322235, -0.222108, 1.442734, 12.472641, -239.962555, 13.728378, 100.772545
1759229790.635005, 3.804386, 5.814169, -1.187823, 0.129248, -1.193386, -0.188998, 1.799576, 12.153687, -238.794647, 13.728378, 100.772545
1759229790.655012, 1.665467, 3.339313, -0.664990, 0.135534, -0.148740, -0.095148, 2.208298, 12.520782, -239.066620, 13.728378, 100.772545
1759229790.675036, 0.380080, 3.674052, 0.542287, 0.082106, 0.339942, 0.017574, 2.181717, 12.264465, -239.019638, 13.728378, 100.772545
1759229790.695034, 1.524807, 4.093636, 1.258003, 0.014208, 1.177344, 0.148886, 1.784973, 12.290344, -239.636154, 13.728378, 100.772545
1759229790.715015, 3.920206, 6.249166, -0.521337, -0.046713, 1.812504, 0.341544, 1.064087, 12.566544, -240.655899, 13.728378, 100.772545
1759229790.735197, 4.720019, 9.144504, -1.461211, 0.104557, 1.206921, 0.374094, 0.468216, 12.989410, -242.076859, 13.728378, 100.772545
1759229790.755013, 5.980566, 9.734525, -0.390853, 0.294019, -0.150608, 0.291293, 0.817719, 13.046234, -242.186722, 13.728378, 100.772545
1759229790.775021, 8.583363, 9.254487, 0.135123, 0.506577, -0.527522, 0.551338, 0.720322, 13.448822, -241.812515, 13.728378, 100.772545
1759229790.795017, 8.807220, 9.350255, 0.551564, 0.756064, -0.620291, 1.176107, 1.505768, 14.470764, -242.413330, 13.728378, 100.772545
1759229790.815021, 8.600122, 12.961460, -2.403330, 1.015793, -1.074820, 1.772787, 2.701401, 16.435349, -241.867081, 13.728378, 100.772545
1759229790.835015, 4.131195, 17.329681, -2.048988, 1.480337, -2.670308, 1.769956, 4.453247, 17.866165, -240.711365, 13.728378, 100.772545
1759229790.854130, 1.814057, 21.846641, 0.519093, 1.575011, -3.183190, 1.608772, 5.218491, 18.549713, -240.309723, 13.728378, 100.772545
1759229790.875061, -0.434548, 24.792706, 1.984494, 1.255309, -2.128773, 1.139932, 7.602875, 20.467819, -238.594482, 13.728378, 100.772545
1759229790.895214, -1.844433, 14.915128, 1.831864, 0.732017, -0.538914, 0.938881, 7.825378, 20.932251, -239.264511, 13.728378, 100.772545
1759229790.915059, -4.506935, 9.234436, 0.135422, 0.257758, 0.035884, 0.718002, 8.512680, 21.446915, -238.619965, 13.728378, 100.772545
1759229790.935038, -6.978050, 7.126491, -0.080505, -0.437057, 0.849974, 0.423124, 8.182144, 21.613953, -239.364105, 13.728378, 100.772545
1759229790.954385, -6.374562, 7.970297, -0.045191, -1.293718, 1.484692, 0.178925, 8.175812, 21.621887, -239.359863, 13.728378, 100.772545
1759229790.975023, -3.252074, 9.413552, -0.464325, -1.731295, 2.240424, -0.029718, 7.157059, 20.454071, -239.844193, 13.728378, 100.772545
1759229790.995018, -1.777096, 8.825626, -0.804601, -1.798248, 2.668725, -0.328373, 6.072098, 19.763748, -240.293518, 13.728378, 100.772545
1759229791.014220, -1.268927, 6.995708, -1.356764, -1.680951, 2.561700, -0.871850, 5.410217, 19.468658, -240.783859, 13.728378, 100.772545
1759229791.035041, -0.408960, 4.875642, -1.218050, -1.338106, 1.758241, -1.532939, 3.613403, 17.779999, -242.129379, 13.728400, 100.772530
1759229791.054532, 0.651821, 4.233996, -0.879271, -0.823778, 1.128178, -1.955787, 2.472778, 15.791306, -242.046310, 13.728400, 100.772530
1759229791.075009, 1.718139, 4.440795, -1.073051, -0.277166, 0.611713, -2.223176, 1.344864, 14.556976, -242.630386, 13.728400, 100.772530
1759229791.095056, 4.263026, 5.544073, -2.799869, 0.354290, -0.342606, -2.077185, 1.391418, 12.979584, -242.233826, 13.728400, 100.772530
1759229791.115028, 6.068703, 5.888389, -3.135955, 0.997607, -1.880092, -1.974182, 1.074844, 12.312683, -241.469208, 13.728400, 100.772530
1759229791.135027, 6.317550, 5.972635, -1.385046, 0.894338, -2.537968, -1.902596, 1.256241, 11.396179, -240.011292, 13.728400, 100.772530
1759229791.154712, 6.491878, 7.805995, -1.400009, 0.489770, -2.195100, -1.298415, 1.518265, 10.689545, -239.025681, 13.728400, 100.772530
1759229791.175023, 5.060893, 8.086266, -1.011700, 0.132248, -0.995690, -0.634304, 2.239746, 10.127884, -238.609360, 13.728400, 100.772530
1759229791.195018, 2.961029, 7.840412, 1.399112, -0.428587, -0.228375, -0.092880, 1.922180, 9.879623, -237.983459, 13.728400, 100.772530
1759229791.215027, 1.776198, 9.582643, 1.560571, -0.467168, -0.756064, 0.217368, 2.593262, 9.812607, -237.733704, 13.728400, 100.772530
1759229791.235020, 1.259350, 11.704354, 0.007183, -0.335696, -0.311550, 0.370753, 2.515091, 9.663223, -237.884369, 13.728400, 100.772530
1759229791.254924, 4.707898, 13.579463, -2.058116, -0.239631, 2.762983, 0.994795, 2.061630, 10.778961, -239.381454, 13.728400, 100.772530
1759229791.275025, 2.621651, 11.616666, 1.597830, -0.168272, 2.594389, 0.862278, 1.389191, 11.358124, -240.621338, 13.728400, 100.772530
1759229791.294333, 1.865233, 10.848128, -3.005022, -0.147662, 4.151739, 0.668995, -0.160477, 11.643341, -243.765869, 13.728400, 100.772530
1759229791.315033, 21.659744, 29.289616, -9.262119, -0.665558, 7.438525, 3.354410, -0.876282, 14.259033, -248.027954, 13.728400, 100.772530
1759229791.334401, 2.528876, 17.004069, -10.324995, 1.730949, -1.506851, 1.361307, -0.516602, 15.125214, -248.176926, 13.728400, 100.772530
1759229791.355091, -4.382736, 10.402806, 5.630264, 2.727744, -5.319423, -0.177446, 1.068558, 15.505692, -245.861023, 13.728400, 100.772530
1759229791.375030, -3.971382, 8.567501, 8.204181, 1.514951, -5.065310, -0.588976, 2.489044, 15.624619, -242.880905, 13.728400, 100.772530
1759229791.395045, -2.648286, 9.456049, 6.068553, 0.737478, -3.366284, -0.498137, 3.326462, 15.311401, -240.731689, 13.728400, 100.772530
1759229791.415047, -2.454057, 10.377667, 6.338948, -0.759739, -2.427305, -1.097526, 3.702454, 14.876678, -239.771469, 13.728400, 100.772530
1759229791.435013, 1.460762, 11.269806, 7.532907, -2.079870, -1.860168, -0.423557, 4.438828, 13.693954, -238.056885, 13.728400, 100.772530
1759229791.455048, 4.881029, 12.088923, 4.917241, -2.554170, 1.979807, -0.099326, 4.452225, 12.522400, -237.436401, 13.728400, 100.772530
1759229791.474633, 8.378658, 12.863597, -1.983746, -1.584391, 5.523119, -0.057945, 2.512268, 11.945114, -239.143188, 13.728400, 100.772530
1759229791.494435, 4.418200, 11.001656, -2.554015, -0.877592, 5.602652, -0.194511, 0.990723, 11.109756, -241.967361, 13.728400, 100.772530
1759229791.515037, 3.645022, 8.066664, -6.613683, -0.622235, -0.481659, -0.404643, -0.278397, 10.470001, -243.065842, 13.728400, 100.772530
1759229791.535023, 1.915810, 4.502895, -9.446173, 1.110188, -3.627957, -0.219089, 0.861832, 10.560562, -241.742233, 13.728400, 100.772530
1759229791.555090, 0.804601, 4.321085, -1.506701, 1.265595, -3.512790, -0.281534, 2.097183, 10.905716, -239.401703, 13.728400, 100.772530
1759229791.575135, -0.852785, 3.323451, 2.388515, 0.533222, -1.366369, -0.326161, 2.565811, 11.340958, -238.623474, 13.728400, 100.772530
1759229791.595036, -0.196773, 2.408567, 4.123713, -0.412018, 1.094753, -0.037394, 2.975433, 10.955780, -238.410736, 13.728400, 100.772530
1759229791.615113, 1.529446, 4.153940, 1.484106, -0.269149, 2.956205, 0.299707, 1.898483, 11.000015, -239.673676, 13.728400, 100.772530
1759229791.635098, 1.127070, 8.059930, -3.446603, 0.215382, 2.371396, 0.314883, 1.230988, 11.238754, -241.741837, 13.728400, 100.772530
1759229791.655081, 1.711854, 9.918579, -2.405125, 0.609120, 0.301564, 0.109374, 1.289993, 11.448898, -242.877640, 13.728400, 100.772530
1759229791.675077, 5.239860, 8.779388, -1.241394, 0.994754, -0.193764, 0.444908, 0.969116, 12.114563, -242.820572, 13.728400, 100.772530
1759229791.695090, 8.046613, 10.597485, -0.563535, 1.149306, 0.179412, 1.014310, 1.410751, 12.815994, -242.998520, 13.728400, 100.772530
1759229791.715031, 9.019855, 14.108731, 0.024690, 1.207646, 0.368311, 1.509420, 1.872498, 14.060135, -243.866531, 13.728400, 100.772530
1759229791.735218, 7.225102, 16.008680, -1.916558, 1.319194, -0.697079, 2.000956, 2.486221, 15.518387, -243.962524, 13.728400, 100.772530
1759229791.755093, 4.172944, 20.680515, -2.248455, 1.531500, -2.108797, 2.091358, 3.534927, 17.364029, -244.190445, 13.728400, 100.772530
1759229791.775130, 1.648109, 23.297827, -1.717540, 1.735356, -1.881923, 1.623999, 5.281433, 18.968887, -244.140091, 13.728400, 100.772530
1759229791.795096, -1.745223, 16.380380, 1.541267, 1.118223, -0.901746, 1.133247, 6.205856, 20.073105, -243.514572, 13.728400, 100.772530
1759229791.815039, -2.440440, 11.289559, 3.508403, 0.278142, 1.218932, 0.776644, 6.285141, 20.624084, -243.882156, 13.728400, 100.772530
1759229791.835038, -3.980211, 7.958476, 3.226935, -0.624031, 1.970599, 0.226923, 5.998444, 20.565338, -244.501541, 13.728400, 100.772530
1759229791.854143, -3.287389, 7.174076, -0.056862, -1.083302, 1.866301, -0.149676, 5.926346, 20.595688, -245.370697, 13.728400, 100.772530
1759229791.875087, -2.704101, 8.493879, -2.364573, -1.226486, 1.643973, -0.402279, 5.205734, 20.103806, -245.815414, 13.728400, 100.772530
1759229791.895232, -0.018854, 9.330204, -1.602319, -1.533208, 1.122539, -0.519711, 4.833755, 18.979004, -246.695160, 13.728400, 100.772530
1759229791.915046, 3.185485, 9.735722, -0.016310, -1.847893, 1.061676, -0.452924, 4.101212, 18.313766, -245.999832, 13.728400, 100.772530
1759229791.935240, 3.930980, 8.949526, -0.847547, -1.389752, 0.919556, -0.781855, 3.683350, 17.615036, -246.631180, 13.728400, 100.772530
1759229791.954231, 1.844583, 6.930615, -3.578583, -0.771079, 0.296213, -1.054058, 2.895081, 16.635345, -246.026535, 13.728400, 100.772530
1759229791.975031, -0.157718, 5.042488, -2.940529, -0.289399, -0.883836, -1.340407, 2.693207, 15.947357, -245.602066, 13.728400, 100.772530
1759229791.995096, -1.361104, 4.121469, -1.346140, -0.002392, -1.833670, -1.717140, 2.869629, 15.106857, -244.334366, 13.728400, 100.772530
1759229792.015069, -1.026215, 3.647716, -0.500089, 0.099680, -2.202116, -1.858227, 2.376358, 14.022018, -243.358994, 13.728400, 100.772530
1759229792.035052, -0.039804, 4.054431, -0.077363, 0.132137, -2.258859, -1.856679, 2.817383, 12.858017, -242.079987, 13.728424, 100.772517
1759229792.054577, 1.043722, 4.446631, 0.840814, 0.085841, -2.685170, -1.483240, 3.243195, 11.830643, -240.670486, 13.728424, 100.772517
1759229792.075033, 2.916437, 5.844246, 1.093252, -0.329891, -2.566317, -1.059085, 3.737503, 10.974960, -239.405334, 13.728424, 100.772517
1759229792.095245, 1.852364, 8.551639, 0.032621, -0.931454, -0.898415, -0.811213, 5.095642, 10.248657, -237.850067, 13.728424, 100.772517
1759229792.115056, 0.156371, 12.675951, -7.355436, -0.185085, 2.668406, -0.451999, 3.524704, 9.734390, -238.816788, 13.728424, 100.772517
1759229792.135032, 0.943016, 13.096283, -4.466982, -0.320937, 3.494850, 0.109594, 2.175644, 10.025681, -241.096863, 13.728424, 100.772517
1759229792.154685, 0.652420, 9.546879, -1.739986, -0.488227, 2.180481, 0.131897, 1.356171, 9.795013, -242.133728, 13.728424, 100.772517
1759229792.175076, 1.311574, 6.034286, 0.943016, -0.445286, 0.848213, 0.061594, 1.182007, 9.644684, -243.784653, 13.728424, 100.772517
1759229792.195099, 1.622371, 7.261464, 2.087893, -0.412928, 1.266617, 0.040386, 1.264511, 9.491089, -244.054306, 13.728424, 100.772517
1759229792.215089, 0.303914, 8.653393, 2.375198, -0.256695, 1.482061, -0.177295, 0.255951, 9.726624, -245.003464, 13.728424, 100.772517
1759229792.235102, 1.376067, 11.067197, 1.679832, -0.697632, 1.403316, -0.093087, 0.072250, 9.432541, -245.863449, 13.728424, 100.772517
1759229792.254832, 4.214244, 13.111097, -0.090830, -1.285121, -0.279339, 0.508128, 0.110550, 9.079391, -246.135300, 13.728424, 100.772517
1759229792.274369, 14.595652, 24.638280, -1.689708, 0.640965, 0.879020, 1.575255, 0.197723, 10.099640, -246.120895, 13.728424, 100.772517
1759229792.295056, 7.806145, 18.164209, -2.575562, 0.382187, 1.739766, 1.445248, 0.425201, 11.158005, -247.652542, 13.728424, 100.772517
1759229792.315109, -4.968567, 6.500856, -0.509666, 1.205520, -1.412547, 1.003321, 0.983307, 11.942657, -247.381424, 13.728424, 100.772517
1759229792.334616, -5.940763, 5.709273, 3.206285, 1.850557, -2.737954, 0.420628, 1.727921, 12.491928, -246.152908, 13.728424, 100.772517
1759229792.355037, -5.984756, 7.032668, 4.960935, 1.028265, -2.182818, -0.301846, 2.273956, 12.754608, -244.790985, 13.728424, 100.772517
1759229792.375101, -4.977246, 10.619781, 6.051644, -0.441104, -2.338843, -1.174995, 2.224777, 12.268372, -243.290375, 13.728424, 100.772517
1759229792.395090, -1.166575, 14.480132, 5.906795, -1.630244, -2.204620, -1.579662, 3.204361, 10.556931, -241.257904, 13.728424, 100.772517
1759229792.415095, 4.553173, 13.201927, 3.238457, -2.431176, -1.010681, -0.970933, 3.214737, 9.340454, -240.367249, 13.728424, 100.772517
1759229792.435092, 10.351181, 10.062979, -4.816685, -1.674930, 4.220488, -0.168096, 2.274033, 8.480911, -241.520370, 13.728424, 100.772517
1759229792.455041, 5.716456, 7.015161, -3.980510, -0.957411, 5.172745, -0.313450, 0.639816, 8.045685, -245.281555, 13.728424, 100.772517
1759229792.475035, 3.011756, 5.546467, -9.253739, -0.297727, 0.324832, -0.213980, 0.121155, 7.580658, -245.608185, 13.728424, 100.772517
1759229792.494150, -0.665887, 4.482245, -4.897938, 1.606739, -2.830277, -0.222602, 0.630081, 7.784851, -244.825180, 13.728424, 100.772517
1759229792.515047, -0.584784, 5.338322, 1.990779, 1.623940, -2.533413, -0.237471, 1.313110, 8.402435, -242.712418, 13.728424, 100.772517
1759229792.535049, 0.273089, 5.421221, 4.800524, 0.530379, -1.028884, -0.122794, 1.848572, 8.229858, -242.086517, 13.728424, 100.772517
1759229792.555038, 2.337339, 5.841852, 4.010138, -0.408337, 0.512578, 0.061840, 1.874664, 8.084824, -242.597870, 13.728424, 100.772517
1759229792.575105, 3.763236, 8.811859, 1.073650, -0.309413, 1.208222, 0.217505, 1.867905, 8.241516, -243.315170, 13.728424, 100.772517
1759229792.595100, 4.409222, 10.839449, -1.479467, 0.247932, 1.083211, 0.233888, 1.582230, 8.222122, -243.619125, 13.728424, 100.772517
1759229792.615052, 6.520907, 9.141810, -1.815254, 0.501971, -0.201927, 0.444002, 1.626297, 8.481995, -243.956573, 13.728424, 100.772517
1759229792.634338, 6.518663, 9.959879, -1.991377, 0.625004, -0.503891, 0.962785, 1.799744, 9.388535, -243.933243, 13.728424, 100.772517
1759229792.655039, 2.538752, 13.176040, -3.030610, 1.269440, -1.133114, 0.986648, 2.701447, 10.168716, -243.605682, 13.728424, 100.772517
1759229792.674391, 1.902941, 13.194745, -2.614917, 2.006204, -2.056896, 0.984296, 3.542450, 11.470703, -242.889847, 13.728424, 100.772517
1759229792.695052, 2.349460, 11.998691, -0.696713, 2.284129, -2.217093, 1.359970, 5.101624, 12.831955, -242.221802, 13.728424, 100.772517
1759229792.715088, 1.351976, 14.317625, 1.850868, 2.184446, -1.772575, 1.857246, 6.122269, 14.265137, -241.435028, 13.728424, 100.772517
1759229792.734564, -0.626832, 20.794390, 3.491943, 1.298810, -0.197676, 2.132803, 6.950607, 16.065506, -241.593597, 13.728424, 100.772517
1759229792.755058, -4.520702, 24.081479, 4.276044, -0.273380, 2.040331, 1.938932, 6.802185, 17.030701, -242.301834, 13.728424, 100.772517
1759229792.775112, -2.626439, 12.764985, 0.971597, -0.809570, 1.936284, 1.021203, 6.403290, 17.111786, -243.138321, 13.728424, 100.772517
1759229792.795067, -2.965668, 9.276334, -1.177947, -0.698908, 1.414665, 0.540076, 6.464783, 17.355942, -244.869766, 13.728424, 100.772517
1759229792.815071, -2.455703, 8.776395, -0.560243, -0.877018, 1.126058, 0.205881, 6.205490, 17.471161, -244.589981, 13.728424, 100.772517
1759229792.835067, -0.693421, 9.595062, -1.094150, -0.930759, 1.247495, -0.179442, 5.550842, 17.093369, -244.386993, 13.728424, 100.772517
1759229792.855113, 0.527024, 9.717316, -0.177470, -1.043828, 1.398266, -0.355075, 4.959076, 16.363297, -244.686462, 13.728424, 100.772517
1759229792.874761, -0.065841, 8.289025, -0.917877, -1.042263, 1.302028, -0.538417, 4.457352, 16.180771, -245.945465, 13.728424, 100.772517
1759229792.895058, -0.228497, 6.346430, -3.582773, -0.464407, 0.426181, -0.913739, 4.224365, 15.380493, -245.311172, 13.728424, 100.772517
1759229792.915055, -0.615310, 4.621258, -3.621529, 0.085347, -0.379492, -1.256444, 3.902283, 15.174606, -245.300491, 13.728424, 100.772517
1759229792.935047, -0.971747, 3.293224, -2.183811, 0.282082, -0.624756, -1.524903, 3.468643, 13.720627, -244.933640, 13.728424, 100.772517
1759229792.955043, -0.936731, 3.462913, -1.695843, 0.403366, -0.608778, -1.651507, 3.006836, 12.708603, -244.797501, 13.728424, 100.772517
1759229792.975082, -0.710330, 4.433613, -0.766444, 0.517656, -0.917389, -1.860181, 2.852722, 12.079163, -244.524918, 13.728424, 100.772517
1759229792.995086, 0.777218, 6.408081, -0.309899, 0.619451, -1.254784, -1.855955, 2.759705, 11.064407, -244.018600, 13.728424, 100.772517
1759229793.015072, 2.151340, 6.864775, 1.033547, 0.430341, -1.271579, -1.506929, 2.759109, 10.282852, -243.445465, 13.728424, 100.772517
1759229793.035113, 2.450765, 6.933458, 1.590049, -0.045675, -1.397058, -1.023140, 2.911957, 9.377151, -242.601166, 13.728424, 100.772517
1759229793.055105, 0.425569, 7.795521, -1.096993, -0.013245, -0.774369, -0.965194, 3.162552, 8.801224, -242.045242, 13.728424, 100.772517
1759229793.075082, 1.585859, 8.438214, -1.100285, 0.401493, 0.249452, -0.864264, 3.264175, 8.340393, -242.592575, 13.728424, 100.772517
1759229793.095252, 3.119794, 9.617508, 1.530194, 0.137542, 1.102436, -0.533817, 2.414764, 7.885864, -243.181488, 13.728424, 100.772517
1759229793.115060, 3.651158, 10.480169, 4.385579, -1.099256, 2.248882, -0.420032, 1.673553, 7.758682, -244.051697, 13.728424, 100.772517
1759229793.134402, 4.621857, 9.657461, 0.817919, -1.905463, 3.390581, -0.374501, 0.656723, 6.641876, -246.138046, 13.728424, 100.772517
1759229793.155065, 6.536769, 8.122928, -3.703381, -1.515076, 4.326536, -0.050282, -0.011765, 6.478668, -248.784241, 13.728424, 100.772517
1759229793.175049, 4.232649, 8.149713, -5.158756, -1.207860, 2.902801, -0.044427, -0.753906, 6.184738, -251.108978, 13.728424, 100.772517
1759229793.195066, 1.858948, 11.874642, -4.958092, -0.502954, -0.233703, 0.327251, -0.697250, 5.872070, -250.999710, 13.728424, 100.772517
1759229793.215060, -1.042076, 12.067375, -0.427515, 0.006513, -2.117375, 0.683701, -0.585983, 6.132217, -250.270889, 13.728424, 100.772517
1759229793.234663, 0.411054, 17.161637, 0.640599, -0.175796, -0.202704, 1.235863, 0.102585, 6.613205, -248.689240, 13.728424, 100.772517
1759229793.254559, 14.603283, 36.361788, -3.498677, 0.085148, 2.710742, 1.622770, -0.109558, 7.935593, -250.681915, 13.728424, 100.772517
1759229793.274456, 11.116578, 20.948067, -3.243694, 0.946612, 1.439701, 1.254119, -0.074493, 8.863617, -252.799042, 13.728424, 100.772517
1759229793.294116, -4.365079, 5.225944, -4.819079, 1.829608, -0.829875, 1.182027, 0.089966, 9.763077, -252.764313, 13.728424, 100.772517
1759229793.315057, -5.301361, 5.795315, 5.209035, 2.422171, -4.296552, 0.026493, 0.351532, 10.650543, -250.781631, 13.728424, 100.772517
1759229793.334427, -3.227085, 5.959018, 9.318682, 0.597238, -4.438601, -0.744060, 1.560715, 10.295990, -248.197052, 13.728424, 100.772517
1759229793.355049, -3.586963, 10.430190, 7.768137, -0.705774, -2.289937, -1.159135, 1.861053, 9.666214, -246.075287, 13.728424, 100.772517
1759229793.375041, -0.736367, 13.318794, 4.318092, -1.096941, -0.926446, -0.834116, 2.271179, 8.826462, -245.089371, 13.728424, 100.772517
1759229793.394344, 1.513584, 13.373262, 2.871246, -1.098592, -0.698609, -0.654291, 1.978226, 7.874954, -244.142670, 13.728424, 100.772517
1759229793.414718, 1.416021, 12.624326, 1.185279, -1.346228, 0.024341, -0.661366, 1.972321, 7.099792, -243.559967, 13.728424, 100.772517
1759229793.434495, 3.984550, 10.447099, 0.417339, -2.428426, 1.823468, -0.565623, 1.583481, 6.157104, -243.479294, 13.728424, 100.772517
1759229793.455056, 6.163872, 6.937798, -2.662352, -2.183920, 2.206550, -0.274811, 1.129791, 5.043716, -245.080917, 13.728424, 100.772517
1759229793.475042, 0.380229, 4.856788, -11.179575, 0.205979, 0.260787, 0.091729, 0.858261, 4.962830, -245.753265, 13.728424, 100.772517
1759229793.495049, -3.902998, 3.934571, -6.716185, 1.134761, -1.495947, -0.089257, 1.242584, 4.987381, -245.237915, 13.728424, 100.772517
1759229793.515061, -3.535488, 5.047276, -0.572364, 1.201629, -1.851054, -0.374026, 1.276718, 5.166000, -244.351334, 13.728424, 100.772517
1759229793.535064, -3.861847, 5.002535, 0.889895, 1.164313, -1.155932, -0.789289, 1.454849, 5.226044, -243.295563, 13.728424, 100.772517
1759229793.555116, -2.492962, 5.387702, 2.358289, 0.684824, -0.695469, -0.767077, 1.330048, 5.009750, -243.130127, 13.728424, 100.772517
1759229793.574157, 0.507571, 7.238121, 4.554669, -0.105358, -1.091948, -0.447837, 1.639954, 4.703522, -242.440430, 13.728424, 100.772517
1759229793.595085, 4.741267, 10.425551, 4.057573, -0.566464, -0.211054, 0.093853, 2.133011, 4.300812, -241.676224, 13.728424, 100.772517
1759229793.615140, 9.823110, 10.656292, 0.570119, -0.459577, 2.934200, 0.666405, 1.579742, 4.376923, -242.348419, 13.728424, 100.772517
1759229793.635056, 9.802161, 7.964013, -1.792958, 0.159932, 2.971258, 1.101615, 0.645630, 5.135452, -245.264084, 13.728424, 100.772517
1759229793.655051, 2.573617, 8.081478, -1.796998, 0.201288, 0.353074, 0.947017, 0.327347, 5.778778, -246.165924, 13.728424, 100.772517
1759229793.674340, -2.019659, 8.380903, -3.554791, 0.809427, -1.127487, 0.489508, 0.515335, 6.304352, -245.642593, 13.728424, 100.772517
1759229793.695078, -1.270573, 9.461735, -3.841796, 1.480362, -1.432392, 0.411478, 1.044739, 7.255005, -244.862045, 13.728424, 100.772517
1759229793.715065, 2.718466, 12.656199, -0.811335, 1.469666, -1.180499, 0.843498, 1.358398, 7.911392, -244.773193, 13.728424, 100.772517
1759229793.735092, 5.610063, 15.589994, 0.246303, 1.278342, -0.017335, 1.583309, 1.637299, 8.767029, -244.693481, 13.728424, 100.772517
1759229793.754873, 4.650737, 18.467525, -0.000748, 1.337981, 0.531151, 2.040621, 1.544632, 10.527344, -244.751434, 13.728424, 100.772517
1759229793.774533, 3.256114, 22.905477, -0.121655, 0.936268, -0.167593, 2.353115, 2.341782, 12.085938, -245.359421, 13.728424, 100.772517
1759229793.794142, 0.235230, 23.767539, 0.032920, 0.614882, -0.592475, 2.071640, 2.691620, 13.810730, -244.876785, 13.728424, 100.772517
1759229793.815068, -3.672705, 16.382774, 3.018490, -0.118238, 0.389538, 1.378555, 3.241531, 15.020401, -244.981079, 13.728424, 100.772517
1759229793.835073, -5.276222, 12.561329, 3.915118, -0.936397, 0.643971, 0.741158, 3.639572, 15.653229, -245.846085, 13.728424, 100.772517
1759229793.855056, -6.754941, 10.218602, 2.869750, -1.557048, 0.864348, 0.298204, 3.664932, 15.419647, -244.977066, 13.728424, 100.772517
1759229793.874799, -6.369474, 8.054992, 1.201440, -1.566771, 1.027117, -0.235085, 3.416473, 15.134491, -245.095795, 13.728424, 100.772517
1759229793.895061, -3.638738, 8.866926, -1.959355, -1.216559, 0.210014, -0.585390, 3.051346, 14.226517, -244.648697, 13.728424, 100.772517
1759229793.915066, 0.397737, 9.783456, -2.190695, -0.888394, -0.388232, -0.637731, 3.240555, 13.697845, -244.523422, 13.728424, 100.772517
1759229793.935124, 2.977489, 8.923639, -2.996792, -0.445420, -0.788205, -0.663049, 2.985611, 13.342087, -244.630951, 13.728424, 100.772517
1759229793.954792, 2.026991, 7.646930, -2.734178, -0.092672, -1.303693, -0.820905, 3.287430, 12.559952, -243.529495, 13.728424, 100.772517
1759229793.974963, 0.179266, 5.957073, -1.364845, 0.106180, -1.562710, -1.003763, 3.122513, 12.210358, -242.472183, 13.728424, 100.772517
1759229793.995058, -0.989553, 5.426458, -0.139163, 0.096016, -1.488097, -1.122706, 3.525421, 11.593399, -241.600372, 13.728424, 100.772517
1759229794.015066, -2.000355, 5.522076, 0.625186, -0.105405, -1.357409, -1.160107, 4.037033, 11.015198, -240.788208, 13.728424, 100.772517
1759229794.035057, -2.465130, 6.285378, 0.432153, -0.276370, -1.125636, -1.231355, 3.740021, 10.001404, -239.730072, 13.728424, 100.772517
1759229794.055059, -2.001253, 7.917026, -0.424522, -0.323792, -0.746268, -1.157170, 4.103241, 9.068604, -238.866806, 13.728424, 100.772517
1759229794.075057, -1.838298, 9.608530, -0.824503, -0.234999, -0.473105, -1.117703, 3.941071, 8.179840, -239.151993, 13.728424, 100.772517
1759229794.095070, -0.886154, 12.035652, -0.783054, -0.154279, -0.696817, -1.192644, 3.717667, 7.600510, -238.596466, 13.728424, 100.772517
1759229794.115074, 0.366163, 12.679542, -0.423026, -0.061483, -0.912777, -1.211002, 3.907639, 6.668274, -238.297989, 13.728424, 100.772517
1759229794.135073, 0.856077, 11.762413, -0.001047, -0.205950, -0.718742, -1.156105, 4.211746, 6.134766, -237.789749, 13.728424, 100.772517
1759229794.154667, 0.761506, 11.641506, 0.345813, -0.458367, -0.501182, -0.742625, 4.127869, 5.442474, -236.817062, 13.728424, 100.772517
1759229794.174417, -0.674267, 11.585691, 0.457891, -0.572103, -0.243293, -0.509619, 4.294113, 4.689026, -236.600067, 13.728424, 100.772517
1759229794.194245, -0.982221, 13.087454, 0.460285, -0.510693, 0.253046, -0.425426, 4.393707, 4.479767, -237.148285, 13.728424, 100.772517
1759229794.215073, -0.296432, 13.712640, 0.441431, -0.686719, 1.149523, -0.372751, 3.455002, 4.062439, -237.486282, 13.728424, 100.772517
1759229794.235131, 2.936189, 11.270405, -1.185878, -1.047260, 2.327155, -0.157657, 2.892227, 3.318222, -238.590103, 13.728424, 100.772517
1759229794.255060, 5.026028, 9.089886, -2.434604, -0.609483, 2.330545, 0.187369, 2.317963, 3.327042, -239.994949, 13.728424, 100.772517
1759229794.275056, 3.424905, 7.909245, -2.106598, -0.183517, 1.042748, 0.342008, 1.681870, 3.063736, -241.262665, 13.728424, 100.772517
1759229794.295065, 0.818518, 7.759608, -1.938854, 0.104195, -0.018472, 0.259404, 1.295486, 3.213364, -241.287857, 13.728424, 100.772517
1759229794.315076, -0.458939, 8.946832, -1.491588, 0.376867, -0.151626, 0.116248, 1.497177, 3.831635, -241.456146, 13.728424, 100.772517
1759229794.334433, -0.975936, 10.422708, -0.649876, 0.537953, 0.092410, 0.079068, 1.459473, 4.021454, -241.489365, 13.728424, 100.772517
1759229794.354706, -1.525855, 10.847529, 0.318878, 0.692832, -0.186596, -0.075766, 1.449997, 3.998505, -240.981415, 13.728424, 100.772517
1759229794.375056, -0.978630, 10.272472, 1.069011, 0.735835, -0.642079, -0.218546, 1.638626, 4.067764, -241.129318, 13.728424, 100.772517
1759229794.395062, -0.374992, 9.889400, 1.548450, 0.622588, -0.781075, -0.286202, 2.176468, 4.158081, -240.185471, 13.728424, 100.772517
1759229794.415076, -0.158915, 9.522189, 1.758391, 0.309096, -0.483110, -0.283346, 2.192612, 4.198044, -240.271255, 13.728424, 100.772517
1759229794.435065, 0.361076, 9.716867, 1.961001, -0.121055, -0.019445, -0.279286, 2.330139, 4.042175, -240.562668, 13.728424, 100.772517
1759229794.455071, 1.082030, 9.653720, 1.805827, -0.520990, 0.118555, -0.225899, 1.859695, 3.448639, -240.172928, 13.728424, 100.772517
1759229794.475057, 1.621922, 9.495553, 1.283442, -0.813074, -0.005203, -0.219784, 2.058212, 3.332840, -240.438934, 13.728424, 100.772517
1759229794.495065, 1.122132, 9.388862, 0.406416, -1.126099, 0.145825, -0.049323, 2.117737, 2.720352, -239.756485, 13.728424, 100.772517
1759229794.515076, -0.680552, 9.755624, -0.617554, -1.069297, 0.258995, 0.084235, 2.117447, 2.669968, -239.923935, 13.728424, 100.772517
1759229794.535081, -1.954417, 9.928605, -1.780837, -0.623415, 0.403429, -0.045617, 1.912247, 2.011673, -240.460617, 13.728424, 100.772517
1759229794.555071, -2.089839, 9.871742, -1.976713, 0.043747, 0.208350, -0.194552, 1.614273, 2.042114, -240.382904, 13.728424, 100.772517
1759229794.575069, -0.943016, 9.756072, -0.153379, 0.328621, -0.493599, -0.260464, 1.802856, 2.053589, -240.522064, 13.728424, 100.772517
1759229794.594869, -0.341623, 9.613917, 0.593612, 0.267999, -0.698333, -0.250834, 1.830795, 2.234009, -239.312057, 13.728424, 100.772517
1759229794.614750, -0.157119, 9.692327, 0.791284, 0.121953, -0.438705, -0.196723, 1.787033, 2.135391, -239.482101, 13.728424, 100.772517
1759229794.634363, -0.183605, 9.850494, 0.891840, 0.032753, -0.081456, -0.150696, 2.145523, 2.071289, -239.185257, 13.728424, 100.772517
1759229794.655079, -0.310797, 9.754426, 0.994192, -0.007658, 0.133970, -0.141354, 1.826080, 1.808853, -239.442551, 13.728424, 100.772517
1759229794.675055, -0.349404, 9.702652, 1.083526, -0.026547, 0.107960, -0.151114, 2.267197, 1.583969, -239.720566, 13.728424, 100.772517
1759229794.695079, -0.313491, 9.591172, 1.156399, -0.052800, -0.048157, -0.144057, 2.206375, 1.799133, -239.974075, 13.728424, 100.772517
1759229794.715076, -0.290746, 9.540744, 1.159392, -0.124737, -0.179295, -0.097421, 2.065765, 1.638794, -239.742676, 13.728424, 100.772517
1759229794.735089, -0.414197, 9.565434, 0.947356, -0.193908, -0.216819, -0.043093, 1.779663, 1.439804, -239.708313, 13.728424, 100.772517
1759229794.754366, -0.523133, 9.622296, 0.648380, -0.199344, -0.187534, 0.022209, 2.213730, 1.453842, -239.112213, 13.728424, 100.772517
1759229794.775062, -0.616058, 9.698911, 0.471658, -0.164491, -0.089882, 0.073694, 2.235031, 1.822983, -239.328873, 13.728424, 100.772517
1759229794.795139, -0.758663, 9.714473, 0.374244, -0.139201, 0.008014, 0.106095, 2.337250, 1.291946, -239.043045, 13.728424, 100.772517
1759229794.815082, -0.975039, 9.706842, 0.290447, -0.094329, 0.098489, 0.086595, 2.236801, 1.393494, -239.065903, 13.728424, 100.772517
1759229794.835139, -1.186626, 9.894637, 0.307954, -0.048464, 0.099473, 0.038631, 2.476410, 1.516342, -238.929962, 13.728424, 100.772517
1759229794.854591, -1.202637, 9.883115, 0.343269, -0.047057, 0.020438, -0.015085, 2.200363, 1.669205, -238.589508, 13.728424, 100.772517
1759229794.875063, -1.032051, 9.787047, 0.397437, 0.002329, -0.050274, -0.058115, 2.202286, 1.685364, -238.800354, 13.728424, 100.772517
1759229794.895138, -0.916081, 9.832837, 0.615759, 0.036072, -0.049457, -0.095687, 2.285568, 1.350235, -238.868881, 13.728424, 100.772517
1759229794.915091, -0.781258, 9.817274, 0.805649, -0.009758, -0.094059, -0.098690, 2.562820, 1.480759, -238.522629, 13.728424, 100.772517
1759229794.935264, -0.775871, 9.717616, 0.866102, -0.029163, -0.115303, -0.095578, 2.565735, 1.294662, -238.645447, 13.728424, 100.772517
1759229794.955074, -0.826000, 9.627235, 0.906505, -0.063302, -0.064461, -0.086557, 2.227783, 1.427429, -238.120758, 13.728424, 100.772517
1759229794.975251, -0.936133, 9.595362, 0.933439, -0.098392, 0.041326, -0.081264, 2.610947, 1.398438, -238.619644, 13.728424, 100.772517
1759229794.995089, -0.954688, 9.683648, 0.916530, -0.135607, 0.142135, -0.079995, 2.208740, 1.219894, -238.724884, 13.728424, 100.772517
1759229795.015154, -0.941819, 9.718364, 0.860416, -0.179146, 0.154019, -0.083881, 2.072266, 1.221344, -239.152008, 13.728424, 100.772517
1759229795.035070, -0.899921, 9.640403, 0.706738, -0.152713, 0.100328, -0.082458, 2.128769, 0.805222, -238.903717, 13.728424, 100.772517
1759229795.055219, -0.840963, 9.587431, 0.583736, -0.111075, 0.078267, -0.081931, 2.255600, 1.101120, -238.698090, 13.728424, 100.772517
1759229795.074379, -0.776619, 9.683349, 0.580744, -0.090759, 0.048630, -0.084867, 2.070068, 0.876694, -239.076492, 13.728424, 100.772517
1759229795.095094, -0.757615, 9.760861, 0.611120, -0.055806, -0.035536, -0.095214, 1.958328, 0.747269, -238.767685, 13.728424, 100.772517
1759229795.115063, -0.708983, 9.727492, 0.659453, -0.006516, -0.091194, -0.096464, 2.382034, 0.502701, -238.483337, 13.728424, 100.772517
1759229795.135272, -0.701950, 9.729587, 0.771980, 0.022196, -0.073910, -0.101437, 2.204208, 0.415497, -238.912476, 13.728424, 100.772517
1759229795.155141, -0.670825, 9.729886, 0.927753, 0.030597, -0.059830, -0.098017, 2.397720, 0.323578, -239.304840, 13.728424, 100.772517
1759229795.175083, -0.641197, 9.648782, 1.078289, 0.020029, -0.054839, -0.107230, 1.914032, 0.593674, -238.855453, 13.728424, 100.772517
1759229795.195089, -0.692373, 9.688137, 1.178396, -0.005629, -0.034025, -0.100115, 1.988327, 0.379639, -238.196198, 13.728424, 100.772517
1759229795.215088, -0.664391, 9.579500, 1.222390, -0.022723, -0.025584, -0.092371, 2.262436, 0.166885, -238.625549, 13.728424, 100.772517
1759229795.235077, -0.576254, 9.662399, 1.192911, -0.037683, -0.041091, -0.083067, 2.468903, -0.041763, -238.667709, 13.728424, 100.772517
1759229795.255075, -0.620398, 9.798719, 1.192761, -0.082517, -0.048347, -0.100379, 2.530746, 0.202377, -238.456696, 13.728424, 100.772517
1759229795.274931, -0.735469, 9.923218, 1.138742, -0.087414, -0.131318, -0.122549, 2.245270, 0.251846, -238.684448, 13.728424, 100.772517
1759229795.294447, -0.552911, 9.787347, 1.004667, -0.015279, -0.305293, -0.166213, 2.327911, -0.230331, -238.718521, 13.728424, 100.772517
1759229795.315098, -0.437540, 9.873388, 0.950199, 0.081177, -0.477743, -0.218446, 2.261536, -0.394897, -238.414398, 13.728424, 100.772517
1759229795.334672, -0.101305, 9.805004, 0.928352, 0.206597, -0.606527, -0.239538, 2.666824, -0.252884, -238.020279, 13.728424, 100.772517
1759229795.355101, 0.386813, 9.758317, 0.844704, 0.400439, -0.725691, -0.219191, 3.092941, -0.540237, -237.319443, 13.728424, 100.772517
1759229795.374395, 0.783502, 9.786599, 0.987159, 0.599236, -0.877657, -0.159019, 3.722580, -0.194748, -236.476456, 13.728424, 100.772517
1759229795.394474, 1.282694, 9.518897, 1.612944, 0.646425, -1.271818, -0.023011, 3.654556, 0.194427, -236.191757, 13.728424, 100.772517
1759229795.415100, 1.178097, 8.922142, 2.538602, 0.362490, -1.575184, 0.059355, 4.430206, 0.426285, -234.984924, 13.728424, 100.772517
1759229795.435143, 0.373645, 8.854955, 2.969109, -0.085245, -1.402131, 0.175626, 5.262283, 0.384399, -234.716415, 13.728424, 100.772517
1759229795.455097, -0.642394, 9.393949, 2.340182, -0.345492, -0.820312, 0.280144, 5.468475, 0.455475, -233.765839, 13.728424, 100.772517
1759229795.475072, -1.593640, 9.921422, 1.808969, -0.482849, 0.008044, 0.262050, 6.095932, 0.682968, -233.569885, 13.728424, 100.772517
1759229795.494661, -3.066523, 10.284443, 1.190966, -0.764350, 0.654354, 0.062241, 6.149307, 0.113876, -233.431290, 13.728424, 100.772517
1759229795.515096, -4.200477, 9.737069, 0.360776, -0.795198, 0.384391, -0.333973, 5.648956, 0.065155, -233.982117, 13.728424, 100.772517
1759229795.534887, -3.827730, 9.191041, -0.971447, -0.303642, -0.588922, -0.781208, 5.869156, -0.646454, -233.994598, 13.728424, 100.772517
1759229795.555079, -0.420482, 9.386767, -0.438139, 0.001453, -1.319364, -0.986771, 6.318619, -1.316818, -233.769424, 13.728424, 100.772517
1759229795.574461, 1.846528, 9.592668, 0.778564, 0.058202, -1.913423, -1.033574, 6.688599, -1.733566, -232.391479, 13.728424, 100.772517
1759229795.594887, 2.870049, 9.868750, 1.506701, -0.076632, -2.193813, -0.947145, 8.038727, -2.574615, -231.244110, 13.728424, 100.772517
1759229795.614412, 2.662352, 9.950601, 2.202067, -0.356168, -1.768418, -0.685458, 8.875687, -3.072876, -230.186020, 13.728424, 100.772517
1759229795.635105, 0.715567, 9.516503, 1.450587, -0.397825, -0.804349, -0.471716, 9.469772, -3.660583, -229.026840, 13.728424, 100.772517
1759229795.655098, -0.973243, 9.937134, 0.769137, -0.289400, -0.492173, -0.402248, 10.076416, -3.647217, -229.377609, 13.728424, 100.772517
1759229795.675075, -2.108244, 9.874436, 0.120009, -0.330494, -0.760580, -0.411771, 10.999420, -4.456284, -228.720428, 13.728424, 100.772517
1759229795.695085, -3.051260, 9.981876, -1.059285, -0.058224, -0.784003, -0.437632, 11.051331, -4.437851, -229.313446, 13.728424, 100.772517
1759229795.715084, -1.999158, 10.045621, -1.095048, 0.241635, -0.484849, -0.406878, 11.509094, -4.372269, -228.173447, 13.728424, 100.772517
1759229795.735168, -0.905008, 9.858125, 1.567903, 0.199247, -0.629719, -0.380662, 11.667511, -4.596527, -228.186218, 13.728424, 100.772517
1759229795.755110, 0.032471, 9.342923, 3.333776, 0.080714, -0.658433, -0.344372, 12.468369, -5.006760, -227.286011, 13.728424, 100.772517
1759229795.775125, 0.354192, 8.662820, 3.661333, -0.076698, -0.188074, -0.302369, 12.916306, -4.656555, -227.256134, 13.728424, 100.772517
1759229795.795100, -0.189441, 9.093028, 2.665794, -0.095570, 0.448697, -0.265901, 12.861450, -5.426331, -227.205032, 13.728424, 100.772517
1759229795.815124, -0.555006, 9.988759, 1.759589, -0.074219, 0.749871, -0.298273, 12.432190, -5.196991, -227.647110, 13.728424, 100.772517
1759229795.835080, 0.053421, 10.418817, 0.464774, 0.131722, 0.865209, -0.264214, 11.635406, -5.615662, -227.942139, 13.728424, 100.772517
1759229795.855179, 1.155502, 9.883264, 0.077512, 0.479105, 0.879800, -0.128243, 11.238770, -5.146240, -228.573730, 13.728424, 100.772517
1759229795.875152, 2.066046, 9.695619, 0.905158, 0.729405, 0.654937, 0.027345, 10.613602, -4.846268, -228.337448, 13.728424, 100.772517
1759229795.895325, 3.943699, 10.965743, 1.755099, 0.944137, 0.405742, 0.337557, 10.721359, -4.592728, -228.486771, 13.728424, 100.772517
1759229795.915105, 5.292981, 11.200075, 2.336292, 1.252979, -0.034858, 0.756481, 10.396774, -3.483261, -228.631638, 13.728424, 100.772517
1759229795.935112, 5.552004, 12.362460, 3.330783, 1.232222, -0.944088, 0.910113, 10.615082, -2.100708, -228.031097, 13.728424, 100.772517
1759229795.955135, 5.211578, 13.047950, 1.939154, 0.930673, -1.557629, 1.101341, 11.321014, -1.010544, -226.716156, 13.728424, 100.772517
1759229795.975125, 4.303428, 12.068572, -0.408511, 1.078391, -1.913388, 1.413862, 12.716476, 0.188583, -226.132858, 13.728424, 100.772517
1759229795.995154, 2.410063, 10.067019, -0.637307, 1.396274, -2.385137, 1.457764, 13.931564, 1.348801, -225.557510, 13.728424, 100.772517
1759229796.014438, 1.659331, 11.977293, -1.246032, 1.645190, -2.618805, 1.760980, 16.246887, 2.592926, -224.521957, 13.728424, 100.772517
1759229796.035088, -0.981473, 13.393014, 0.397587, 1.789399, -2.789419, 1.837523, 18.370331, 4.192657, -223.180527, 13.728424, 100.772517
1759229796.055210, -3.214964, 13.818285, 2.397643, 1.952994, -2.071103, 1.610871, 19.807526, 5.919693, -222.520798, 13.728424, 100.772517
1759229796.075089, -3.775057, 12.545766, 4.855740, 1.726599, -0.812924, 1.458207, 20.854782, 7.780121, -222.829147, 13.728424, 100.772517
1759229796.095104, -3.501071, 10.905738, 5.651812, 0.738355, -0.814367, 1.281929, 21.359222, 8.868866, -222.667969, 13.728424, 100.772517
1759229796.115097, -2.221370, 10.480169, 1.892916, 0.357555, -1.515490, 1.223193, 21.942200, 9.386444, -222.379349, 13.728424, 100.772517
1759229796.134791, -1.010203, 11.098023, 0.614562, 0.610078, -1.548463, 1.152199, 23.533249, 9.811371, -222.741837, 13.728424, 100.772517
1759229796.155092, 0.087688, 11.196634, 1.203984, 0.441303, -1.102373, 1.161308, 24.500214, 10.371323, -222.416168, 13.728424, 100.772517
1759229796.175097, 1.905036, 10.515184, 0.513407, 0.239705, -0.480616, 1.384900, 25.564575, 11.109970, -222.186707, 13.728424, 100.772517
1759229796.195139, 3.770568, 10.726772, 1.706617, -0.191708, -0.200257, 1.700093, 25.613541, 11.164719, -221.503296, 13.728424, 100.772517
1759229796.214846, 3.229928, 9.944167, 2.068441, -0.546413, -0.703456, 1.852085, 26.426727, 11.245255, -221.455307, 13.728424, 100.772517
1759229796.235079, -0.010325, 9.422680, 1.532289, -0.365243, -1.529376, 1.572254, 27.678589, 11.391022, -221.315506, 13.728424, 100.772517
1759229796.255109, -1.360655, 8.472481, 2.341230, -0.233508, -2.562871, 1.334300, 29.542816, 11.198471, -220.737381, 13.728424, 100.772517
1759229796.275085, -1.878700, 7.398831, 2.514510, -0.178313, -3.050546, 1.101183, 32.060791, 11.411697, -220.507660, 13.728424, 100.772517
1759229796.295108, -1.764377, 6.843825, 2.373851, -0.270254, -2.911140, 0.817823, 34.517395, 11.093887, -219.634491, 13.728424, 100.772517
1759229796.315101, -1.973271, 6.415712, 1.539172, -0.413052, -2.576504, 0.426321, 37.115494, 11.219757, -219.533569, 13.728424, 100.772517
1759229796.334455, -2.424877, 6.227319, 0.289100, -0.550462, -2.433217, 0.009084, 38.887604, 10.565414, -219.806641, 13.728424, 100.772517
1759229796.355090, -2.792537, 5.988198, -0.523582, -0.743076, -2.465604, -0.399175, 40.639053, 10.024628, -219.434891, 13.728424, 100.772517
1759229796.375110, -2.641104, 5.799355, -2.108543, -0.850042, -2.429452, -0.776488, 42.210724, 9.640121, -220.221878, 13.728424, 100.772517
1759229796.395093, -1.844134, 6.300342, -3.837007, -0.772264, -2.330741, -1.010391, 43.973663, 9.122421, -220.075729, 13.728424, 100.772517
1759229796.415110, -0.426467, 8.072799, -6.316503, -0.353053, -2.190135, -1.101946, 45.198929, 9.138199, -219.941315, 13.728424, 100.772517
1759229796.435093, 2.712930, 11.489026, -8.868422, 0.466798, -2.054414, -0.933733, 46.741592, 9.584488, -221.087570, 13.728424, 100.772517
1759229796.455115, 8.733150, 15.767913, -8.126669, 1.057624, -2.175314, -0.260484, 48.142761, 10.560257, -221.367310, 13.728424, 100.772517
1759229796.474417, 12.241852, 16.824654, -4.567688, 0.545123, -1.418310, 0.815607, 49.371796, 11.244522, -222.005539, 13.728424, 100.772517
1759229796.495109, 7.015161, 11.517157, -2.962076, 0.004823, -0.469591, 1.051250, 50.280334, 10.717896, -222.372253, 13.728424, 100.772517
1759229796.515082, 2.454506, 8.981848, -0.865205, 0.013772, -0.298502, 1.027056, 50.300858, 10.814423, -221.805191, 13.728424, 100.772517
1759229796.535107, -1.726369, 6.295104, -0.272490, -0.237401, 0.130514, 1.201149, 50.553589, 9.942276, -221.624939, 13.728424, 100.772517
1759229796.555169, -5.508459, 5.931186, -2.192341, -0.541294, 0.574914, 0.790740, 50.431137, 10.013123, -221.218201, 13.728424, 100.772517
1759229796.575112, -5.289091, 10.803236, -7.848043, -0.220792, 1.539607, 0.144603, 49.531006, 9.772583, -220.690033, 13.728424, 100.772517
1759229796.595097, 8.369530, 14.264653, 3.858256, -0.210492, 2.130866, 0.283216, 47.551331, 9.651535, -219.827286, 13.728424, 100.772517
1759229796.615148, 7.360973, 12.717550, 8.092551, -0.665992, 0.674803, 0.303151, 46.782181, 9.273956, -219.625397, 13.728424, 100.772517
1759229796.635191, 0.586430, 9.328109, -8.998158, -0.041903, 0.343051, 0.154028, 46.698959, 9.345673, -219.205978, 13.728424, 100.772517
1759229796.655171, -5.394286, 9.404723, -3.907936, 0.166706, -2.598043, -0.634295, 47.861450, 9.387573, -220.078110, 13.728424, 100.772517
1759229796.675093, -5.555296, 10.440066, 4.568286, -0.335868, -0.856449, -1.451314, 49.715744, 10.117828, -220.367310, 13.728424, 100.772517
1759229796.695123, -6.003461, 10.035596, 3.790769, -0.336883, 0.313267, -1.569216, 49.509155, 10.433258, -220.166473, 13.728424, 100.772517
1759229796.715110, -4.271854, 8.996213, 1.783231, -0.322098, 0.463933, -1.393832, 48.652710, 10.727173, -219.627899, 13.728424, 100.772517
1759229796.735136, -0.856376, 9.175928, 2.186804, -0.533610, -0.461525, -1.368336, 48.188293, 10.878372, -219.669968, 13.728424, 100.772517
1759229796.755095, 0.626682, 9.080309, 2.214786, -0.851222, -1.291126, -1.259723, 48.183487, 11.104172, -219.935455, 13.728424, 100.772517
1759229796.775094, 2.791190, 10.261698, 2.898031, -1.130952, -1.933754, -0.968957, 49.261444, 10.297531, -219.995712, 13.728424, 100.772517
1759229796.795108, 4.736030, 11.614871, 0.927005, -0.950846, -1.021214, -0.805253, 49.939255, 10.015991, -220.532333, 13.728424, 100.772517
1759229796.814603, 5.183297, 11.159972, -0.837522, -0.319000, -0.269817, -0.725670, 50.324921, 10.157181, -220.360138, 13.728424, 100.772517
1759229796.835102, 3.877410, 9.389311, -0.310648, -0.238807, -0.472754, -0.388175, 50.613770, 10.064789, -220.626144, 13.728424, 100.772517
1759229796.854298, 1.284489, 8.612093, 0.367360, -0.573459, -1.288291, -0.293888, 51.083801, 9.815155, -220.748245, 13.728424, 100.772517
1759229796.875106, -0.593014, 9.054871, 0.634015, -0.719289, -1.582433, -0.293328, 52.066193, 9.356018, -221.357407, 13.728424, 100.772517
1759229796.895178, -1.103428, 9.646987, 0.428263, -0.712426, -1.006818, -0.314668, 53.012634, 8.907822, -221.063126, 13.728424, 100.772517
1759229796.914161, -1.786523, 9.682451, 0.549320, -0.780382, -0.477701, -0.529143, 53.418884, 8.853439, -221.511795, 13.728424, 100.772517
1759229796.935190, -1.413477, 9.680655, 0.567725, -0.915627, -0.289753, -0.620554, 53.893066, 8.365784, -221.538147, 13.728424, 100.772517
1759229796.955107, -1.515829, 8.706814, -0.087388, -0.809213, -0.507389, -0.778252, 53.599487, 8.214630, -220.750000, 13.728424, 100.772517
1759229796.975141, -1.577480, 8.483554, -0.584933, -0.639606, -0.787938, -0.900574, 53.923309, 7.777435, -221.230820, 13.728424, 100.772517
1759229796.995170, -1.305139, 9.177574, -0.142904, -0.469207, -1.011579, -0.962812, 54.317505, 7.801651, -221.144196, 13.728424, 100.772517
1759229797.014397, -0.608426, 9.576807, 0.687286, -0.439177, -0.728526, -0.919446, 54.838562, 7.963272, -221.666275, 13.728424, 100.772517
1759229797.035095, 0.155623, 9.678261, 0.896030, -0.507254, -0.179155, -0.875668, 55.206818, 7.683456, -222.000610, 13.727653, 100.772860
1759229797.055135, 0.867898, 9.380482, 0.339677, -0.458332, 0.202510, -0.769564, 55.062439, 7.461945, -221.479004, 13.727653, 100.772860
1759229797.075101, 1.049409, 9.128642, 0.114024, -0.511752, 0.034713, -0.718531, 54.444687, 7.828644, -221.007858, 13.727653, 100.772860
1759229797.095124, 0.073771, 8.851064, 0.509815, -0.628162, -0.505464, -0.698723, 54.482864, 7.724197, -221.509979, 13.727653, 100.772860
1759229797.114564, -1.302745, 9.595661, 0.318578, -0.410263, -0.544508, -0.792358, 54.867706, 7.325058, -221.913345, 13.727653, 100.772860
1759229797.134104, -1.423054, 9.647885, 0.567575, -0.078789, -0.197528, -0.757680, 55.233719, 7.567566, -221.711304, 13.727653, 100.772860
1759229797.155171, -0.007931, 9.948357, 1.429338, -0.048587, 0.140442, -0.567908, 54.882645, 8.098297, -221.029572, 13.727653, 100.772860
1759229797.174455, 0.687734, 10.102783, 1.424251, -0.096041, 0.538581, -0.262370, 54.226273, 8.110718, -221.514786, 13.727653, 100.772860
1759229797.195168, 0.607978, 10.184186, 0.287903, 0.256149, 0.979955, -0.022180, 53.925720, 7.856888, -221.007690, 13.727653, 100.772860
1759229797.214761, 0.282815, 9.747394, 0.572214, 0.343515, 0.943583, 0.082156, 53.279419, 8.161926, -220.678452, 13.727653, 100.772860
1759229797.235104, 0.145298, 9.549722, 1.526902, 0.172310, 0.766852, 0.154512, 52.936569, 8.287338, -220.782150, 13.727653, 100.772860
1759229797.255137, 0.452803, 10.176853, 1.372775, 0.503781, 0.393619, 0.121579, 52.204437, 8.650604, -220.020767, 13.727653, 100.772860
1759229797.275111, 2.203264, 10.423905, 1.562815, 0.690559, 0.315582, 0.252848, 52.093750, 9.164047, -220.482574, 13.727653, 100.772860
1759229797.295141, 4.707449, 10.603171, 3.542970, 0.511472, -0.422840, 0.544060, 51.648209, 9.323166, -219.394852, 13.727653, 100.772860
1759229797.314976, 6.489035, 12.173019, 4.507833, 0.226750, -1.928860, 0.813260, 52.446228, 9.261688, -220.233490, 13.727653, 100.772860
1759229797.334516, 8.311321, 15.103672, 2.423531, 0.133143, -2.051591, 1.251614, 54.257294, 8.907303, -221.100693, 13.727653, 100.772860
1759229797.355171, 6.551434, 15.460408, -3.366996, 1.250735, -1.657392, 1.501594, 55.599884, 8.738052, -222.311295, 13.727653, 100.772860
1759229797.375286, -0.346261, 12.987048, -3.550003, 1.899086, -1.959432, 1.457469, 56.931183, 9.120972, -223.490112, 13.727653, 100.772860
1759229797.395172, -2.555960, 11.967417, 1.983297, 1.630979, -2.162820, 1.378712, 58.871490, 9.741013, -224.955444, 13.727653, 100.772860
1759229797.415135, -3.887435, 12.141146, 2.890101, 1.414995, -1.593991, 1.078354, 59.863602, 10.013504, -225.744308, 13.727653, 100.772860
1759229797.435141, -5.121946, 11.828104, 1.986738, 1.483759, -1.255345, 0.976929, 60.779877, 10.507339, -227.470383, 13.727653, 100.772860
1759229797.455243, -6.139930, 10.423456, 1.169119, 1.455052, -1.126566, 0.944293, 61.719437, 10.874435, -228.202423, 13.727653, 100.772860
1759229797.475119, -6.646154, 10.461315, 0.522235, 1.127220, -1.381940, 0.903471, 62.341797, 11.114838, -229.506622, 13.727653, 100.772860
1759229797.495148, -5.384709, 10.035446, -0.212186, 1.016428, -2.182450, 0.571801, 63.203491, 11.223373, -231.199509, 13.727653, 100.772860
1759229797.515120, -1.676689, 8.684518, -0.240468, 1.196695, -2.624770, 0.509775, 64.605453, 11.281464, -232.652740, 13.727653, 100.772860
1759229797.535125, 0.411354, 9.387665, 0.463727, 1.142378, -2.154917, 0.603079, 66.053619, 11.889877, -234.760529, 13.727653, 100.772860
1759229797.555163, 0.929698, 10.235362, 1.847875, 0.814186, -1.385963, 0.749039, 66.506653, 11.917160, -236.544800, 13.727653, 100.772860
1759229797.575153, -0.429610, 10.120290, 1.478120, 0.494185, -1.017390, 0.833820, 67.101257, 11.508987, -237.496094, 13.727653, 100.772860
1759229797.595169, -2.257283, 9.224709, 1.065270, 0.354685, -1.075211, 0.778357, 67.590973, 11.373779, -237.996490, 13.727653, 100.772860
1759229797.615119, -2.558504, 8.200141, 1.440112, 0.184450, -1.268384, 0.727883, 68.120422, 11.220657, -239.161057, 13.727653, 100.772860
1759229797.635132, -2.271200, 7.725191, 1.736245, -0.125111, -1.263862, 0.663017, 69.113358, 10.560516, -239.866867, 13.727653, 100.772860
1759229797.655176, -2.065149, 7.618799, 1.755698, -0.389151, -1.213754, 0.451726, 69.283691, 9.946777, -240.663696, 13.727653, 100.772860
1759229797.675112, -1.378611, 7.823652, 2.086996, -0.660793, -1.327069, 0.227941, 69.680222, 9.511414, -242.573486, 13.727653, 100.772860
1759229797.695135, -0.988057, 8.019827, 1.859247, -0.901975, -1.587368, 0.005036, 70.011749, 9.374268, -243.353348, 13.727653, 100.772860
1759229797.715158, -1.110311, 8.114698, 1.366042, -1.041919, -2.073406, -0.247743, 70.545822, 9.240646, -243.676605, 13.727653, 100.772860
1759229797.735181, -1.019780, 8.743026, 0.382324, -1.057394, -2.480313, -0.398070, 71.232986, 9.243271, -245.389053, 13.727653, 100.772860
1759229797.755179, -0.837073, 9.775974, -0.145148, -1.119439, -2.980214, -0.426487, 71.613617, 9.141586, -246.783310, 13.727653, 100.772860
1759229797.775308, -0.353294, 11.484536, -0.680253, -1.246738, -3.736789, -0.422647, 72.374451, 8.952820, -250.127075, 13.727653, 100.772860
1759229797.795144, 2.381632, 12.892477, -4.956895, -0.738495, -4.332798, -0.108948, 73.017044, 9.383438, -252.188644, 13.727653, 100.772860
1759229797.815310, 3.911677, 12.937817, -5.698499, 0.455428, -4.248135, 0.244742, 73.381577, 9.099228, -255.412354, 13.727653, 100.772860
1759229797.835194, 2.483984, 11.739968, -1.646463, 0.592687, -3.533792, 0.265704, 73.607178, 8.941116, -259.509003, 13.727653, 100.772860
1759229797.855311, 1.332822, 10.937910, 1.445799, 0.171489, -3.096714, 0.664969, 73.412521, 8.632141, -261.324829, 13.727653, 100.772860
1759229797.875115, 0.170886, 10.158298, 2.445378, -0.084699, -3.243112, 0.694361, 73.276413, 7.949127, -263.982788, 13.727653, 100.772860
1759229797.895157, -1.675792, 10.598831, 1.703026, 0.100018, -3.056766, 0.616726, 72.789185, 7.124481, -266.631348, 13.727653, 100.772860
1759229797.915316, -5.307047, 10.530746, 0.628628, 0.263601, -1.824581, 0.861623, 72.425186, 6.577820, -268.710815, 13.727653, 100.772860
1759229797.935182, -6.948572, 7.351845, 1.088763, -0.087162, -1.130039, 0.745264, 72.646820, 5.915848, -270.043823, 13.727653, 100.772860
1759229797.955186, -6.671144, 5.566220, 0.554856, -0.572635, -0.860074, 0.433709, 72.350723, 5.537445, -270.350891, 13.727653, 100.772860
1759229797.975159, -6.317700, 5.453692, -0.637157, -0.942473, -0.357418, 0.100710, 72.024567, 5.958923, -270.547913, 13.727653, 100.772860
1759229797.995184, -5.808782, 7.249643, -2.069039, -0.871268, 0.320271, -0.234096, 71.844269, 5.580063, -270.977234, 13.727653, 100.772860
1759229798.015229, -4.654029, 10.238055, -3.516633, -0.389402, 0.753690, -0.468905, 71.926178, 6.589996, -270.023193, 13.727653, 100.772860
1759229798.035116, -0.295385, 11.821670, -3.098546, 0.006420, 1.375168, -0.361544, 72.184097, 6.525604, -269.557312, 13.727963, 100.772494
1759229798.055123, 3.674052, 11.659313, 2.389563, -0.405953, 0.542274, -0.222283, 72.478516, 7.010254, -268.248505, 13.727963, 100.772494
1759229798.075109, 6.225373, 11.400590, 2.122160, -0.526386, -0.823363, 0.147144, 72.290466, 7.454208, -268.877533, 13.727963, 100.772494
1759229798.095165, 1.647510, 11.462540, -0.703446, 0.437962, -0.300700, 0.114847, 72.431137, 7.347641, -269.307617, 13.727963, 100.772494
1759229798.115317, -0.864905, 12.013954, -0.481085, 0.586290, -0.684574, -0.059318, 71.984314, 7.120621, -269.155060, 13.727963, 100.772494
1759229798.135154, -0.595109, 11.090092, 1.121534, 0.238481, -0.977998, -0.056612, 71.844482, 7.179398, -270.171051, 13.727963, 100.772494
1759229798.155183, -0.726939, 8.860342, 2.045247, -0.025738, -0.665249, 0.051769, 71.604263, 6.897720, -271.119629, 13.727963, 100.772494
1759229798.175128, -1.584513, 7.709629, 2.149095, -0.407864, -0.355456, 0.064635, 71.499924, 7.342728, -271.629761, 13.727963, 100.772494
1759229798.195131, -2.553566, 8.363545, 1.089062, -0.649622, -0.121784, -0.109929, 71.415009, 7.104477, -271.285767, 13.727963, 100.772494
1759229798.215211, -2.199074, 9.671527, -0.308702, -0.487817, -0.164622, -0.229157, 70.833603, 7.310715, -271.505707, 13.727963, 100.772494
1759229798.235164, -0.769736, 10.483162, -0.243011, -0.166515, -0.563124, -0.356159, 70.854996, 7.518524, -271.565979, 13.727963, 100.772494
1759229798.255201, 0.502333, 10.511742, 0.226701, -0.096042, -0.709786, -0.386322, 70.720428, 7.943848, -272.010803, 13.727963, 100.772494
1759229798.275118, 0.752228, 10.112809, -0.109535, -0.205247, -0.448705, -0.375967, 70.133957, 8.262238, -272.197083, 13.727963, 100.772494
1759229798.295126, 0.221913, 9.807997, -0.567875, -0.314495, -0.312095, -0.265809, 70.256256, 8.631973, -272.360168, 13.727963, 100.772494
1759229798.315194, -0.986411, 9.412355, -0.612167, -0.342935, -0.503431, -0.217398, 70.204483, 9.234375, -273.094574, 13.727963, 100.772494
1759229798.335188, -1.458817, 9.488520, 0.090531, -0.278878, -0.580348, -0.242089, 70.115784, 9.108200, -272.950134, 13.727963, 100.772494
1759229798.355186, -1.482310, 9.868301, 0.865205, -0.213179, -0.623868, -0.342142, 69.805008, 9.438568, -273.961670, 13.727963, 100.772494
1759229798.375181, -0.879420, 10.010756, 1.022324, -0.188349, -0.750299, -0.412421, 69.391663, 9.897644, -274.515259, 13.727963, 100.772494
1759229798.395173, -0.232537, 10.045023, 1.183185, -0.226476, -0.767572, -0.421040, 69.210999, 10.485641, -274.841064, 13.727963, 100.772494
1759229798.415134, 0.116568, 10.020033, 1.390283, -0.314054, -0.649150, -0.383442, 68.842300, 10.785461, -275.068787, 13.727963, 100.772494
1759229798.435171, 0.166846, 9.910199, 1.339556, -0.485083, -0.316227, -0.305357, 68.578506, 11.177979, -275.584351, 13.727963, 100.772494
1759229798.455121, 0.071377, 9.714773, 0.928651, -0.590289, -0.232133, -0.253189, 68.406784, 11.629288, -275.184357, 13.727963, 100.772494
1759229798.475120, -0.244807, 9.542540, 0.145897, -0.572965, -0.329696, -0.217707, 68.201157, 11.967514, -275.888672, 13.727963, 100.772494
1759229798.495121, -0.818368, 9.622446, -0.661997, -0.396819, -0.534705, -0.242278, 68.210449, 12.239944, -275.440063, 13.727963, 100.772494
1759229798.515130, -1.295712, 9.863063, -1.098041, -0.159927, -0.700801, -0.249376, 67.741211, 12.244507, -275.323578, 13.727963, 100.772494
1759229798.535178, -1.267431, 9.808745, -0.637606, 0.015288, -0.796601, -0.193527, 67.494049, 12.274139, -276.449341, 13.727963, 100.772494
1759229798.555134, -1.153407, 9.581445, 0.373495, 0.073602, -0.738830, -0.131765, 67.024643, 12.746246, -276.569031, 13.727963, 100.772494
1759229798.575223, -1.189769, 9.350255, 1.411980, 0.045924, -0.495324, -0.099030, 66.796600, 12.833405, -276.777985, 13.727963, 100.772494
1759229798.595190, -1.244087, 9.270798, 2.101959, -0.040502, -0.220666, -0.071758, 66.519196, 12.657028, -277.335693, 13.727963, 100.772494
1759229798.615200, -1.373673, 9.558252, 2.170194, -0.149175, -0.129890, -0.049229, 66.658630, 12.950989, -277.925537, 13.727963, 100.772494
1759229798.634325, -1.420210, 9.923367, 1.888277, -0.250112, -0.226079, -0.024514, 66.248291, 12.738159, -277.643097, 13.727963, 100.772494
1759229798.655155, -1.280000, 9.810840, 1.363647, -0.342581, -0.236576, 0.050655, 66.222519, 12.737152, -277.893646, 13.727963, 100.772494
1759229798.675183, -1.261146, 9.387066, 0.687435, -0.289173, -0.019373, 0.131152, 66.124069, 12.999054, -278.212189, 13.727963, 100.772494
1759229798.695195, -1.562965, 9.430760, 0.402076, -0.136327, 0.292091, 0.132179, 66.375961, 12.887787, -277.272003, 13.727963, 100.772494
1759229798.715175, -1.916858, 9.687389, 0.490662, -0.065843, 0.451505, 0.086510, 66.477615, 12.822830, -277.305420, 13.727963, 100.772494
1759229798.734455, -1.965640, 9.863961, 0.613963, -0.057931, 0.400657, 0.029886, 66.522247, 12.897446, -277.158813, 13.727963, 100.772494
1759229798.755136, -1.855207, 9.958083, 0.516100, -0.018715, 0.338774, -0.026958, 66.612137, 12.849670, -276.684723, 13.727963, 100.772494
1759229798.775247, -1.325640, 9.556606, 0.435146, 0.075610, 0.274425, -0.060665, 66.888992, 12.826370, -276.891754, 13.727963, 100.772494
1759229798.795146, -0.649427, 9.282769, 0.764648, 0.123202, 0.169766, -0.064438, 66.826218, 12.956421, -276.692108, 13.727963, 100.772494
1759229798.815206, -0.274435, 9.481338, 1.176900, 0.090801, 0.019531, -0.061464, 66.872696, 13.229950, -276.439575, 13.727963, 100.772494
1759229798.834860, -0.044592, 9.885808, 1.408988, 0.017657, -0.133835, -0.056626, 67.055679, 13.117767, -276.653564, 13.727963, 100.772494
1759229798.855181, 0.038158, 9.895684, 1.508646, -0.075555, -0.202708, -0.024761, 66.565750, 13.423203, -276.430542, 13.727963, 100.772494
1759229798.875187, -0.193332, 9.545981, 1.514333, -0.131797, -0.218125, -0.010647, 66.852859, 13.312851, -277.136658, 13.727963, 100.772494
1759229798.895177, -0.417190, 9.492112, 1.505205, -0.180291, -0.213741, -0.000681, 66.459946, 13.504150, -276.772278, 13.727963, 100.772494
1759229798.915183, -0.649128, 9.585037, 1.448342, -0.212076, -0.218761, -0.006693, 66.318466, 13.799881, -276.787903, 13.727963, 100.772494
1759229798.934906, -0.936582, 9.692776, 1.304690, -0.244810, -0.275153, -0.025539, 66.434189, 13.475815, -276.944641, 13.727963, 100.772494
1759229798.955001, -1.324592, 9.649979, 1.080982, -0.281438, -0.364894, -0.047223, 66.233948, 13.947662, -277.363098, 13.727963, 100.772494
1759229798.975147, -1.715745, 9.589675, 0.765247, -0.237518, -0.389744, -0.070837, 66.457703, 13.700668, -277.015503, 13.727963, 100.772494
1759229798.995131, -1.787421, 9.507225, 0.608277, -0.103953, -0.311844, -0.094753, 65.978485, 13.879211, -277.367218, 13.727963, 100.772494
1759229799.015147, -1.694945, 9.435848, 0.912340, -0.070087, -0.226163, -0.100374, 65.789307, 14.342743, -277.522675, 13.727963, 100.772494
1759229799.035126, -1.751059, 9.491513, 1.255908, -0.136021, -0.137465, -0.116000, 65.809540, 14.053711, -278.057709, 13.727963, 100.772494
1759229799.055135, -1.753603, 9.671527, 1.230919, -0.160898, -0.019131, -0.149486, 65.603455, 14.078293, -277.880981, 13.727963, 100.772494
1759229799.075123, -1.513435, 9.737667, 1.040131, -0.133036, 0.052827, -0.173320, 65.683731, 14.069016, -278.088959, 13.727963, 100.772494
1759229799.095148, -1.140388, 9.680506, 0.947206, -0.084134, 0.011804, -0.166943, 65.646622, 14.253571, -277.999084, 13.727963, 100.772494
1759229799.115143, -0.805798, 9.538350, 1.023372, -0.038545, -0.070532, -0.142733, 65.155304, 14.437607, -277.356934, 13.727963, 100.772494
1759229799.135146, -0.645836, 9.567080, 1.224933, -0.023038, -0.118775, -0.116504, 65.542297, 14.663452, -277.680054, 13.727963, 100.772494
1759229799.155138, -0.647332, 9.715521, 1.440860, -0.069112, -0.133622, -0.089154, 65.337189, 14.509018, -277.285278, 13.727963, 100.772494
1759229799.174533, -0.682946, 9.759963, 1.488595, -0.143049, -0.155781, -0.064763, 65.810654, 14.678238, -277.853638, 13.727963, 100.772494
1759229799.195134, -0.761057, 9.792734, 1.279701, -0.168328, -0.114417, -0.041895, 65.312683, 14.770737, -278.014526, 13.727963, 100.772494
1759229799.215150, -0.920720, 9.641600, 1.018733, -0.148975, -0.070836, -0.031294, 65.363251, 15.161011, -277.601685, 13.727963, 100.772494
1759229799.235132, -1.181838, 9.516652, 0.845752, -0.109006, -0.079610, -0.033757, 65.308426, 15.116379, -277.685730, 13.727963, 100.772494
1759229799.254211, -1.408389, 9.547777, 0.848894, -0.051982, -0.072290, -0.045141, 65.054276, 15.145767, -277.580994, 13.727963, 100.772494
1759229799.275127, -1.544110, 9.610176, 1.086818, -0.041444, -0.044628, -0.062024, 65.067902, 14.960739, -277.883942, 13.727963, 100.772494
1759229799.295183, -1.613991, 9.645490, 1.309628, -0.071813, 0.004842, -0.075960, 64.892395, 15.155579, -278.021240, 13.727963, 100.772494
1759229799.315121, -1.316961, 9.620650, 1.331475, -0.096006, 0.062725, -0.079877, 64.760620, 15.186829, -277.817993, 13.727963, 100.772494
1759229799.334577, -1.172860, 9.531915, 1.302146, -0.108108, 0.069342, -0.073758, 65.261520, 15.406036, -277.684204, 13.727963, 100.772494
1759229799.354431, -1.010952, 9.490466, 1.235408, -0.103248, 0.088020, -0.060310, 64.849640, 15.568451, -277.505188, 13.727963, 100.772494
1759229799.375126, -1.054197, 9.566781, 1.274015, -0.095103, 0.098025, -0.055513, 64.784897, 15.765823, -277.826141, 13.727963, 100.772494
1759229799.395136, -1.177947, 9.500342, 1.316811, -0.093851, 0.022810, -0.057191, 65.054810, 15.528229, -278.294861, 13.727963, 100.772494
1759229799.415158, -1.249324, 9.442881, 1.278953, -0.087764, -0.025933, -0.053753, 65.062759, 15.659363, -278.090454, 13.727963, 100.772494
1759229799.435131, -1.198747, 9.236680, 1.187524, -0.063919, -0.030718, -0.040816, 64.749481, 15.720840, -277.902283, 13.727963, 100.772494
1759229799.454623, -1.144428, 9.096769, 1.158045, -0.014497, -0.035497, -0.012406, 64.447418, 16.002792, -277.587952, 13.727963, 100.772494
1759229799.475210, -1.167024, 9.077765, 1.171064, 0.068797, -0.096256, 0.034949, 64.763580, 15.491867, -277.822937, 13.727963, 100.772494
1759229799.495351, -1.391630, 9.333197, 1.191415, 0.145591, -0.236542, 0.071896, 64.788071, 15.668289, -277.888367, 13.727963, 100.772494
1759229799.515211, -1.591097, 10.407146, 1.223587, 0.182787, -0.363002, 0.060232, 64.864548, 15.759277, -278.449493, 13.727963, 100.772494
1759229799.535354, -1.431433, 10.868778, 1.058087, 0.173930, -0.284262, 0.118803, 64.613373, 15.265518, -278.514771, 13.727963, 100.772494
1759229799.554849, -0.968903, 10.093206, 0.592116, 0.263759, -0.015411, 0.196474, 64.795776, 15.187408, -278.543579, 13.727963, 100.772494
1759229799.575140, -0.672022, 9.142109, 0.729633, 0.469986, 0.108846, 0.257826, 64.471466, 15.083603, -278.513123, 13.727963, 100.772494
1759229799.595132, -0.744746, 8.456919, 1.644068, 0.610594, -0.183716, 0.221635, 64.679260, 14.498779, -278.738068, 13.727963, 100.772494
1759229799.615156, -0.994492, 8.744522, 2.657265, 0.444690, -0.596870, 0.183170, 64.584808, 14.365036, -279.711121, 13.727963, 100.772494
1759229799.635160, -1.597980, 9.503484, 1.815403, 0.119583, -0.076939, 0.158679, 64.140701, 13.746216, -279.514465, 13.727963, 100.772494
1759229799.655009, -1.980304, 9.611074, 0.799663, 0.040991, 0.893576, 0.080780, 64.510574, 14.317001, -279.685791, 13.727963, 100.772494
1759229799.675213, -1.346439, 10.314520, 0.125396, 0.142065, 0.776943, 0.018189, 64.777603, 14.081467, -279.414612, 13.727963, 100.772494
1759229799.695185, -0.203358, 9.911995, -0.213234, 0.315740, 0.151389, -0.003667, 65.295425, 13.851334, -279.120728, 13.727963, 100.772494
1759229799.715214, 0.576254, 9.751883, 0.151134, 0.293660, 0.227710, 0.036632, 65.230621, 13.745605, -278.846771, 13.727963, 100.772494
1759229799.735339, 1.200243, 9.885359, 1.173458, 0.273910, 0.215875, 0.067104, 65.372543, 13.551834, -278.840698, 13.727963, 100.772494
1759229799.755172, 1.706767, 9.965864, 2.331952, -0.010924, -0.059096, 0.049254, 65.327667, 13.666504, -278.757538, 13.727963, 100.772494
1759229799.775133, 2.241122, 9.937882, 2.411410, -0.269104, -0.301113, 0.000754, 65.471985, 13.705032, -279.378540, 13.727963, 100.772494
1759229799.795139, 2.110040, 9.025242, 1.997961, -0.387741, -0.150613, 0.024244, 65.261032, 13.800537, -279.446838, 13.727963, 100.772494
1759229799.815160, 1.211765, 8.772205, 1.144129, -0.391262, 0.662911, 0.081534, 65.460281, 13.672989, -278.997559, 13.727963, 100.772494
1759229799.835142, 0.408361, 8.852710, 0.564583, -0.379123, 1.622401, 0.125126, 65.681564, 14.008362, -277.911133, 13.727963, 100.772494
1759229799.855149, 0.530615, 8.579023, -0.195576, -0.561118, 2.378753, 0.143818, 66.588089, 13.729233, -276.026794, 13.727963, 100.772494
1759229799.875200, 2.309806, 8.415768, -2.498798, -0.800328, 2.241737, 0.267215, 67.811966, 13.829010, -274.556702, 13.727963, 100.772494
1759229799.895372, 3.482217, 7.855226, -6.694188, -0.238616, 1.613274, 0.479903, 67.966599, 13.446289, -273.118347, 13.727963, 100.772494
1759229799.915217, 2.523638, 8.031200, -4.465785, 0.709490, 0.737705, 0.528945, 68.365356, 13.357971, -272.046417, 13.727963, 100.772494
1759229799.935203, 0.843657, 9.105897, -0.669179, 0.856259, -0.062720, 0.523791, 68.665344, 12.433273, -272.855682, 13.727963, 100.772494
1759229799.955148, -0.303615, 8.909124, -0.823905, 0.751504, 0.078849, 0.504396, 68.647537, 12.301834, -272.408936, 13.727963, 100.772494
1759229799.975220, -2.926762, 7.270742, 0.769586, 0.919350, -0.699987, 0.238137, 68.873169, 11.816803, -273.245331, 13.727963, 100.772494
1759229799.995211, -3.207931, 5.996128, 1.321599, 0.826508, -1.240054, -0.237303, 68.373398, 11.354828, -274.408386, 13.727963, 100.772494
1759229800.015163, -1.016039, 6.256498, 2.120963, 0.620044, -1.377244, -0.655090, 67.635422, 11.694809, -275.300659, 13.727963, 100.772494
1759229800.035144, 1.933767, 7.719056, 2.954445, 0.263016, -1.916206, -0.715823, 66.903458, 11.479156, -276.494751, 13.727963, 100.772494
1759229800.055147, 5.011064, 9.461586, 1.558775, -0.224832, -1.247569, -0.492952, 66.132614, 12.628845, -277.190063, 13.727963, 100.772494
1759229800.075203, 8.902091, 10.722731, -1.352574, 0.201949, 1.215229, 0.125605, 66.700638, 12.832245, -277.723236, 13.727963, 100.772494
1759229800.095256, 6.442348, 10.733805, -0.377985, 0.981555, 1.909324, 0.372929, 67.283478, 12.013199, -276.514252, 13.727963, 100.772494
1759229800.115220, 2.741810, 10.213365, -1.592593, 1.207078, 2.070515, 0.297190, 67.443787, 11.293579, -275.467163, 13.727963, 100.772494
1759229800.135315, 1.173907, 10.521469, -4.797232, 0.787729, 0.848751, 0.711536, 68.305618, 10.394028, -274.403687, 13.727963, 100.772494
1759229800.155167, 1.981651, 13.287969, -9.740809, 1.962653, -1.331098, 1.291962, 68.253845, 9.411072, -275.433289, 13.727963, 100.772494
1759229800.175159, 2.113033, 15.682021, -5.942109, 3.334337, -2.187967, 2.047225, 67.811707, 7.065475, -277.247314, 13.727963, 100.772494
1759229800.195188, 0.572364, 15.606454, 0.855179, 3.595508, -1.932689, 2.422565, 67.368774, 3.618073, -278.986725, 13.727963, 100.772494
1759229800.215163, -0.324414, 18.876335, 3.114707, 2.170902, 0.633582, 2.806163, 66.864426, 1.076843, -280.263763, 13.727963, 100.772494
1759229800.235156, -3.063082, 23.368007, 3.381810, 0.277150, 2.528896, 2.720308, 67.081238, -1.519119, -280.330627, 13.727963, 100.772494
1759229800.254368, -6.716783, 16.028432, 3.486706, -0.583998, 2.264821, 2.194485, 67.783600, -3.268707, -277.890259, 13.727963, 100.772494
1759229800.275205, -2.130690, 14.066683, -2.479944, -0.549566, 1.395641, 1.726311, 68.606293, -4.188080, -277.472168, 13.727963, 100.772494
1759229800.295349, 2.634520, 11.774684, -4.828805, 0.080912, 1.175133, 2.037515, 68.693298, -5.578766, -277.070984, 13.727963, 100.772494
1759229800.315186, 0.528221, 11.933000, -1.723825, 0.162264, 0.133311, 1.352037, 68.627213, -6.573151, -276.520020, 13.727963, 100.772494
1759229800.334535, 0.278625, 11.577611, -1.983746, 0.290077, -0.722675, 0.855968, 68.132141, -7.471924, -276.541809, 13.727963, 100.772494
1759229800.354374, 0.661099, 9.244013, -1.202937, 0.150402, -0.937264, 0.537985, 68.000244, -8.393921, -276.768921, 13.727963, 100.772494
1759229800.375163, -0.839168, 6.462848, 0.082001, -0.151212, -0.745546, 0.100412, 67.376114, -8.831696, -277.595642, 13.727963, 100.772494
1759229800.395217, -2.008586, 3.702783, 0.374693, -0.365032, -0.587297, -0.195695, 67.032211, -8.492035, -278.440918, 13.727963, 100.772494
1759229800.415225, -2.621202, 1.649156, 0.369755, -0.505408, -0.596626, -0.461435, 66.360779, -8.192627, -278.336060, 13.727963, 100.772494
1759229800.435166, -3.550601, 1.220594, 0.531962, -0.725944, -0.567394, -0.918933, 66.601013, -7.682343, -278.883453, 13.727963, 100.772494
1759229800.454467, -3.947590, 1.622221, 0.919074, -1.105390, -0.218211, -1.360920, 66.320923, -6.677780, -279.432861, 13.727963, 100.772494
1759229800.475149, -3.909881, 1.312771, 0.547225, -1.442437, 0.379639, -1.725810, 66.914841, -5.299973, -279.760742, 13.727963, 100.772494
1759229800.495377, -3.737947, 1.140837, 0.366313, -1.696662, 0.925911, -2.087407, 67.070389, -3.541641, -279.783813, 13.727963, 100.772494
1759229800.515169, -3.338864, 1.131111, 0.083199, -1.794351, 1.456864, -2.338882, 67.167572, -1.615524, -278.552551, 13.727963, 100.772494
1759229800.535347, -2.600402, 1.441459, -0.218920, -1.344876, 1.115429, -2.378361, 68.016998, 0.600296, -277.534607, 13.727963, 100.772494
1759229800.554651, -1.708263, 4.417152, -1.219397, -0.405369, -0.880501, -2.415093, 68.002548, 2.693237, -276.629974, 13.727963, 100.772494
1759229800.575186, -0.388310, 10.683975, -3.641132, 0.073766, -1.795596, -2.366407, 67.157288, 4.011185, -277.541260, 13.727963, 100.772494
1759229800.595220, 1.775899, 15.407885, -4.683358, -0.307368, -1.090176, -1.462220, 66.658752, 5.559235, -278.647766, 13.727963, 100.772494
1759229800.615257, 4.862324, 17.839645, -2.364125, -0.701476, -1.319718, -0.521482, 65.834595, 6.395218, -279.430511, 13.727963, 100.772494
1759229800.635157, 8.707711, 14.569016, -0.228646, -1.182822, -0.195659, 0.119459, 65.401108, 7.058350, -279.831451, 13.727963, 100.772494
1759229800.654873, 9.726295, 13.986776, -3.000384, -1.336256, 3.662413, 1.164167, 65.928574, 7.278458, -279.332703, 13.727963, 100.772494
1759229800.675155, 6.110900, 13.809905, -0.872836, -1.160279, 3.564322, 0.992190, 67.812027, 6.838837, -276.485168, 13.727963, 100.772494
1759229800.695215, -0.988955, 13.860333, -1.095347, -0.225637, 2.641373, 0.819102, 68.451782, 6.331772, -274.156860, 13.727963, 100.772494
1759229800.715231, -8.342147, 21.339669, -25.000852, 1.400219, 0.686642, 1.278795, 69.396057, 5.689041, -272.406647, 13.727963, 100.772494
1759229800.735169, 6.731747, 23.946506, -0.154725, 1.960203, -2.967450, 1.077541, 69.532440, 4.295303, -273.251831, 13.727963, 100.772494
1759229800.755029, 5.018995, 13.535320, 6.994660, 1.887012, 0.165800, 0.396131, 68.502472, 3.179016, -275.130157, 13.727963, 100.772494
1759229800.775214, 3.410690, 6.377255, 6.235249, 1.787659, -1.036456, 0.366604, 68.388092, 2.289261, -275.635376, 13.727963, 100.772494
1759229800.795224, 0.599598, 3.377620, 7.063045, 0.860791, -1.515835, 0.106264, 67.961639, 1.545944, -276.559204, 13.727963, 100.772494
1759229800.815226, -2.521843, 6.593931, 4.964377, -0.228539, -0.169476, -0.464348, 67.934387, 1.385406, -277.661133, 13.727963, 100.772494
1759229800.835160, -1.577779, 12.019042, 7.470807, -1.427573, -0.430533, -0.920264, 67.352341, 1.860886, -277.380493, 13.727963, 100.772494
1759229800.855363, 0.596755, 17.103578, 6.591836, -1.938294, -0.844173, -0.567537, 67.083450, 2.868469, -277.570679, 13.727963, 100.772494
1759229800.875185, 4.797531, 15.333066, 3.253421, -2.311021, 1.729806, -0.097103, 66.656601, 3.581543, -277.731262, 13.727963, 100.772494
1759229800.895202, 6.830508, 11.674277, -1.827524, -2.241901, 5.116819, 0.170385, 67.618103, 4.818054, -275.492340, 13.727963, 100.772494
1759229800.915234, 6.413917, 9.819070, -4.920384, -2.247009, 2.768501, 0.182008, 69.163467, 4.905823, -272.056458, 13.727963, 100.772494
1759229800.935260, 1.582717, 8.857050, -15.706412, 0.551249, -1.155264, 0.197639, 69.226501, 5.340240, -270.624390, 13.727963, 100.772494
1759229800.955221, -2.437896, 5.717054, -7.106739, 2.106998, -2.931166, -0.096140, 69.001801, 4.997589, -272.179291, 13.727963, 100.772494
1759229800.975231, -2.863016, 4.994604, -0.997185, 2.064769, -2.269774, -0.441690, 68.243744, 4.454407, -274.255798, 13.727963, 100.772494
1759229800.995192, -3.468600, 2.531569, 0.847248, 1.226361, -0.733675, -0.587594, 66.868774, 4.481766, -276.028870, 13.727963, 100.772494
1759229801.015305, -3.169923, 1.633444, 2.051831, 0.502197, 0.247677, -0.477007, 66.852188, 4.511475, -276.303101, 13.727963, 100.772494
1759229801.035199, -2.735525, 3.679738, 2.855085, -0.167072, 0.755912, -0.614793, 67.308792, 4.723587, -276.235657, 13.727963, 100.772494
1759229801.055227, -0.301071, 7.677008, 3.294571, -0.695354, 1.443827, -0.601316, 67.409988, 5.027573, -275.063202, 13.727963, 100.772494
1759229801.075170, 5.106533, 11.710789, 1.900996, -0.795757, 3.326158, -0.090348, 67.905472, 5.150024, -274.010437, 13.727963, 100.772494
1759229801.095158, 12.902652, 13.877990, -1.147720, -0.569347, 4.693038, 0.604977, 68.735458, 6.036133, -271.385681, 13.727963, 100.772494
1759229801.115166, 16.308554, 13.340492, -6.616526, -0.101639, 1.730745, 1.441462, 69.778320, 5.082962, -268.230408, 13.727963, 100.772494
1759229801.135177, 8.205228, 14.971841, -12.073510, 2.521478, -2.370916, 2.491513, 69.647156, 3.637360, -268.344543, 13.727963, 100.772494
1759229801.155163, 3.063381, 19.751116, -3.106327, 4.004749, -4.698623, 2.617818, 69.061600, 1.324066, -271.140350, 13.727963, 100.772494
1759229801.175164, -2.464082, 22.401198, 6.098929, 3.592743, -3.921988, 2.144497, 67.652634, -1.713196, -274.565796, 13.727963, 100.772494
1759229801.195161, -5.909488, 25.005042, 9.106795, 2.068293, -0.459887, 1.540338, 66.656906, -3.788422, -277.088745, 13.727963, 100.772494
1759229801.215178, -8.506898, 13.196989, 7.561936, -0.068056, 2.053988, 1.266873, 66.896179, -4.765381, -276.283813, 13.727963, 100.772494
1759229801.235160, -6.149357, 6.250812, 0.253486, -1.183248, 1.176860, 1.019952, 67.638092, -5.235077, -274.846069, 13.727963, 100.772494
1759229801.255177, -5.973832, 6.120627, -3.711611, -1.116969, 1.691413, 0.299533, 67.690277, -5.703934, -273.372162, 13.727963, 100.772494
1759229801.275158, -2.683451, 7.934384, 0.638504, -1.457750, 1.967374, -0.371514, 68.609268, -5.184860, -273.172729, 13.727963, 100.772494
1759229801.295168, -0.253037, 8.715642, 1.493982, -2.029066, 2.228241, -0.545948, 68.835876, -4.483459, -271.915222, 13.727963, 100.772494
1759229801.315174, -0.883760, 7.826645, -1.471835, -2.009331, 2.340700, -0.813776, 69.136185, -3.825455, -269.896790, 13.727963, 100.772494
1759229801.334551, -1.578826, 5.044284, -3.286940, -1.546770, 1.303272, -1.438978, 69.765244, -2.503448, -268.594666, 13.727963, 100.772494
1759229801.355191, 0.169539, 3.816208, -3.491195, -1.047342, -0.131200, -1.910685, 69.753067, -0.749878, -268.313782, 13.727963, 100.772494
1759229801.375155, 1.430835, 3.200599, -3.608660, -0.349257, -0.737689, -2.336758, 69.803207, 0.247620, -268.688049, 13.727963, 100.772494
1759229801.395170, 3.390489, 4.564097, -3.367894, 0.418565, -1.144941, -2.557199, 69.524384, 1.739059, -268.810669, 13.727963, 100.772494
1759229801.415180, 5.545121, 6.161179, -2.119467, 0.901278, -2.389409, -2.347251, 68.983276, 4.174133, -270.040649, 13.727963, 100.772494
1759229801.434835, 4.792294, 7.405116, -0.395791, 0.790872, -3.522719, -1.963290, 68.128296, 5.016235, -272.169250, 13.727963, 100.772494
1759229801.454572, 3.424008, 8.422203, -0.494403, 0.466341, -3.589802, -1.474531, 66.397171, 6.435410, -275.268433, 13.727963, 100.772494
1759229801.475180, 0.894983, 8.480711, -2.171391, 0.552294, -2.324473, -1.158488, 65.217056, 6.706909, -276.978333, 13.727963, 100.772494
1759229801.495167, 2.263119, 6.433968, -0.129137, 0.350504, -1.601294, -0.560739, 63.535080, 7.198410, -279.214355, 13.727963, 100.772494
1759229801.515155, 2.463634, 6.417059, 1.281197, -0.128898, -1.473713, 0.136688, 63.546204, 7.389572, -280.104797, 13.727963, 100.772494
1759229801.535175, 1.677886, 8.160487, 1.331026, -0.328455, -0.908635, 0.375950, 62.645859, 7.085236, -280.285034, 13.727963, 100.772494
1759229801.555170, 0.183755, 10.738892, 0.547973, -0.690407, 0.336400, 0.600788, 63.225357, 6.984787, -279.897400, 13.727963, 100.772494
1759229801.575166, -2.037166, 16.279524, -3.878457, -1.164581, 4.265752, 1.069133, 63.531738, 6.981628, -278.940887, 13.727963, 100.772494
