SamplingTime, AccelerationX, AccelerationY, AccelerationZ, GyroX, GyroY, GyroZ, MagneticFieldX, MagneticFieldY, MagneticFieldZ, Latitude, Longitude
1759229445.147718, -0.507122, -1.486201, -9.277232, -0.284823, -0.152141, 0.018398, 7.949753, -62.033127, -199.058594, , 
1759229445.168383, -0.579098, -1.382203, -9.390358, -0.046901, -0.515511, -0.044750, 8.169708, -61.768860, -198.821457, , 
1759229445.187683, -1.115997, -1.564760, -9.058612, 0.241024, -0.703618, -0.007795, 7.763046, -62.060410, -199.025543, , 
1759229445.208362, -0.960823, -1.655740, -8.773253, 0.468231, -0.885125, 0.036246, 8.286575, -61.957794, -199.179749, , 
1759229445.228360, -0.724695, -1.230769, -8.667309, 0.566338, -1.257728, -0.066331, 7.548935, -62.385056, -199.342453, , 
1759229445.247686, -0.487669, -1.799542, -8.961796, 0.565727, -2.102914, -0.171337, 7.021530, -62.490555, -200.480194, , 
1759229445.268328, -0.497994, -1.792359, -9.028534, 0.519756, -2.493299, -0.269587, 6.472656, -62.444061, -200.655487, 13.729655, 100.771872
1759229445.287923, -1.631349, -1.810166, -8.396764, 0.536678, -2.447244, -0.280442, 5.638443, -62.484085, -201.766159, 13.729655, 100.771872
1759229445.308352, -1.535132, -1.761384, -8.997111, 0.548383, -2.764040, -0.263223, 4.891022, -62.991745, -201.944733, 13.729655, 100.771872
1759229445.328468, -2.288707, -1.275062, -8.889820, 0.636163, -2.743759, 0.005125, 4.205124, -62.950745, -202.227066, 13.729655, 100.771872
1759229445.347796, -2.608183, -1.557877, -8.994417, 0.596433, -2.666676, 0.295147, 3.576462, -62.976456, -202.478363, 13.729655, 100.771872
1759229445.367642, -2.429217, -1.123479, -9.674221, 0.498731, -2.719171, 0.433903, 2.449051, -62.987457, -202.697510, 13.729655, 100.771872
1759229445.387674, -3.192818, -1.662474, -9.809942, 0.565519, -2.699712, 0.533175, 2.388992, -63.323502, -202.910965, 13.729655, 100.771872
1759229445.408355, -4.651036, -1.665915, -9.051579, 0.624712, -2.685967, 0.384974, 1.898148, -63.086685, -202.498703, 13.729655, 100.771872
1759229445.428371, -6.872107, -2.217480, -8.224681, 0.479819, -2.219399, 0.170536, 1.457489, -63.696259, -203.235825, 13.729655, 100.771872
1759229445.448387, -6.831406, -2.883816, -7.644387, 0.261240, -1.771327, 0.146685, 1.583694, -63.356049, -203.045990, 13.729655, 100.771872
1759229445.467870, -6.365434, -2.927360, -7.567772, 0.104373, -1.414430, 0.098318, 0.131607, -63.667374, -202.546158, 13.729655, 100.771872
1759229445.488054, -6.366182, -2.410961, -8.043021, 0.059422, -1.708879, 0.083418, 0.343307, -63.621185, -202.829239, 13.729655, 100.771872
1759229445.508359, -6.662016, -2.152836, -8.928577, 0.126563, -2.392825, 0.038791, -0.072296, -63.478088, -202.778595, 13.729655, 100.771872
1759229445.528414, -5.899313, -1.783531, -9.388413, 0.052118, -3.182151, -0.341102, -0.977753, -63.266602, -202.481995, 13.729655, 100.771872
1759229445.547779, -5.388001, -0.452953, -8.188768, -0.372846, -3.518759, -1.260810, -2.442581, -63.597656, -201.890396, 13.729655, 100.771872
1759229445.568337, -5.308993, 0.129885, -4.335151, -0.793478, -1.297340, -2.142455, -3.918625, -63.377563, -200.930420, 13.729655, 100.771872
1759229445.588101, -5.187936, -1.866879, -0.198120, -0.628993, 0.402309, -2.393772, -5.556351, -64.495224, -200.708206, 13.729655, 100.771872
1759229445.608338, -8.364293, -3.372532, -2.047791, -0.396648, 1.072955, -1.959474, -6.544678, -64.444641, -200.369125, 13.729655, 100.771872
1759229445.628398, -9.038111, -4.065953, -4.477756, -0.562090, 1.362988, -1.457731, -6.813339, -64.559067, -200.541946, 13.729655, 100.771872
1759229445.647738, -7.884256, -4.784962, -6.079626, -0.831058, 1.322646, -1.140785, -7.673416, -64.367493, -200.445938, 13.729655, 100.771872
1759229445.668335, -5.079598, -2.541295, -7.444321, -0.791191, 1.012052, -1.291177, -8.038467, -64.805679, -199.708008, 13.729655, 100.771872
1759229445.688076, -4.208558, -1.772757, -6.996456, -0.649212, 1.263837, -1.679345, -8.466263, -65.237411, -199.967453, 13.729655, 100.771872
1759229445.708342, -3.137901, -2.866009, -5.435287, -0.750406, 1.970713, -1.823000, -8.662582, -65.452316, -200.225754, 13.729655, 100.771872
1759229445.727942, -3.437924, -3.583671, -5.628319, -0.966151, 2.515497, -1.564385, -9.028854, -65.539780, -200.523422, 13.729655, 100.771872
1759229445.747779, -3.552696, -2.917484, -6.365284, -0.988743, 2.688469, -1.398254, -9.019257, -65.702530, -201.010040, 13.729655, 100.771872
1759229445.768322, -3.462465, -2.595913, -7.028778, -0.983892, 2.397138, -1.249058, -9.456360, -65.960800, -200.988678, 13.729655, 100.771872
1759229445.788065, -3.499275, -2.447772, -7.539640, -1.130088, 1.579407, -0.852733, -8.837036, -65.668701, -200.980194, 13.729655, 100.771872
1759229445.808355, -3.908085, -1.398962, -7.457938, -1.576507, 0.712488, -0.260684, -8.996048, -65.474518, -199.880630, 13.729655, 100.771872
1759229445.828351, -4.045004, -0.286257, -6.633285, -2.161628, 0.185146, 0.483292, -8.679718, -65.117645, -199.316589, 13.729655, 100.771872
1759229445.847741, -3.789273, 0.262464, -6.844574, -2.774748, -0.493479, 1.068474, -8.195404, -64.255615, -197.841675, 13.729655, 100.771872
1759229445.868326, -3.472191, 0.809689, -6.674436, -3.135705, -0.915945, 1.329554, -7.457687, -63.341415, -195.394730, 13.729655, 100.771872
1759229445.887983, -3.251027, 0.784849, -6.513426, -2.976297, -1.129817, 1.247001, -6.811539, -62.458191, -193.462646, 13.729655, 100.771872
1759229445.908332, -3.163638, 2.336292, -6.930466, -2.634063, -1.261631, 1.173516, -6.108749, -62.340683, -191.251480, 13.729655, 100.771872
1759229445.928351, -4.544943, 3.816357, -8.049605, -2.476317, -1.325602, 1.338686, -4.700073, -61.824677, -189.976913, 13.729655, 100.771872
1759229445.947715, -5.269488, 4.269460, -8.492832, -2.532908, -1.003477, 1.479146, -3.838181, -61.724487, -188.144272, 13.729655, 100.771872
1759229445.968327, -6.699425, 4.892401, -10.769269, -2.717852, -0.563158, 1.427046, -2.539276, -61.459152, -186.369568, 13.729655, 100.771872
1759229445.988042, -7.237971, 4.777929, -11.319337, -2.976925, -0.433286, 1.477829, -1.741013, -61.356781, -184.482605, 13.729655, 100.771872
1759229446.007990, -8.921693, 4.918289, -11.895142, -3.153702, -0.616907, 1.805671, 0.131775, -61.569550, -182.142899, 13.729655, 100.771872
1759229446.028330, -10.939856, 5.746832, -11.140220, -3.101885, -0.929970, 1.941052, 1.553543, -61.808823, -180.261093, 13.729655, 100.771872
1759229446.047754, -10.940005, 5.970241, -10.709264, -3.296030, -1.418985, 1.637832, 3.147949, -62.508850, -178.461105, 13.729655, 100.771872
1759229446.068324, -11.190499, 5.675904, -9.981876, -3.615943, -1.819879, 1.448173, 4.300858, -63.406998, -176.000946, 13.729655, 100.771872
1759229446.087561, -11.418696, 5.459528, -9.778518, -3.892334, -2.134139, 1.366170, 5.751572, -64.557449, -174.175674, 13.729655, 100.771872
1759229446.108320, -10.171616, 5.101146, -8.629900, -4.060920, -2.243137, 1.006287, 7.182846, -65.692261, -171.674133, 13.729655, 100.771872
1759229446.128363, -9.272893, 5.074959, -8.201637, -4.050021, -2.304911, 0.373408, 8.211838, -67.439774, -170.531845, 13.729655, 100.771872
1759229446.148349, -9.411457, 4.400992, -6.959495, -4.043756, -2.166267, -0.707217, 9.128448, -68.970642, -168.181198, 13.729655, 100.771872
1759229446.168321, -9.865458, 1.159991, -6.950367, -3.093167, -2.349801, -0.951037, 9.184280, -70.386383, -167.184448, 13.729655, 100.771872
1759229446.187994, -11.374104, -0.653467, -6.711546, -2.055888, -2.727358, -0.796146, 9.802353, -71.283386, -166.669586, 13.729655, 100.771872
1759229446.208366, -9.809343, -1.350330, -7.214179, -0.094161, -3.589226, -0.105974, 10.531403, -71.487656, -166.724640, 13.729655, 100.771872
1759229446.228369, -9.815329, -3.053056, -7.085490, 0.963802, -3.360135, 0.583205, 12.583298, -70.823792, -168.409866, 13.729655, 100.771872
1759229446.247782, -6.838289, 0.859069, -9.877279, -0.128574, -3.123020, -0.149843, 14.158997, -70.649979, -168.256195, 13.729655, 100.771872
1759229446.268336, -6.850858, 4.337396, -4.585046, -0.696269, -2.650247, -1.474972, 14.442520, -70.808365, -168.476181, 13.729655, 100.771872
1759229446.287977, -7.201459, 2.752584, -0.452504, -0.437336, -1.286126, -2.177432, 14.410110, -70.533188, -168.601639, 13.729655, 100.771872
1759229446.307623, -8.816947, 1.772158, -0.117615, -0.126636, -0.244057, -2.059647, 13.411331, -69.930771, -168.606659, 13.729655, 100.771872
1759229446.328345, -9.249100, 2.209549, -0.959626, 0.074999, -0.095876, -1.586676, 13.422348, -69.834091, -168.503036, 13.729655, 100.771872
1759229446.348345, -8.436418, 2.711284, -0.979827, -0.113665, -0.072379, -1.237293, 12.187866, -69.596375, -167.862595, 13.729655, 100.771872
1759229446.368312, -5.964854, 4.682909, -1.196502, -0.713190, 0.143532, -0.908333, 11.858826, -69.803833, -167.877243, 13.729655, 100.771872
1759229446.387994, -2.587085, 6.622811, -0.371401, -1.290468, 0.555869, -0.767590, 11.649551, -69.964188, -167.627640, 13.729655, 100.771872
1759229446.408319, -2.837279, 6.402993, 2.670882, -1.300928, 1.703231, -1.037253, 10.535767, -70.379547, -166.360352, 13.729655, 100.771872
1759229446.428383, -4.548085, 6.940042, 0.697760, -0.944298, 2.303245, -1.185465, 9.128357, -70.781204, -166.094055, 13.729655, 100.771872
1759229446.447717, -7.971644, 6.784419, 1.327286, -0.379132, 2.485883, -1.232703, 7.685043, -70.917099, -165.411774, 13.729655, 100.771872
1759229446.468331, -9.751434, 6.375609, -0.889596, 0.095459, 1.675715, -1.141362, 6.697571, -70.586334, -165.676193, 13.729655, 100.771872
1759229446.488006, -9.485228, 6.674286, -2.345121, 0.088493, 0.580293, -0.844122, 5.690125, -70.913818, -165.348251, 13.729655, 100.771872
1759229446.508350, -7.997681, 5.316624, -1.512687, -0.056193, -0.097711, -0.638377, 5.675751, -70.732544, -165.562027, 13.729655, 100.771872
1759229446.528357, -6.644658, 2.926313, -0.639551, 0.113639, -0.210810, -0.530723, 5.073944, -70.862686, -165.654953, 13.729655, 100.771872
1759229446.547729, -8.678083, 1.386991, -0.784101, 0.514976, -0.076447, -0.243157, 5.426132, -70.967651, -166.017685, 13.729655, 100.771872
1759229446.568311, -10.630405, 1.994071, -1.734599, 0.661761, -0.289272, 0.325151, 5.503708, -70.357391, -166.000626, 13.729655, 100.771872
1759229446.587988, -10.837204, 2.764555, -3.374777, 0.469018, -0.949552, 0.953312, 6.591965, -69.760025, -166.301529, 13.729655, 100.771872
1759229446.608348, -11.653328, 0.846949, -1.129914, 0.240527, -0.989323, 1.928530, 7.877197, -69.793564, -166.408371, 13.729655, 100.771872
1759229446.628345, -10.055647, 1.305887, 1.865382, -0.109205, 0.499718, 2.256110, 8.710297, -70.150925, -166.725464, 13.729655, 100.771872
1759229446.647705, -11.429021, 0.833182, 4.576217, -0.197456, 2.491391, 2.413284, 8.734573, -70.267715, -166.382965, 13.729655, 100.771872
1759229446.668317, -11.425430, 3.043330, 1.199046, -0.008576, 3.357606, 2.203229, 8.329971, -70.474731, -166.653427, 13.729655, 100.771872
1759229446.687961, -9.888053, 3.440468, -2.150442, -0.080178, 2.328921, 2.034753, 8.213120, -70.645187, -166.739334, 13.729655, 100.771872
1759229446.708331, -7.490858, 5.308693, -9.525182, 0.823992, -0.304588, 2.222342, 8.632126, -70.379120, -166.177338, 13.729655, 100.771872
1759229446.728330, -6.021268, 7.155820, -8.076690, 0.589464, -0.845056, 2.211915, 10.541946, -70.175964, -167.091492, 13.729655, 100.771872
1759229446.747706, -4.790049, 8.526201, -7.934534, -1.187081, 0.139341, 1.831745, 10.928482, -71.054230, -166.465576, 13.729655, 100.771872
1759229446.768314, -6.300042, 6.203975, -2.206706, -2.141732, 0.348205, 2.026798, 11.530930, -72.070526, -165.173004, 13.729655, 100.771872
1759229446.787980, -6.449530, 4.138826, 0.461632, -1.876039, 1.249826, 2.759903, 12.346710, -73.293793, -164.618713, 13.729655, 100.771872
1759229446.808356, -5.237615, 4.155885, -0.969951, -1.799425, 1.788924, 3.247471, 12.486984, -74.743378, -163.529312, 13.729655, 100.771872
1759229446.828344, -1.126472, 5.734113, -1.570746, -2.149895, 1.013370, 2.491139, 13.031815, -76.289749, -162.768921, 13.729655, 100.771872
1759229446.847704, 1.912219, 8.630648, 0.759560, -2.456438, 1.443924, 0.412387, 12.477951, -77.158081, -161.845413, 13.729655, 100.771872
1759229446.868308, -4.118625, 10.099790, 2.011728, -2.112387, 2.196019, -0.516982, 11.237823, -78.565155, -160.678360, 13.729655, 100.771872
1759229446.887621, -8.222287, 13.955502, 3.785682, -0.314845, 1.459035, -0.930800, 10.126587, -78.636261, -160.883301, 13.729655, 100.771872
1759229446.908351, -6.757933, 2.784307, -4.295347, 0.175076, -0.051226, 2.418621, 10.885132, -78.600220, -160.721512, 13.729655, 100.771872
1759229446.928402, -4.828207, 5.987300, -8.677934, -1.392366, -2.483917, 2.937296, 13.050400, -79.753845, -160.758713, 13.729655, 100.771872
1759229446.947704, -7.150732, 2.548628, -0.692972, -1.871794, -2.111102, 4.280075, 15.208084, -81.440201, -160.545868, 13.729655, 100.771872
1759229446.968307, -3.091812, 1.792808, 0.882712, -1.692811, -1.060372, 5.214692, 17.126053, -83.716339, -160.305084, 13.729655, 100.771872
1759229446.987836, -1.813757, 1.334019, 0.342072, -1.506420, -0.501462, 5.542299, 18.265854, -85.617676, -161.376938, 13.729655, 100.771872
1759229447.008346, 0.175076, 1.098490, 0.064045, -1.015789, -0.214221, 5.650345, 18.948288, -88.104797, -160.853577, 13.729655, 100.771872
1759229447.028314, 1.416470, 0.940023, 1.646612, -0.532979, 0.487988, 5.287835, 19.492798, -89.714935, -161.103912, 13.729655, 100.771872
1759229447.047703, 1.085471, 1.100136, 1.432630, -0.424144, 1.399877, 4.971075, 18.935883, -91.544968, -160.532990, 13.729655, 100.771872
1759229447.068307, -1.690007, 8.093000, 1.399860, -0.471988, 1.797681, 4.872450, 17.745117, -93.085175, -160.564590, 13.729655, 100.771872
1759229447.088012, 4.550031, 47.901840, 13.276746, -0.491519, 4.301029, 5.215990, 15.604935, -94.632355, -159.609802, 13.729655, 100.771872
1759229447.108370, 16.464177, 38.133946, 12.399121, 0.520370, 5.783756, 2.427413, 11.832550, -95.115585, -158.292435, 13.729655, 100.771872
1759229447.128335, 15.038280, 9.535207, -8.007557, 1.240802, 2.032599, -0.812336, 10.307312, -94.339066, -158.026108, 13.729655, 100.771872
1759229447.147701, 8.125771, 1.926435, -6.752547, 0.833048, -1.688297, -1.627124, 11.026443, -93.521408, -158.365479, 13.729655, 100.771872
1759229447.168345, 5.211578, 2.631527, -4.339790, -0.430867, -2.788869, -1.304748, 12.910019, -93.189880, -158.912384, 13.729655, 100.771872
1759229447.187973, 4.757279, 5.300762, -1.877054, -1.518428, -3.582413, -0.245648, 14.975739, -94.015610, -159.717117, 13.729655, 100.771872
1759229447.208337, 6.733393, 8.841188, 2.689437, -1.575256, -3.278507, -0.268149, 16.994766, -95.049545, -159.732422, 13.729655, 100.771872
1759229447.228334, 3.602226, 8.848820, 5.412093, -0.650584, -1.612842, -0.606832, 18.097626, -95.306091, -160.581390, 13.729655, 100.771872
1759229447.247697, 1.464204, 8.542512, 3.879056, -0.028567, -0.429476, -0.166265, 18.115509, -95.333130, -160.222702, 13.729655, 100.771872
1759229447.268306, 0.747290, 8.526949, 1.906533, 0.003995, 0.260136, 0.281629, 18.374695, -95.019196, -160.888031, 13.729655, 100.771872
1759229447.287982, 2.683750, 11.712584, 0.611569, -0.382402, 0.127067, 0.311016, 18.227463, -95.456650, -161.472839, 13.729655, 100.771872
1759229447.308333, 0.711676, 10.967389, -0.660800, -0.838961, 0.622732, -0.253322, 17.799240, -96.062592, -160.742523, 13.729655, 100.771872
1759229447.328315, -0.522535, 11.017667, -2.847604, -0.955942, 0.365056, -0.134657, 17.873337, -96.867050, -161.138931, 13.729655, 100.771872
1759229447.347729, 1.083975, 10.249428, -2.186505, -0.438994, -0.521986, 0.092839, 17.316818, -96.869125, -160.457077, 13.729655, 100.771872
1759229447.368320, 2.392256, 9.577256, -0.753874, -0.003483, -1.038877, -0.093017, 18.607437, -96.802170, -160.729675, 13.729655, 100.771872
1759229447.387954, 2.225410, 9.387665, 1.037438, -0.005435, -1.290763, -0.065503, 19.315964, -97.010773, -160.867828, 13.729655, 100.771872
1759229447.408325, 2.586486, 9.154679, 1.997213, -0.043301, -1.123919, -0.022553, 20.040405, -96.839081, -160.959732, 13.729655, 100.771872
1759229447.428333, 3.051410, 9.436596, 1.486949, -0.225857, -0.604428, 0.099459, 20.298691, -97.263626, -161.738358, 13.729655, 100.771872
1759229447.447705, 3.119794, 9.519196, 0.322020, -0.549156, 0.395219, 0.163397, 20.520782, -97.373947, -161.052216, 13.729655, 100.771872
1759229447.468303, 2.136825, 9.744700, -1.611447, -0.643365, 1.415126, 0.283021, 19.367615, -97.796890, -160.929031, 13.729655, 100.771872
1759229447.487948, 1.141735, 10.663924, -5.530157, 0.335481, 0.787187, 0.327121, 19.011856, -97.841476, -160.613159, 13.729655, 100.771872
1759229447.508321, 2.127697, 10.975469, -6.253355, 1.299175, -1.492712, 0.122435, 19.417297, -96.970932, -159.775787, 13.729655, 100.771872
1759229447.528317, 3.189974, 10.146776, -3.866785, 1.611506, -2.951892, -0.154953, 21.827530, -96.188019, -161.020462, 13.729655, 100.771872
1759229447.547706, 3.358466, 8.897901, -3.374328, 0.762063, -4.514754, -0.448919, 24.381165, -95.672714, -161.766861, 13.729655, 100.771872
1759229447.568318, 3.735852, 8.160487, 0.796521, 0.844200, -4.736951, -0.732557, 26.859146, -94.782318, -163.727280, 13.729655, 100.771872
1759229447.587947, 4.705354, 5.792771, 1.223736, 1.713214, -3.798360, -0.630447, 28.596542, -93.595154, -165.194855, 13.729655, 100.771872
1759229447.608316, 5.929240, 4.371812, -0.256778, 1.967900, -0.713437, -0.218107, 29.105972, -92.828079, -165.531296, 13.729655, 100.771872
1759229447.628318, 2.846107, 4.837484, 0.371251, 1.622257, -0.411125, 0.175907, 29.788834, -92.122681, -165.840408, 13.729655, 100.771872
1759229447.647690, 2.252345, 3.866037, 4.519804, 1.115685, -0.288478, 0.343734, 30.083237, -91.722900, -165.427887, 13.729655, 100.771872
1759229447.668302, -0.295385, 3.950433, 3.119046, 1.352089, -0.211274, -0.118800, 30.059464, -91.563583, -165.473328, 13.729655, 100.771872
1759229447.687977, -2.344522, 6.680870, -0.881515, 2.891306, -0.983355, 0.133234, 30.089218, -90.067184, -166.454453, 13.729655, 100.771872
1759229447.708347, -2.530372, 9.836129, -5.146636, 3.162219, 1.082813, 0.449958, 30.054047, -88.819443, -165.455338, 13.729655, 100.771872
1759229447.728316, -1.562965, 11.845612, -7.235128, 2.840760, 1.435292, -0.021848, 29.695297, -86.959930, -165.295868, 13.729655, 100.771872
1759229447.748337, -0.166397, 10.116400, -4.747852, 3.457908, -0.138705, -0.361974, 29.103378, -85.117599, -164.549667, 13.729655, 100.771872
1759229447.767893, 4.235492, 10.528053, -4.983680, 4.049350, 0.160077, -0.033238, 29.451004, -83.344086, -165.227280, 13.729655, 100.771872
1759229447.788083, 7.683292, 12.226290, -4.005948, 3.736605, 0.645461, 0.208878, 29.353470, -81.514572, -166.467758, 13.729655, 100.771872
1759229447.808304, 8.926781, 11.740417, -6.105065, 3.434761, 0.823942, -0.028998, 28.514526, -79.700592, -165.679703, 13.729655, 100.771872
1759229447.828315, 6.233903, 16.092776, -9.073276, 2.997078, 0.489314, -0.629736, 28.486435, -77.746323, -167.164703, 13.729655, 100.771872
1759229447.847699, 3.881450, 23.973440, -11.919982, 1.393974, -0.750826, -1.284897, 28.061295, -76.508575, -167.277161, 13.729655, 100.771872
1759229447.868316, 2.468721, 13.489830, -8.012645, 0.751824, -0.868197, -0.645600, 28.085709, -75.993256, -167.505295, 13.729655, 100.771872
1759229447.887941, 5.737555, 4.716727, -3.714604, 0.670284, 0.051545, -0.294447, 28.283676, -75.191238, -168.164917, 13.729655, 100.771872
1759229447.908301, 5.360618, 4.063858, -1.607706, 0.703216, 1.060404, 0.078004, 27.379761, -75.303452, -167.415344, 13.729655, 100.771872
1759229447.928341, 3.289483, 5.218462, -3.541772, 0.516766, 0.947878, -0.231762, 27.321121, -74.715286, -167.854080, 13.729655, 100.771872
1759229447.947703, 1.551293, 7.192930, -4.083610, 0.344725, 0.987903, -0.349109, 26.288986, -74.078217, -167.164017, 13.729655, 100.771872
1759229447.968299, 2.629881, 6.948871, -5.253627, -0.149091, 1.322165, -0.513096, 25.578979, -74.091049, -166.390945, 13.729655, 100.771872
1759229447.987998, 3.696049, 5.735759, -3.488801, -0.731479, 1.640508, -0.588344, 24.618805, -74.382950, -166.034454, 13.729655, 100.771872
1759229448.008316, 4.302979, 4.528632, -1.134552, -1.081794, 1.866913, -0.484517, 23.329300, -74.573425, -164.431519, 13.729655, 100.771872
1759229448.028336, 4.178032, 3.295020, -0.754174, -1.272209, 1.375347, -0.449717, 23.067078, -74.759399, -164.046387, 13.729655, 100.771872
1759229448.047698, 2.395399, 2.648735, -0.888847, -1.717684, 0.864316, -0.346647, 22.020737, -75.496719, -162.983841, 13.729655, 100.771872
1759229448.068142, 1.303792, 3.260154, -1.369633, -2.249189, 0.586103, -0.349031, 21.740662, -76.727280, -162.443314, 13.729655, 100.771872
1759229448.087991, 0.444124, 4.396652, -1.434875, -2.800294, 0.353029, -0.266729, 21.961960, -78.009430, -161.840729, 13.729655, 100.771872
1759229448.108291, 0.763451, 6.329820, 0.257377, -3.245431, 1.085512, -0.315560, 21.041260, -79.507538, -160.016113, 13.729655, 100.771872
1759229448.128324, 2.408118, 8.512285, 2.131139, -3.324312, 2.504125, -0.948449, 19.136780, -81.170288, -159.055801, 13.729655, 100.771872
1759229448.147667, 2.972850, 9.633519, 2.412308, -2.980391, 3.767300, -1.944531, 16.573502, -82.203705, -157.159271, 13.729655, 100.771872
1759229448.168296, 2.819621, 10.998663, -0.030227, -2.503113, 4.066772, -1.478200, 13.330078, -83.588928, -156.142578, 13.729655, 100.771872
1759229448.188093, 5.339668, 10.571747, -3.011606, 0.978980, 4.469190, 0.800779, 10.838638, -83.124008, -155.829163, 13.729655, 100.771872
1759229448.208285, 11.265317, 9.944766, -17.729811, 1.659011, 3.731987, 1.087048, 8.428986, -81.998291, -155.929230, 13.729655, 100.771872
1759229448.228323, 9.108740, 8.006360, -13.439402, -0.346004, 0.504701, -0.019403, 8.425659, -82.679062, -155.802811, 13.729655, 100.771872
1759229448.247728, 6.444892, 5.546767, -6.757933, -1.662982, -2.727431, -0.523783, 9.937454, -83.397690, -155.198883, 13.729655, 100.771872
1759229448.268312, 5.033061, 6.724564, 0.251242, -1.852268, -3.847391, -1.055123, 12.379120, -84.374893, -155.574799, 13.729655, 100.771872
1759229448.288012, 4.012083, 6.642862, 5.253327, -0.797982, -2.397368, -1.384357, 13.946030, -84.310669, -156.044250, 13.729655, 100.771872
1759229448.308306, 2.281525, 5.915623, 4.397101, 0.457869, -0.494591, -0.934639, 13.492584, -83.832535, -155.548248, 13.729655, 100.771872
1759229448.328305, 1.520767, 7.058406, 0.145298, 0.931673, 0.807239, -0.353919, 13.048630, -83.369568, -156.057709, 13.729655, 100.771872
1759229448.347691, -0.187047, 8.762030, -7.001543, 0.047560, 1.392012, -0.667462, 11.620728, -83.157745, -155.868546, 13.729655, 100.771872
1759229448.368295, -1.645864, 8.133702, -9.675418, -0.964276, 0.508703, -1.019465, 11.416595, -83.530899, -155.708130, 13.729655, 100.771872
1759229448.388083, 0.076614, 8.899696, -6.538265, -2.138094, -1.521066, -1.017026, 12.639374, -84.867569, -156.056641, 13.729655, 100.771872
1759229448.408277, 6.512528, 14.323461, 2.312948, -2.390941, -2.283502, -1.518933, 13.852356, -86.200211, -155.658890, 13.729655, 100.771872
1759229448.428308, 10.631452, 16.796821, 5.064934, -1.823407, -2.113296, -1.289365, 14.411896, -86.716782, -155.512161, 13.729655, 100.771872
1759229448.447686, 14.925902, 10.836606, 4.391564, -0.834028, 1.786116, -0.143347, 12.922867, -87.669022, -155.647720, 13.729655, 100.771872
1759229448.468316, 10.375423, 6.980893, -1.293318, 1.274494, 2.445143, 0.405904, 12.157837, -86.656540, -154.860168, 13.729655, 100.771872
1759229448.487946, 4.938191, 11.470321, -4.841974, 1.734090, -1.363069, 1.233079, 13.209167, -85.451691, -155.744507, 13.729655, 100.771872
1759229448.508271, 3.807529, 22.933758, -4.229657, 0.220937, -2.707575, 1.396916, 15.025589, -85.905792, -155.988800, 13.729655, 100.771872
1759229448.528307, 1.644368, 22.008549, 1.211167, -1.082566, -2.643170, -0.393440, 16.717743, -86.375259, -156.367249, 13.729655, 100.771872
1759229448.547686, -0.147543, 16.016311, 5.318270, -0.879953, -2.026186, -2.005003, 17.722961, -86.400101, -156.175003, 13.729655, 100.771872
1759229448.568321, -2.893692, 11.149947, 4.394707, -0.397890, -1.963804, -1.999979, 18.768478, -85.884857, -156.917999, 13.729655, 100.771872
1759229448.587954, -4.374955, 6.759280, 1.909825, -0.101222, -1.913607, -1.047527, 19.896164, -85.680969, -157.711700, 13.729655, 100.771872
1759229448.608266, -3.714005, 7.393145, 1.813907, -0.511046, -0.506812, -0.013342, 19.975342, -85.936417, -157.578827, 13.729655, 100.771872
1759229448.628354, 0.335787, 7.842956, 0.548721, -0.891479, 0.591828, 0.469840, 19.632233, -86.769669, -157.618378, 13.729655, 100.771872
1759229448.648330, 1.195455, 6.026954, 0.016610, -1.151826, -0.115051, 0.870013, 19.825073, -87.907242, -157.569839, 13.729655, 100.771872
1759229448.668329, 2.232593, 5.564274, 0.520290, -1.119923, -0.813799, 1.159552, 20.598083, -88.837601, -156.922867, 13.729655, 100.771872
1759229448.687967, 4.092738, 7.253234, -0.453402, -0.458052, -0.476057, 1.108932, 20.504089, -89.326385, -157.692368, 13.729655, 100.771872
1759229448.708294, 4.059369, 8.102876, -3.992182, -0.276055, -0.231056, 0.656013, 20.597061, -89.897202, -157.639191, 13.729655, 100.771872
1759229448.728312, 1.816601, 8.322245, -6.753295, -0.762906, -1.560829, 0.317342, 21.835632, -90.068420, -158.510849, 13.729655, 100.771872
1759229448.747702, -0.244508, 8.274062, -4.523096, -0.756275, -2.875349, 0.180772, 23.464462, -90.925613, -158.824280, 13.729655, 100.771872
1759229448.768292, -1.046266, 8.421305, -3.928586, -0.433947, -3.379078, 0.128246, 25.372955, -90.875732, -159.990891, 13.729655, 100.771872
1759229448.788011, -1.700033, 9.382727, -3.606865, -0.000604, -3.124290, -0.050482, 27.120499, -90.600281, -161.467575, 13.729655, 100.771872
1759229448.808260, -2.847454, 10.193014, -3.667169, 0.764806, -3.100257, -0.327697, 28.770538, -90.495590, -163.035385, 13.729655, 100.771872
1759229448.828302, -2.052579, 9.265112, 0.580744, 1.057245, -2.184896, -0.060586, 29.689682, -89.404663, -164.327759, 13.729655, 100.771872
1759229448.847707, 0.773477, 9.403676, -0.935085, 1.081333, -0.734697, -0.157545, 29.656708, -88.868546, -164.433792, 13.729655, 100.771872
1759229448.867490, -0.071078, 7.872285, 2.405574, 0.807387, 0.426033, 0.071594, 29.386627, -88.551773, -164.474060, 13.729655, 100.771872
1759229448.888082, -0.289549, 7.089680, 3.557185, 0.607651, 0.566765, 0.207034, 28.891907, -88.423157, -164.459351, 13.729655, 100.771872
1759229448.908253, -2.719364, 10.036194, -1.088314, 0.965602, -0.807803, -0.262697, 29.348740, -88.082947, -164.384308, 13.729655, 100.771872
1759229448.928307, -2.802114, 10.893767, -2.237232, 1.278040, -0.866643, -0.484558, 29.288040, -87.373764, -165.109482, 13.729655, 100.771872
1759229448.947688, -1.695095, 9.725546, -0.356287, 0.619548, 1.887303, -0.395728, 28.148926, -86.823944, -164.386719, 13.729655, 100.771872
1759229448.968290, -0.009876, 7.774571, -1.331924, 2.163553, 1.371756, -0.583557, 27.460953, -85.304260, -163.853409, 13.729655, 100.771872
1759229448.987816, 2.699911, 6.989572, -2.187402, 3.193024, 1.029801, -0.559804, 26.493317, -83.638092, -163.418060, 13.729655, 100.771872
1759229449.008265, 4.949862, 5.682039, -3.885191, 3.741807, 2.211446, -0.575588, 25.221207, -81.689255, -162.647522, 13.729655, 100.771872
1759229449.028433, 4.334253, 4.545990, -3.146580, 4.412477, 2.031851, -0.265301, 24.057388, -79.296082, -163.711502, 13.729655, 100.771872
1759229449.047684, 5.561431, 7.426814, -2.315043, 4.741544, 1.804098, 0.016965, 22.944870, -77.084549, -164.156830, 13.729655, 100.771872
1759229449.068310, 5.042039, 13.768455, -6.089951, 4.120662, 1.704294, -0.164565, 22.052567, -75.217926, -164.520660, 13.729655, 100.771872
1759229449.087967, 2.884115, 19.488053, -9.759514, 2.561761, 0.194278, -0.920837, 21.933228, -74.031799, -165.769394, 13.729655, 100.771872
1759229449.108243, 0.225504, 21.549162, -7.543830, 1.306084, -2.074120, -1.740768, 21.995590, -72.693604, -166.131744, 13.729655, 100.771872
1759229449.128358, 0.019752, 17.713501, -4.965275, 1.390416, -1.541559, -1.509249, 21.959305, -72.057892, -167.863174, 13.729655, 100.771872
1759229449.147674, 3.816507, 10.211719, -9.721955, 0.869527, -0.562144, -0.388703, 22.084091, -71.586380, -167.942688, 13.729655, 100.771872
1759229449.167492, 5.778555, 9.327211, -7.997232, -0.054508, -0.306299, -0.096965, 21.601624, -71.357895, -167.821381, 13.729655, 100.771872
1759229449.188303, 6.064214, 10.358214, -4.997447, -0.048340, -1.002699, -0.471480, 22.363007, -71.776474, -168.223709, 13.729655, 100.771872
1759229449.208336, 4.080767, 8.555081, -3.783288, -0.199555, -0.201563, -0.763006, 21.481445, -71.187347, -168.303375, 13.729655, 100.771872
1759229449.228317, 1.302595, 5.783344, -4.666000, -0.060049, 1.105430, -0.561157, 21.342468, -70.840714, -168.395767, 13.729655, 100.771872
1759229449.247670, -0.417040, 5.744588, -5.330989, -0.201125, 1.644336, -0.204549, 20.276581, -70.881958, -167.387100, 13.729655, 100.771872
1759229449.268288, -0.368857, 5.898864, -3.206584, -0.496682, 2.022020, 0.123840, 19.440002, -70.950974, -166.868256, 13.729655, 100.771872
1759229449.288438, 1.651401, 5.968595, -1.295263, -0.585887, 1.827878, 0.207096, 19.201675, -71.217773, -165.777359, 13.729655, 100.771872
1759229449.308317, 2.601300, 4.703559, -0.223110, -0.612511, 1.606172, 0.210095, 18.819885, -71.708435, -164.496063, 13.729655, 100.771872
1759229449.328290, 2.800468, 2.990807, -0.686088, -0.848251, 1.222355, 0.285326, 18.261566, -72.128555, -164.503418, 13.729655, 100.771872
1759229449.347684, 2.636465, 2.456900, -1.574188, -1.355665, 0.990265, 0.403746, 17.850479, -73.357208, -163.908020, 13.729655, 100.771872
1759229449.367762, 1.774253, 2.327912, -2.437597, -2.061936, 0.807764, 0.610890, 17.558548, -74.473740, -162.816910, 13.729655, 100.771872
1759229449.388461, 1.062128, 2.918532, -1.740585, -2.533183, 0.487442, 0.996763, 17.569824, -75.673203, -162.626266, 13.729655, 100.771872
1759229449.408359, 1.631200, 5.790526, 0.367510, -2.503002, 0.892381, 0.980212, 17.139572, -77.451767, -160.913467, 13.729655, 100.771872
1759229449.428348, 2.545635, 9.677962, 1.238850, -2.410987, 2.353475, 0.398751, 16.090485, -78.827026, -159.590439, 13.729655, 100.771872
1759229449.447694, 3.231574, 12.984504, 0.243909, -2.467885, 4.522663, -0.456298, 12.499100, -80.452438, -158.420486, 13.729655, 100.771872
1759229449.468317, 4.937293, 12.698546, -6.052243, -1.659612, 5.222154, -0.644348, 10.159088, -81.083328, -157.166061, 13.729655, 100.771872
1759229449.487871, 8.814553, 12.355128, -22.721872, -0.769313, -1.705762, -0.520762, 10.933273, -81.690430, -158.122375, 13.729655, 100.771872
1759229449.508223, 7.365163, 10.992827, -8.883835, -1.444983, -4.029583, -1.174491, 13.201721, -82.315277, -157.920273, 13.729655, 100.771872
1759229449.528301, 3.596091, 8.748712, 0.055964, -1.843102, -3.119270, -0.941296, 15.466278, -82.924026, -158.657318, 13.729655, 100.771872
1759229449.547536, 0.717662, 6.047903, 3.673154, -1.439007, -2.023020, -0.295709, 16.031586, -84.191132, -158.894806, 13.729655, 100.771872
1759229449.568320, -0.133776, 3.824139, 3.899257, -0.321220, -0.463180, -0.000822, 16.196442, -84.076218, -157.970642, 13.729655, 100.771872
1759229449.587558, -0.409408, 3.659238, 1.091008, 0.387371, 0.463676, 0.013221, 15.931976, -84.179504, -158.834656, 13.729655, 100.771872
1759229449.608220, -1.644966, 6.123320, -3.370288, 0.916267, 0.610734, -0.293121, 15.452637, -83.439438, -158.470566, 13.729655, 100.771872
1759229449.628297, -2.464980, 7.205799, -7.401226, -0.390548, 0.300198, -0.757227, 15.132980, -83.177826, -158.019028, 13.729655, 100.771872
1759229449.648335, -3.053355, 5.473893, -7.783699, -2.081856, 1.151711, -0.746216, 14.210556, -84.344070, -157.900848, 13.729655, 100.771872
1759229449.667377, -2.087893, 5.610961, -8.118139, -3.053198, 1.412214, -0.714158, 12.959869, -85.992432, -157.420059, 13.729655, 100.771872
1759229449.688303, 1.985990, 9.248202, -11.250054, -1.158992, -2.591333, -0.830896, 14.207321, -87.331848, -157.779053, 13.729655, 100.771872
1759229449.708218, 7.141604, 14.680347, 7.804499, -0.448976, -2.546986, -0.812076, 15.754578, -87.268768, -157.658096, 13.729655, 100.771872
1759229449.728296, 4.554669, 13.134740, 9.308506, 0.919300, -1.649512, 0.718892, 17.067184, -86.984833, -158.010452, 13.729655, 100.771872
1759229449.747680, 7.903858, 15.487642, 3.736750, 0.029842, 0.829501, 1.166642, 15.778000, -87.539810, -157.816299, 13.729655, 100.771872
1759229449.767595, 9.908852, 16.012720, 2.652027, -1.951167, 6.218682, 1.190542, 11.233337, -89.045654, -155.909317, 13.729655, 100.771872
1759229449.788285, 2.199523, 22.708554, -9.554062, -0.123693, 0.232139, 0.292009, 8.874908, -89.902054, -156.231079, 13.729655, 100.771872
1759229449.808216, -2.067842, 25.053824, -8.827571, 0.249447, -4.309520, -0.351878, 11.406357, -89.491180, -156.644699, 13.729655, 100.771872
1759229449.828296, 0.699107, 14.649671, 2.125303, 0.167493, -2.925301, -1.024347, 13.917328, -89.144821, -156.592728, 13.729655, 100.771872
1759229449.847666, -0.896030, 11.541548, 2.088492, -0.019329, -1.571272, -1.260426, 14.074341, -89.280121, -157.159348, 13.729655, 100.771872
1759229449.867521, 0.643442, 9.500791, 1.266084, -0.435745, 0.645778, -0.905215, 13.791214, -89.356567, -157.149597, 13.729655, 100.771872
1759229449.888298, 3.061286, 8.486697, 2.217779, -0.164846, 0.116901, 0.598321, 14.098312, -89.644379, -156.598572, 13.729655, 100.771872
1759229449.908205, 4.670788, 8.178743, 3.494786, 0.110807, -0.570368, 0.340331, 14.192963, -89.531174, -156.501648, 13.729655, 100.771872
1759229449.928298, 4.853346, 5.303456, 1.277456, -0.140573, -2.122122, -0.132832, 15.280731, -89.859268, -157.335358, 13.729655, 100.771872
1759229449.947699, 4.606743, 3.298013, 0.672172, -0.359278, -2.516535, -0.254161, 16.936615, -89.774567, -158.267700, 13.729655, 100.771872
1759229449.968328, 4.545392, 3.851822, 1.811214, -1.182808, -1.354377, 0.173616, 17.655319, -90.354187, -157.928833, 13.729655, 100.771872
1759229449.988305, 3.269881, 6.518813, 3.271677, -1.046561, -0.307992, 0.384838, 18.254440, -91.150345, -158.474167, 13.729655, 100.771872
1759229450.008200, 2.185158, 7.968651, 2.364573, -1.067535, 1.287835, 0.732504, 17.629898, -91.987701, -157.889465, 13.729655, 100.771872
1759229450.028324, 1.168370, 9.865458, 1.100285, -1.404796, 3.779789, 0.887444, 15.674301, -92.842651, -157.847870, 13.729655, 100.771872
1759229450.048049, -0.018256, 12.287791, -3.765630, -0.615412, 3.292795, 0.292848, 12.783630, -93.715454, -156.474869, 13.729655, 100.771872
1759229450.068299, -3.659088, 14.240861, -12.222699, 0.390619, -1.678733, -0.046626, 12.980301, -93.657379, -156.974319, 13.729655, 100.771872
1759229450.088291, -3.367894, 10.698939, -12.274024, 0.023679, -4.616522, -0.152074, 15.566696, -93.085022, -157.613968, 13.729655, 100.771872
1759229450.108234, -0.250643, 8.537274, -5.283105, -0.326983, -3.992655, -0.124159, 18.246857, -93.542374, -158.396866, 13.729655, 100.771872
1759229450.128313, 2.997840, 8.001721, 1.317559, 0.058727, -2.108489, -0.193081, 20.088959, -93.767609, -159.304169, 13.729655, 100.771872
1759229450.147669, 2.483984, 9.030180, 2.491466, 0.885730, -0.797689, 0.077521, 20.441086, -93.211166, -160.144562, 13.729655, 100.771872
1759229450.168280, 0.821211, 10.408343, -0.266505, 1.464256, -0.326799, 0.233310, 20.612686, -92.540985, -160.001999, 13.729655, 100.771872
1759229450.188297, 0.567575, 8.560169, -1.518373, 1.491112, -0.380501, 0.585520, 20.903946, -91.821762, -159.609024, 13.729655, 100.771872
1759229450.208206, 3.394978, 7.362020, 0.116867, 1.321825, -0.414373, 0.833474, 21.202057, -91.278412, -159.352310, 13.729655, 100.771872
1759229450.228316, 3.439121, 6.140080, 1.854608, 1.308501, -0.057939, 0.931513, 21.215515, -90.913788, -159.785721, 13.729655, 100.771872
1759229450.247663, 1.486650, 7.013664, 0.380080, 1.706507, -0.405907, 0.241698, 21.062622, -90.385040, -159.584152, 13.729655, 100.771872
1759229450.268314, -2.745700, 10.431088, -6.711097, 2.418053, -1.191965, -0.556821, 21.573135, -89.015091, -159.758942, 13.729655, 100.771872
1759229450.288301, -3.246986, 8.641123, -3.326145, 2.635201, 0.259032, -0.642573, 21.618057, -87.426208, -160.395630, 13.729655, 100.771872
1759229450.308182, -0.999430, 6.941688, 2.973150, 4.109941, 2.527705, -0.075483, 20.354568, -85.261353, -159.197083, 13.729655, 100.771872
1759229450.328318, 1.410933, 4.458303, 2.344522, 5.787162, 3.427352, 0.605959, 18.201874, -82.346451, -159.758301, 13.729655, 100.771872
1759229450.347441, 4.597017, 7.310844, -0.489465, 5.966856, 2.864756, 0.399944, 16.814682, -78.889282, -160.276932, 13.729655, 100.771872
1759229450.368277, 5.585224, 12.626122, -2.895637, 4.225936, 1.783608, -0.170704, 15.284241, -76.490692, -160.316513, 13.729655, 100.771872
1759229450.388302, 3.833715, 14.069526, -10.570251, 2.857153, -2.248576, -0.182146, 15.865341, -74.893860, -161.292786, 13.729655, 100.771872
1759229450.408163, 3.093907, 16.149938, -8.748862, 1.661839, -4.137740, 0.241163, 17.610321, -73.924454, -163.060776, 13.729655, 100.771872
1759229450.428285, 4.526687, 17.067216, -3.190124, 1.741916, -1.873008, -0.200971, 18.904312, -73.230667, -164.452942, 13.729655, 100.771872
1759229450.448279, 4.180725, 19.539229, -9.134628, 1.359162, -2.646595, -0.925907, 19.905487, -72.065598, -166.016541, 13.729655, 100.771872
1759229450.467433, 4.061015, 12.107627, -10.863690, 0.370287, -1.845776, -0.657721, 20.009033, -71.592514, -166.555817, 13.729655, 100.771872
1759229450.488286, 3.965396, 7.135619, -8.781932, -1.155932, 0.552626, -0.465835, 19.973236, -72.053192, -166.519821, 13.729655, 100.771872
1759229450.508149, 3.257910, 6.595726, -7.572112, -1.385404, 1.075576, -1.019106, 19.491806, -72.524597, -165.323639, 13.729655, 100.771872
1759229450.528279, 1.147421, 7.996634, -3.702932, -1.002497, 1.299995, -1.037492, 18.367493, -72.532227, -165.233292, 13.729655, 100.771872
1759229450.548277, -2.081758, 5.444564, -0.226252, -0.773884, 2.034068, -0.272673, 17.496414, -72.917068, -164.227936, 13.729655, 100.771872
1759229450.568343, -0.204106, 3.575142, -0.661398, -0.932703, 2.326723, -0.073857, 16.393860, -73.505447, -162.580582, 13.729655, 100.771872
1759229450.588285, 2.450016, 3.504213, -0.375740, -1.193490, 2.575480, 0.228115, 15.470184, -74.054184, -162.448578, 13.729655, 100.771872
1759229450.608174, 4.233996, 3.804985, -0.335188, -1.396840, 2.460687, 0.329145, 13.730316, -74.704941, -160.728516, 13.729655, 100.771872
1759229450.628289, 5.737555, 4.416105, -0.640449, -1.717191, 2.196389, 0.056257, 12.770844, -75.806458, -160.832993, 13.729655, 100.771872
1759229450.647664, 5.523872, 3.993229, -0.658106, -2.166906, 1.694820, -0.286078, 11.664276, -76.864746, -159.068695, 13.729655, 100.771872
1759229450.668274, 3.833566, 2.883367, -0.749984, -2.765037, 0.898539, -0.423427, 10.769318, -78.203964, -158.427567, 13.729655, 100.771872
1759229450.688301, 2.664896, 3.346046, 0.680402, -2.937865, 0.656235, -0.523702, 10.046524, -80.106598, -157.788773, 13.729655, 100.771872
1759229450.708170, 2.813786, 5.877316, 3.659986, -2.507944, 1.621556, -0.859121, 9.041931, -81.817810, -157.321609, 13.729655, 100.771872
1759229450.728311, 2.645294, 10.350283, 4.100070, -2.351196, 2.607720, -1.375679, 7.367035, -83.097488, -156.759094, 13.729655, 100.771872
1759229450.747637, 2.968511, 15.518018, 1.991078, -3.032899, 2.595270, -1.381124, 5.564560, -85.108459, -155.774902, 13.729655, 100.771872
1759229450.768278, 1.182137, 13.988722, -0.489315, -0.971513, 5.138649, 0.280805, 1.013168, -86.868622, -155.763214, 13.729655, 100.771872
1759229450.788300, 11.303924, 13.923031, -18.577808, 0.967359, 5.341504, 1.550998, -1.410889, -85.998901, -156.953064, 13.729655, 100.771872
1759229450.808194, 12.128128, 8.936208, -18.818126, 0.082979, -0.268688, 0.975034, -1.801605, -85.063751, -156.241501, 13.729655, 100.771872
1759229450.828290, 10.651953, 5.904999, -11.257087, -0.985395, -5.023185, -0.672298, 0.668930, -86.043533, -156.316208, 13.729655, 100.771872
1759229450.847638, 6.918046, 1.873912, -4.608689, -1.304163, -7.299960, -1.223005, 4.881073, -86.798386, -155.758392, 13.729655, 100.771872
1759229450.867562, 3.896264, 5.103989, 0.242563, -1.320380, -6.882385, -1.534357, 9.472534, -87.655991, -155.908279, 13.729655, 100.771872
1759229450.887768, 2.747346, 5.687576, 5.699696, -0.507533, -3.698054, -1.769445, 11.893784, -87.928116, -156.389099, 13.729655, 100.771872
1759229450.908129, -0.513407, 1.854160, 3.637391, -0.412799, -2.146719, -1.700811, 13.246811, -88.099030, -155.956436, 13.729655, 100.771872
1759229450.928309, -0.761206, 1.803732, 4.345027, 0.014686, -0.891540, -1.107563, 14.019638, -87.928482, -156.705536, 13.729655, 100.771872
1759229450.948286, -1.578826, 7.419781, 7.460781, 0.794610, 1.258349, -0.095664, 13.412552, -87.549591, -156.055023, 13.729655, 100.771872
1759229450.968273, -1.848773, 17.725771, 6.127361, -0.331166, 2.256141, 1.206279, 11.867691, -87.510361, -155.588654, 13.729655, 100.771872
1759229450.988286, -0.681150, 21.106534, 0.069581, -2.595961, 3.799711, 1.410276, 9.926849, -89.283493, -156.228180, 13.729655, 100.771872
1759229451.008122, 1.161337, 20.979940, -4.191200, -2.731858, 0.777469, 0.392828, 7.421844, -92.124542, -155.582504, 13.729655, 100.771872
1759229451.028352, -1.609203, 31.352819, -27.109845, 0.179420, -6.357385, -1.270534, 11.615326, -91.472275, -156.601868, 13.729655, 100.771872
1759229451.047625, 0.958878, 20.412066, 2.143409, 0.302500, -0.834183, -0.910291, 13.122314, -91.141830, -156.731384, 13.729655, 100.771872
1759229451.068273, 3.312827, 12.413636, 9.178471, 1.520284, 4.225618, 0.189006, 10.896347, -90.501297, -155.449677, 13.729655, 100.771872
1759229451.088280, 4.639364, 9.105598, 2.730587, 1.358473, 3.952433, 0.455606, 8.816025, -89.705612, -156.092102, 13.729655, 100.771872
1759229451.108134, 4.175637, 8.849568, -1.031153, 0.304951, 0.690284, 0.396702, 7.900192, -89.388214, -155.412018, 13.729655, 100.771872
1759229451.128279, 3.365350, 7.461529, 0.200664, -0.447660, -1.615250, 0.434686, 8.817154, -89.596649, -155.547729, 13.729655, 100.771872
1759229451.147629, 3.876512, 5.162647, 0.285359, -1.086231, -3.283033, 0.427057, 10.927811, -90.317642, -155.663559, 13.729655, 100.771872
1759229451.168294, 4.890755, 4.788104, 1.050306, -1.468883, -3.615957, 0.221425, 13.359879, -91.318726, -156.686920, 13.729655, 100.771872
1759229451.188272, 4.288314, 5.418228, 2.661454, -2.174764, -1.716736, 0.479755, 14.485168, -92.396698, -157.044113, 13.729655, 100.771872
1759229451.208149, 2.713977, 7.921815, 1.353322, -2.806243, 1.043712, 0.545349, 13.646744, -94.256134, -156.480759, 13.729655, 100.771872
1759229451.228278, 1.764826, 7.788338, 1.243937, -2.611358, 2.695637, 0.616490, 11.781830, -96.261719, -156.339630, 13.729655, 100.771872
1759229451.247622, -0.744447, 10.324845, -5.812074, 0.503813, 1.491600, 0.484288, 10.735046, -96.240952, -156.122299, 13.729655, 100.771872
1759229451.268268, -1.745822, 11.321731, -12.914922, 1.305880, -3.557816, 0.521990, 12.710678, -95.603058, -156.305817, 13.729655, 100.771872
1759229451.288295, -0.040552, 10.840197, -7.816021, 0.853978, -4.094118, 0.169896, 15.394241, -94.995102, -157.438904, 13.729655, 100.771872
1759229451.308131, 1.610250, 7.906851, 0.733823, 0.719122, -2.873406, -0.064768, 17.298889, -94.179138, -157.360153, 13.729655, 100.771872
1759229451.328277, 2.845209, 5.738452, 2.966865, 0.493627, -1.952784, -0.075139, 18.441422, -94.137360, -157.583954, 13.728680, 100.772360
1759229451.347660, -1.072902, 7.423821, -1.282694, 1.752560, -2.442022, -0.384435, 18.992233, -93.640564, -158.090912, 13.728680, 100.772360
1759229451.368313, -3.369240, 8.197597, -1.459416, 1.621310, -1.197424, -0.271062, 20.892700, -92.401581, -158.817184, 13.728680, 100.772360
1759229451.388317, -1.773954, 8.146421, 3.438223, 1.955477, -0.086150, -0.634128, 20.752823, -91.239166, -158.974777, 13.728680, 100.772360
1759229451.408151, -3.441066, 9.510218, -2.115277, 3.243780, -1.100336, -1.253900, 21.066940, -89.487701, -159.224945, 13.728680, 100.772360
1759229451.428313, -1.630751, 7.468862, -3.278410, 2.942429, 0.296647, -1.563630, 21.416794, -87.391479, -159.284210, 13.728680, 100.772360
1759229451.448299, -0.424672, 5.926098, 0.873285, 3.518434, 1.346370, -1.154218, 20.318039, -85.205978, -159.605240, 13.728680, 100.772360
1759229451.468322, 1.911321, 4.691438, -1.057489, 4.031608, 2.061991, -1.002831, 19.050827, -82.933090, -159.137497, 13.728680, 100.772360
1759229451.488273, 4.032285, 6.918195, -1.495628, 4.017942, 2.080959, -0.738856, 17.558182, -80.594879, -159.573181, 13.728680, 100.772360
1759229451.508114, 4.964527, 15.218144, -5.955128, 3.285162, 0.566810, -1.060749, 16.706009, -78.454529, -159.156052, 13.728680, 100.772360
1759229451.528270, 3.601328, 22.144270, -5.529259, 2.044809, -0.665770, -1.164879, 16.709488, -76.984268, -160.164871, 13.728680, 100.772360
1759229451.547667, 0.167295, 22.733992, -5.442918, 1.953168, -0.671341, -1.677615, 17.019150, -76.347824, -160.171371, 13.728680, 100.772360
1759229451.568286, -0.439186, 16.207099, -5.743391, 1.534885, 0.234572, -1.282989, 16.224091, -74.513794, -161.133133, 13.728680, 100.772360
1759229451.588281, 0.480187, 11.025897, -9.438691, 0.276493, -0.046056, -0.463115, 16.699249, -74.283081, -162.153503, 13.728680, 100.772360
1759229451.608125, 2.079514, 9.029732, -7.525125, -0.926419, 0.430273, -0.473802, 15.974991, -74.869431, -160.166885, 13.728680, 100.772360
1759229451.628314, 2.101211, 8.672696, -4.425233, -1.325038, 0.301941, -0.128217, 15.945328, -75.411911, -160.228729, 13.728680, 100.772360
1759229451.647704, 1.857601, 9.429114, -2.693028, -1.246148, 0.117857, 0.072682, 15.853027, -75.592957, -159.142395, 13.728680, 100.772360
1759229451.668265, 2.336292, 9.707440, -2.204162, -1.512375, 0.661124, -0.035469, 15.822464, -76.878616, -158.795853, 13.728680, 100.772360
1759229451.688267, 1.486799, 7.132476, -1.920299, -1.894537, 1.393942, 0.134237, 15.068054, -77.924362, -158.115707, 13.728680, 100.772360
1759229451.708107, 0.794725, 5.029918, -1.002722, -2.157401, 1.768173, 0.467928, 13.798767, -79.196564, -156.900650, 13.728680, 100.772360
1759229451.728295, 0.884658, 3.371036, -0.799813, -2.357984, 1.731271, 0.758241, 13.271820, -80.668549, -157.066544, 13.728680, 100.772360
1759229451.747654, 1.745074, 2.306664, -0.224456, -2.438769, 1.984735, 0.788707, 12.641663, -81.483154, -156.041779, 13.728680, 100.772360
1759229451.768264, 2.352602, 2.323722, 0.913837, -2.448556, 2.693369, 0.544094, 10.404144, -83.934433, -154.900497, 13.728680, 100.772360
1759229451.788291, 2.174384, 4.277840, 2.565686, -2.287519, 3.508624, 0.271627, 8.196365, -85.722427, -154.532425, 13.728680, 100.772360
1759229451.808135, 2.189348, 5.892579, 3.150919, -2.160698, 4.933880, -0.387748, 6.670380, -86.577682, -153.547668, 13.728680, 100.772360
1759229451.828008, 1.580323, 8.247875, 2.554015, -2.349892, 6.031860, -0.426940, 0.805984, -89.194977, -154.032059, 13.728680, 100.772360
1759229451.848289, 0.472256, 10.183886, 0.356137, -2.433580, 6.199481, 0.675695, -4.053787, -91.236511, -155.255722, 13.728680, 100.772360
1759229451.868263, 3.946393, 8.611794, 0.407463, 2.172631, 6.769923, 2.963947, -8.518127, -89.136841, -156.422165, 13.728680, 100.772360
1759229451.888296, 11.373056, 11.348217, -16.207997, 0.854487, 2.792206, 2.036465, -10.012726, -88.054932, -156.850739, 13.728680, 100.772360
1759229451.908104, 15.793501, 13.424588, -13.772346, -0.892193, -1.361042, -1.004248, -9.562790, -88.563461, -156.724442, 13.728680, 100.772360
1759229451.928291, 10.769269, 6.101324, -8.655189, -2.057639, -5.333417, -1.524889, -6.595627, -90.480530, -155.350845, 13.728680, 100.772360
1759229451.947637, 6.104167, 4.491223, -1.336264, -1.578492, -6.122671, -1.252524, -4.593750, -91.107147, -154.793762, 13.728680, 100.772360
1759229451.967649, 6.592434, 6.658873, 6.391321, -0.304329, -4.074075, -1.001621, -1.130051, -92.479019, -153.862259, 13.728680, 100.772360
1759229451.987444, 3.775207, 6.457162, 5.780501, 0.307333, -2.673593, -0.688360, 1.113892, -92.327972, -153.545609, 13.728680, 100.772360
1759229452.008092, 2.051532, 4.987870, 2.878579, 0.529000, -1.263223, -0.577491, 2.617783, -92.183502, -153.115509, 13.728680, 100.772360
1759229452.028289, -0.239570, 7.054066, -1.375618, -0.577786, 0.375210, 0.099140, 2.848572, -92.822784, -152.986755, 13.728680, 100.772360
1759229452.047655, 1.018733, 12.497284, -1.863138, -1.263127, -0.102866, 0.245297, 2.636810, -92.994217, -152.833466, 13.728680, 100.772360
1759229452.068262, 5.743989, 17.841441, 0.936731, -1.004781, -1.322042, -0.190701, 3.062820, -94.483826, -153.181290, 13.728680, 100.772360
1759229452.088301, 8.723573, 15.843330, 0.890194, 0.424145, -0.104265, 0.171785, 3.228378, -94.269272, -153.855286, 13.728680, 100.772360
1759229452.108092, 7.587375, 8.573038, -6.297199, 0.523575, -2.574340, 0.367903, 4.052292, -94.367203, -152.869019, 13.728680, 100.772360
1759229452.128363, 1.460912, 11.436952, -0.352696, 0.084137, -4.644672, 0.021688, 8.244843, -93.931396, -152.787857, 13.728680, 100.772360
1759229452.147331, 1.753603, 18.576012, 6.109554, -0.355065, -4.070844, -0.568379, 9.544296, -93.892426, -152.912979, 13.728680, 100.772360
1759229452.168262, -0.580893, 21.155914, 5.281609, -1.091498, -1.789146, -1.015816, 12.397385, -94.444519, -153.743790, 13.728680, 100.772360
1759229452.188316, -4.505439, 18.681956, -0.356886, -1.490101, -1.080978, -1.344385, 13.540024, -95.427521, -154.789429, 13.728680, 100.772360
1759229452.208105, -6.673239, 12.056601, -2.186804, -0.443167, -0.786049, -1.222132, 13.791489, -95.520020, -154.131363, 13.728680, 100.772360
1759229452.228290, -5.105485, 10.643872, 4.311957, 0.138125, 0.669452, -0.587252, 14.528687, -95.632736, -154.831467, 13.728680, 100.772360
1759229452.247675, -1.908328, 9.026140, -1.216105, -0.519943, 0.657757, 0.297848, 13.764557, -95.786957, -153.959686, 13.728680, 100.772360
1759229452.268304, 0.010175, 7.368156, 0.259621, -1.200155, 0.093666, 1.583472, 13.329712, -96.907425, -153.498627, 13.728680, 100.772360
1759229452.288285, 1.484854, 6.645705, 1.996315, -1.591857, 0.229854, 1.936045, 13.084671, -97.618713, -153.750626, 13.728680, 100.772360
1759229452.308130, 5.671864, 7.326856, 0.390704, -1.110444, 1.055987, 1.296796, 12.386444, -98.925583, -153.660507, 13.728680, 100.772360
1759229452.328292, 8.505401, 7.080253, -2.170493, 0.064368, 1.000414, 0.891637, 11.599823, -99.456924, -153.997757, 13.728680, 100.772360
1759229452.348356, 7.017555, 8.009951, -3.667019, -0.048034, -0.380742, 0.367874, 11.622269, -99.423004, -154.123947, 13.728680, 100.772360
1759229452.368302, 1.712303, 8.611046, -4.743362, -0.468637, -1.668964, 0.220160, 12.235825, -99.317398, -154.071915, 13.728680, 100.772360
1759229452.388344, -0.873135, 7.143699, -3.994875, -0.461510, -2.506852, 0.126583, 13.430573, -100.029602, -154.284058, 13.728680, 100.772360
1759229452.408079, -1.477222, 5.776909, -2.006191, -0.018735, -2.807583, -0.169952, 15.280670, -100.112808, -154.725555, 13.728680, 100.772360
1759229452.428265, -0.931494, 6.138583, 0.205452, 0.326702, -2.548662, -0.428360, 17.049072, -100.343063, -155.774521, 13.728680, 100.772360
1759229452.447649, -2.510171, 6.439954, -1.376516, 0.604469, -3.452887, -0.739590, 18.908417, -99.934052, -155.821075, 13.728680, 100.772360
1759229452.468345, -5.072715, 9.487024, -8.184578, 1.420334, -4.744491, -0.826353, 21.832199, -99.091965, -157.318970, 13.728680, 100.772360
1759229452.488325, -1.327435, 9.170241, -2.917784, 1.006055, -0.432146, -0.279203, 23.770355, -98.193253, -157.966553, 13.728680, 100.772360
1759229452.508100, 0.754922, 9.025841, 4.574721, 0.967493, 1.807710, 0.084582, 23.637421, -97.727859, -156.880981, 13.728680, 100.772360
1759229452.528326, -1.433678, 10.099192, 0.915184, 2.219615, -0.617612, -0.304706, 23.052521, -97.197067, -156.558044, 13.728680, 100.772360
1759229452.548339, -2.919879, 9.096769, -0.702848, 2.923673, -1.895630, -0.653953, 23.920074, -95.144882, -156.450226, 13.728680, 100.772360
1759229452.568270, -1.852663, 7.158064, -4.708048, 2.459070, 1.151847, -0.735481, 24.793533, -93.494934, -156.680664, 13.728680, 100.772360
1759229452.588353, -0.800860, 6.093243, -1.149965, 3.300197, 3.523412, -0.519551, 23.107803, -91.297745, -154.745300, 13.728680, 100.772360
1759229452.608077, 0.860566, 6.190807, -0.151284, 4.407344, 2.968194, -0.500030, 21.107285, -88.570496, -153.634460, 13.728680, 100.772360
1759229452.627909, 2.494459, 8.280047, -2.804957, 4.697174, 1.383427, -0.827058, 19.845840, -85.629227, -153.019241, 13.728680, 100.772360
1759229452.647407, 3.228581, 11.287015, -3.394529, 3.623213, 1.471657, -1.249472, 18.883545, -82.599945, -153.092102, 13.728680, 100.772360
1759229452.668257, 3.879355, 16.613665, -5.617545, 2.901417, 0.322082, -1.016896, 17.867813, -79.378799, -153.585083, 13.728680, 100.772360
1759229452.688309, 5.114613, 20.087053, -7.289746, 2.199034, -1.627010, -0.234627, 18.364502, -77.828415, -153.607727, 13.728680, 100.772360
1759229452.708074, 6.146813, 18.855984, -3.839701, 1.958614, -0.705389, -0.705843, 19.480148, -76.442047, -154.651810, 13.728680, 100.772360
1759229452.728301, 4.523994, 15.056685, -5.434838, 1.630937, -0.818241, -1.118670, 19.522507, -74.907227, -156.086334, 13.728680, 100.772360
1759229452.747641, 4.336049, 13.525743, -10.486304, 0.323214, -0.990421, -1.089064, 19.759384, -73.605942, -155.730011, 13.728680, 100.772360
1759229452.768266, 2.613121, 10.948834, -11.082161, -0.914263, -0.680192, -0.863079, 20.106979, -73.648071, -156.598404, 13.728680, 100.772360
1759229452.788400, 2.312948, 7.619098, -4.258836, -0.848855, -0.226843, -0.775082, 19.814804, -73.668808, -155.705582, 13.728680, 100.772360
1759229452.808053, 1.195156, 3.859154, -1.127669, -0.442189, 0.184736, -0.181084, 19.940521, -73.696838, -155.857285, 13.728680, 100.772360
1759229452.828343, 0.816423, 1.766472, 0.059406, -0.341787, 1.356973, 0.451407, 20.081055, -74.005692, -155.998428, 13.728680, 100.772360
1759229452.847617, 1.744326, 2.640505, -1.615936, -0.684364, 1.843289, 0.639423, 19.013977, -74.581406, -155.132599, 13.728680, 100.772360
1759229452.868346, 1.524658, 4.148703, -3.593697, -1.193549, 1.580123, 0.871626, 18.259521, -75.471939, -154.293167, 13.728680, 100.772360
1759229452.888331, 1.834407, 4.759972, -3.787627, -1.793312, 1.388381, 1.029745, 17.197083, -76.403122, -152.863892, 13.728680, 100.772360
1759229452.908055, 3.126528, 5.271882, -3.098546, -2.464820, 1.655717, 0.911027, 16.528152, -78.456253, -151.999634, 13.728680, 100.772360
1759229452.928302, 3.969736, 5.415086, -2.150592, -3.047371, 2.108578, 0.633816, 15.383591, -80.755676, -150.933365, 13.728680, 100.772360
1759229452.947630, 3.297265, 5.396231, 0.406266, -3.116216, 3.089346, 0.504240, 13.362015, -83.305481, -149.515640, 13.728680, 100.772360
1759229452.968307, 3.047519, 7.456143, 2.296638, -3.026771, 4.411977, 0.183753, 10.434158, -85.693176, -149.061432, 13.728680, 100.772360
1759229452.988318, 2.847304, 10.265289, 2.026692, -3.111971, 5.602950, -0.124384, 6.591690, -88.142929, -147.805313, 13.728680, 100.772360
1759229453.008043, 3.482366, 13.380295, -0.915333, -0.949831, 4.712354, 0.526301, 1.125916, -90.489334, -147.881012, 13.728680, 100.772360
1759229453.027877, 4.916044, 14.516494, -8.749909, 2.068640, 0.957558, 1.187196, -1.029480, -89.557877, -148.304230, 13.728680, 100.772360
1759229453.047373, 9.933543, 12.438177, -17.188572, -0.200778, -0.932320, 0.253562, -0.447327, -88.517151, -148.409424, 13.728680, 100.772360
1759229453.068273, 8.075343, 7.581090, -12.747777, -2.459791, -2.910691, -0.225202, 1.609909, -89.702545, -148.610687, 13.728680, 100.772360
1759229453.088401, 5.945252, 5.661389, -6.921787, -3.002776, -3.856865, -0.315539, 3.915115, -91.893066, -146.776306, 13.728680, 100.772360
1759229453.108056, 4.625448, 6.843825, 0.615011, -1.706500, -2.925792, -0.833745, 6.779266, -93.740021, -147.251587, 13.728680, 100.772360
1759229453.128359, 2.922422, 6.772897, 4.037522, -0.165608, -2.562642, -0.852012, 9.253052, -94.600632, -147.685745, 13.728680, 100.772360
1759229453.147669, 1.442806, 5.325602, 2.313697, 0.654121, -3.060910, -0.559406, 11.430130, -94.364868, -147.563797, 13.728680, 100.772360
1759229453.168252, 0.987459, 5.622334, 0.926107, 0.801712, -3.277972, -0.716550, 14.239441, -93.724136, -147.928238, 13.728680, 100.772360
1759229453.187553, 0.180463, 6.252907, 0.405668, 0.391108, -2.147440, -0.827525, 16.456543, -93.232422, -147.964188, 13.728680, 100.772360
1759229453.208109, -1.556979, 6.558915, -1.623418, -0.682585, -0.438400, -0.883423, 17.405441, -93.203323, -148.336105, 13.728680, 100.772360
1759229453.228323, -3.000982, 6.002862, -3.054403, -1.661190, 0.406999, -0.431558, 17.708176, -94.124771, -148.733810, 13.728680, 100.772360
1759229453.247635, -2.876633, 6.041020, -5.554249, -1.690750, 0.199974, -0.439114, 16.980911, -96.034225, -147.789307, 13.728680, 100.772360
1759229453.268273, -2.827403, 7.200711, -6.706009, -1.653744, -0.837309, -0.340638, 17.333527, -97.005783, -148.205765, 13.728680, 100.772360
1759229453.288430, -0.274735, 6.947973, -0.562488, -1.833348, -0.671716, -0.087262, 18.239471, -98.367950, -147.322815, 13.728680, 100.772360
1759229453.308047, 2.612373, 8.929774, 4.353856, -1.022117, -0.397624, 0.516075, 18.720245, -100.245865, -148.182602, 13.728680, 100.772360
1759229453.328321, 4.732888, 15.744420, 6.741773, -1.235364, 3.399513, 1.505314, 17.729248, -100.797348, -147.918762, 13.728680, 100.772360
1759229453.347419, 11.758074, 20.819529, 1.534384, 0.204711, 5.912668, 0.755575, 11.943222, -102.257355, -146.591919, 13.728680, 100.772360
1759229453.368250, 10.348188, 13.042862, -14.323012, 1.744269, -2.839053, -0.068479, 11.803772, -100.651810, -146.238235, 13.728680, 100.772360
1759229453.388359, 2.665046, 18.847305, -6.830957, -0.558470, -3.972701, -0.245681, 15.432022, -100.058212, -146.208084, 13.728680, 100.772360
1759229453.408045, 3.534141, 17.968035, 4.951957, -0.927978, -2.174745, -0.595297, 17.758865, -100.621750, -146.795685, 13.728680, 100.772360
1759229453.428338, 2.391508, 14.122348, 6.948272, -0.470200, -0.238160, -0.615775, 19.295258, -101.489563, -147.648071, 13.728680, 100.772360
1759229453.447633, -0.121805, 13.847165, 4.953154, -0.238083, 0.746042, -0.261989, 18.668350, -101.415802, -147.389252, 13.728680, 100.772360
1759229453.468293, -2.548478, 12.573898, -1.896956, -0.316144, 1.000582, 0.306952, 18.170380, -101.643814, -147.610291, 13.728680, 100.772360
1759229453.488070, -1.133654, 11.810447, 1.274463, -0.100706, 1.188566, 0.430199, 17.255081, -101.611511, -146.836731, 13.728680, 100.772360
1759229453.508077, 2.509572, 10.355371, 0.786046, -0.291888, 0.346889, 0.226405, 16.606659, -101.676758, -146.724594, 13.728680, 100.772360
1759229453.528317, 2.955043, 7.975535, -0.912789, -0.888423, -0.890755, 0.268868, 16.846283, -102.127136, -147.097717, 13.728680, 100.772360
1759229453.547635, 4.269011, 6.285528, -1.436521, -1.249748, -1.514832, 0.154187, 17.872589, -103.156235, -147.258545, 13.728680, 100.772360
1759229453.568299, 6.235848, 4.509628, -1.617134, -0.780714, -1.309487, 0.243075, 18.901398, -104.188889, -148.303680, 13.728680, 100.772360
1759229453.588272, 5.931036, 4.568735, -0.898873, 0.004425, -0.573054, 0.532236, 19.700684, -104.548553, -148.334427, 13.728680, 100.772360
1759229453.608069, 2.767398, 6.440253, -1.013047, 0.069352, -0.249549, 0.730441, 20.271286, -104.274933, -148.109116, 13.728680, 100.772360
1759229453.628274, 0.516549, 7.542035, -3.120692, -0.678505, -1.219746, 0.204265, 20.472794, -104.651657, -149.085632, 13.728680, 100.772360
1759229453.647651, -1.443105, 8.868871, -4.691289, -0.624472, -2.636440, -0.530157, 22.094284, -105.243546, -149.571335, 13.728680, 100.772360
1759229453.668260, -3.037643, 7.542633, -1.628506, -0.490088, -3.514469, -0.649167, 24.937393, -105.200272, -151.208176, 13.728680, 100.772360
1759229453.688381, -2.674024, 7.676110, 2.650980, -0.430981, -1.935385, -0.227822, 26.997208, -105.644897, -151.601227, 13.728680, 100.772360
1759229453.708006, -1.925836, 8.492233, 2.678363, -0.166336, -0.727370, -0.121000, 28.184326, -106.081604, -151.853470, 13.728680, 100.772360
1759229453.728287, -1.824382, 10.337415, -4.481497, 0.519989, -1.584334, -0.278101, 29.050186, -105.455399, -152.718964, 13.728680, 100.772360
1759229453.747649, -0.845153, 9.413402, -4.680664, 0.415874, -1.070518, -0.273773, 30.630234, -105.013107, -153.073776, 13.728680, 100.772360
1759229453.768246, -0.640599, 8.186075, 1.837999, 0.443161, 0.029443, -0.250934, 31.108047, -104.216522, -152.860672, 13.728680, 100.772360
1759229453.788275, -1.715445, 9.237578, -1.184681, 1.486872, -0.359025, -0.346740, 31.378845, -103.968414, -152.220657, 13.728680, 100.772360
1759229453.808052, -2.060959, 10.025869, -2.062605, 2.086796, 0.036524, -0.693804, 31.984406, -101.708008, -151.616577, 13.728680, 100.772360
1759229453.828289, -1.613991, 9.333945, -2.342577, 2.538866, 1.328869, -1.216068, 31.723297, -99.510284, -150.773788, 13.728680, 100.772360
1759229453.847624, -0.956184, 8.608801, -2.326266, 3.616350, 1.572286, -1.277473, 31.239838, -96.451584, -148.655365, 13.728680, 100.772360
1759229453.868245, 3.576039, 5.743839, -1.020678, 4.176888, 2.829925, -1.141717, 30.007050, -92.633560, -147.389069, 13.728680, 100.772360
1759229453.888339, 4.407875, 6.828113, -2.038363, 4.748237, 2.220252, -0.639493, 27.789795, -87.832352, -145.502808, 13.728680, 100.772360
1759229453.908075, 5.524770, 9.570372, -3.123386, 4.600348, 1.023160, -0.816511, 26.593124, -83.851456, -145.222443, 13.728680, 100.772360
1759229453.928258, 6.272659, 20.022708, -5.378724, 3.545810, 1.231925, -1.116210, 25.842651, -79.824860, -145.816574, 13.728680, 100.772360
1759229453.947644, 4.954651, 21.785439, -5.439925, 2.837657, 0.296817, -0.996690, 25.169830, -76.358154, -145.610687, 13.728680, 100.772360
1759229453.968244, 0.431106, 14.877120, -3.117849, 2.304973, -1.173303, -0.899055, 25.530472, -73.448929, -147.525177, 13.728680, 100.772360
1759229453.988268, 1.134552, 11.266066, -2.409465, 2.055873, -0.210518, -0.504680, 25.503952, -71.738281, -148.368439, 13.728680, 100.772360
1759229454.008011, 3.479822, 10.020632, -11.195137, 1.046551, -0.201639, -0.248338, 25.852448, -69.873444, -149.164230, 13.728680, 100.772360
1759229454.027958, 2.873940, 8.916755, -11.494413, -0.498626, -1.462790, -0.289778, 26.372971, -69.121994, -149.227081, 13.728680, 100.772360
1759229454.047597, 3.002778, 8.498219, -4.705953, -1.297597, -1.540487, -0.277991, 27.567291, -69.914902, -149.844574, 13.728680, 100.772360
1759229454.068244, 2.479046, 8.009053, -1.530194, -1.339367, -0.330914, -0.229950, 28.406586, -70.888840, -149.997345, 13.728680, 100.772360
1759229454.088279, 1.577330, 5.346552, -1.130213, -1.093792, 0.801654, 0.067135, 28.250519, -71.637039, -148.682327, 13.728680, 100.772360
1759229454.107999, 0.912789, 3.333627, -2.902670, -1.163773, 1.193931, 0.584008, 27.451309, -72.179733, -148.069641, 13.728680, 100.772360
1759229454.128336, 1.119439, 3.188628, -3.183390, -1.669815, 0.886690, 0.986676, 27.267593, -73.611938, -147.804535, 13.728680, 100.772360
1759229454.147597, 1.325939, 2.704101, -1.424849, -1.853787, 1.096754, 0.757468, 26.834595, -75.295273, -145.946365, 13.728680, 100.772360
1759229454.167682, 1.014393, 2.968511, -1.041627, -2.049132, 1.406031, 0.798319, 25.854645, -77.672134, -144.972855, 13.728680, 100.772360
1759229454.187552, 1.060631, 3.347692, -0.553509, -1.959141, 1.963655, 0.960515, 24.913391, -79.324905, -143.588501, 13.728680, 100.772360
1759229454.207999, 2.840421, 7.550863, 0.873435, -1.650851, 2.833429, 1.175088, 22.708328, -80.891830, -142.285446, 13.728680, 100.772360
1759229454.228305, 4.305822, 10.947936, -0.785747, -0.941751, 3.509666, 1.019199, 19.726471, -82.715027, -141.470764, 13.728680, 100.772360
1759229454.247643, 4.249558, 13.496414, -5.459977, 0.410375, 2.548894, 0.977203, 17.041672, -83.125549, -139.773575, 13.728680, 100.772360
1759229454.267889, 3.848380, 14.208689, -12.213720, 1.720097, 0.551510, 0.485233, 15.623199, -81.882065, -139.496613, 13.728680, 100.772360
1759229454.287693, 2.510620, 10.085126, -15.421502, 1.620814, -0.201736, 0.363725, 15.891754, -80.016647, -139.676895, 13.728680, 100.772360
1759229454.308000, 2.609081, 5.166687, -13.769353, -0.123857, -0.128101, 0.581500, 16.306564, -79.300842, -139.373917, 13.728680, 100.772360
1759229454.328248, 5.141398, 5.021988, -8.278551, -1.494126, -1.407166, 0.334155, 17.875061, -80.326614, -139.468155, 13.728680, 100.772360
1759229454.347339, 4.817134, 7.686435, -1.930175, -0.841170, -1.568357, 0.020083, 19.001221, -80.930313, -139.339264, 13.728680, 100.772360
1759229454.368241, 2.592172, 8.562563, -2.169446, -0.000809, -0.850972, 0.093733, 20.737427, -81.259888, -140.127701, 13.728680, 100.772360
1759229454.388267, 0.970998, 7.597550, -3.581426, 0.246147, -0.927571, 0.083657, 21.779663, -80.879181, -139.935822, 13.728680, 100.772360
1759229454.407975, 0.471209, 5.488258, -3.749619, 0.402800, -1.138727, -0.091709, 22.788803, -80.011963, -140.266296, 13.728680, 100.772360
1759229454.428254, 0.268300, 4.017021, -3.698892, 0.455899, -0.422214, -0.092944, 24.120911, -79.389557, -141.035873, 13.728680, 100.772360
1759229454.447620, -0.669928, 3.725976, -4.164115, 0.260353, 0.684369, 0.154579, 23.556747, -78.532486, -140.661880, 13.728680, 100.772360
1759229454.468240, -0.485125, 3.355623, -4.696975, -0.207656, 1.178208, 0.192629, 22.776367, -78.785553, -140.284256, 13.728680, 100.772360
1759229454.488246, 0.096367, 3.414132, -4.550031, -0.593199, 1.059077, 0.160663, 22.075958, -78.770538, -139.092712, 13.728680, 100.772360
1759229454.507987, 1.046116, 4.321684, -5.179855, -0.836111, 0.584944, -0.154193, 21.442627, -78.943420, -138.431213, 13.728680, 100.772360
1759229454.528243, 3.694702, 3.732111, -5.831377, -0.957301, -0.167342, -0.362311, 21.760254, -79.435623, -138.300446, 13.728680, 100.772360
1759229454.547630, 5.690269, 4.349367, -3.734805, -1.016667, 0.554397, -0.198409, 21.400818, -79.847168, -137.166534, 13.728680, 100.772360
1759229454.568240, 6.652589, 4.312256, -4.475960, -1.016118, 1.229481, -0.207899, 20.731750, -80.358673, -136.731201, 13.728680, 100.772360
1759229454.588264, 6.992715, 8.458864, -6.417957, -0.612911, 0.443706, -0.168023, 19.661469, -80.801804, -135.379349, 13.728680, 100.772360
1759229454.607965, 11.995549, 26.149171, -5.860557, -0.681454, 0.273235, -0.639710, 19.933960, -80.562927, -134.363647, 13.728680, 100.772360
1759229454.628285, 10.712107, 41.261971, 2.060659, -0.528535, -1.047719, -1.110951, 20.725296, -80.330856, -134.863373, 13.728680, 100.772360
1759229454.647678, 4.631583, 27.460745, 13.469928, -1.149446, -4.148049, -0.978635, 23.981567, -80.574615, -135.110916, 13.728680, 100.772360
1759229454.667536, -0.947505, 6.925976, 8.976461, -0.055265, -4.838220, -1.058234, 28.713638, -80.777664, -137.432693, 13.728680, 100.772360
1759229454.688257, 1.074548, 5.150077, 3.889381, -0.282477, -4.783886, -0.196866, 33.698273, -80.322678, -140.629105, 13.728680, 100.772360
1759229454.707959, 1.649904, 7.558195, 3.641132, -1.319363, -3.903499, 0.949832, 37.864578, -81.145493, -142.194565, 13.728680, 100.772360
1759229454.728262, 3.836858, 11.755979, 8.060529, -1.696966, -0.665962, 1.284296, 39.882095, -83.499283, -143.751282, 13.728680, 100.772360
1759229454.747638, 5.307197, 13.536218, 7.054665, -1.578354, 0.924602, 1.076447, 39.319305, -85.677155, -142.267532, 13.728680, 100.772360
1759229454.768237, 4.737975, 11.081263, 3.699939, -1.696745, 0.149457, 1.072419, 38.920715, -87.989258, -142.343658, 13.728680, 100.772360
1759229454.788269, 4.125359, 8.306683, 1.590199, -1.816679, -1.486444, 1.101877, 39.844849, -90.724792, -143.139832, 13.728680, 100.772360
1759229454.808024, 2.978387, 6.096535, -2.533963, -2.070365, -1.628378, 0.798109, 40.624146, -93.369659, -144.913803, 13.728680, 100.772360
1759229454.827654, -2.114828, 8.378509, -10.252121, -0.737160, -2.039204, 0.519166, 42.321396, -94.998688, -146.426270, 13.728680, 100.772360
1759229454.847689, -0.944064, 7.989301, -2.660557, -0.990058, -2.714032, -0.086559, 44.606506, -95.517715, -147.729660, 13.728680, 100.772360
1759229454.867539, -0.569970, 7.546673, 0.533608, -1.690963, -2.942853, -1.210611, 46.931549, -96.120651, -150.981598, 13.728680, 100.772360
1759229454.887313, -1.030255, 6.030246, 2.192490, -2.040848, -2.636371, -1.446360, 49.539688, -96.362640, -153.262360, 13.728680, 100.772360
1759229454.907953, -2.509273, 7.855226, 1.063325, -2.041723, -2.360101, -0.878348, 50.891556, -97.377487, -154.995819, 13.728680, 100.772360
1759229454.928252, -5.473444, 13.847015, -8.284985, -1.655021, -4.807274, -0.323339, 53.617935, -98.176636, -159.582642, 13.728680, 100.772360
1759229454.947628, -2.751387, 14.463821, -5.727080, -1.849069, -5.656940, 0.289328, 56.532669, -98.384232, -164.694733, 13.728680, 100.772360
1759229454.968237, 2.650980, 13.426833, 0.324863, -1.406850, -2.892091, 0.054380, 57.944412, -99.394669, -169.417984, 13.728680, 100.772360
1759229454.988274, 0.461033, 10.845584, 2.043750, -0.283525, 0.237091, 0.346275, 58.111801, -99.796600, -169.832840, 13.728680, 100.772360
1759229455.007957, -1.203984, 8.484751, 3.707870, 0.934856, 1.468925, 1.234016, 58.029282, -100.538803, -168.943008, 13.728680, 100.772360
1759229455.028252, -0.929698, 8.504653, 3.781791, 1.259829, 1.962984, 1.340884, 57.174423, -101.315903, -167.056976, 13.728680, 100.772360
1759229455.047618, -0.552312, 9.570073, 2.418742, 0.244709, 2.229947, 0.823197, 56.101288, -101.638901, -164.228119, 13.728680, 100.772360
1759229455.068235, -0.640898, 10.845883, 1.348384, -0.321793, 2.569055, 0.449761, 54.817215, -102.106552, -161.840744, 13.728680, 100.772360
1759229455.088254, -0.790236, 11.247361, 0.110433, -0.660204, 2.270872, 0.283183, 53.509964, -102.847961, -159.545258, 13.728680, 100.772360
1759229455.107988, -0.453552, 9.624691, -0.306757, -1.006006, 1.756712, 0.547061, 52.178772, -103.127121, -158.161728, 13.728680, 100.772360
1759229455.128261, 0.552163, 8.335413, -0.180313, -1.154907, 0.994710, 0.624064, 51.534698, -104.137024, -156.453934, 13.728680, 100.772360
1759229455.147603, 1.753753, 7.688530, 0.102951, -1.100210, -0.217352, 0.466620, 51.393677, -104.997635, -156.595123, 13.728680, 100.772360
1759229455.168127, 3.614347, 9.280973, 0.776320, -0.886501, -2.144682, 0.307370, 52.322891, -105.786926, -158.353607, 13.728680, 100.772360
1759229455.188280, 6.570138, 10.534038, 1.798195, -0.439581, -4.119243, -0.250757, 54.437820, -105.886734, -162.033829, 13.728680, 100.772360
1759229455.208009, 7.726987, 10.118794, 2.250550, -0.168034, -5.319621, -0.768607, 56.859802, -105.084686, -167.172287, 13.728680, 100.772360
1759229455.228294, 8.536227, 8.103325, 3.408595, -0.907896, -2.914983, -0.584705, 58.790878, -104.705948, -171.215881, 13.728680, 100.772360
1759229455.247634, 6.262633, 7.653664, 4.664952, -0.649655, -0.992262, -0.443165, 59.302444, -104.084976, -173.122513, 13.728680, 100.772360
1759229455.268233, 4.686500, 7.834127, 3.883994, -0.081382, -0.515776, -0.262145, 59.716995, -103.874741, -173.688904, 13.728680, 100.772360
1759229455.288292, 3.991583, 8.983344, 2.006042, 0.139202, -0.637343, -0.153450, 59.945709, -103.579926, -174.187195, 13.728680, 100.772360
1759229455.307941, 3.161094, 9.332448, 0.949151, 0.057137, -1.076572, -0.132652, 60.389648, -103.241608, -175.001602, 13.728680, 100.772360
1759229455.327795, 2.515109, 9.461436, 0.685340, -0.191439, -1.220618, -0.103911, 61.094177, -103.675476, -176.473709, 13.728680, 100.772360
1759229455.347607, 1.884536, 9.339930, 1.082030, -0.496424, -0.776608, -0.118968, 61.093735, -103.115768, -177.207672, 13.728680, 100.772360
1759229455.368018, 1.528698, 9.061155, 1.448791, -0.548986, -0.500313, -0.177173, 60.959930, -103.175842, -178.800003, 13.728680, 100.772360
1759229455.388149, 0.944363, 8.961946, 1.487099, -0.479227, -0.330517, -0.183411, 61.346191, -102.896713, -178.832794, 13.728680, 100.772360
1759229455.407945, 0.453252, 9.299678, 1.574487, -0.321358, -0.197121, -0.078047, 61.226944, -102.643890, -178.683701, 13.728680, 100.772360
1759229455.428275, -0.060753, 9.444826, 1.398513, -0.186963, 0.075809, 0.140397, 61.248169, -102.679947, -178.926880, 13.728680, 100.772360
1759229455.447612, 0.912041, 9.557952, 1.334618, -0.096355, 0.516785, 0.217374, 61.358505, -103.106628, -178.532257, 13.728680, 100.772360
1759229455.468252, 1.790863, 9.343821, 1.249474, 0.039518, 0.625404, 0.235088, 60.906219, -103.100815, -178.179901, 13.728680, 100.772360
1759229455.488259, 2.569577, 9.168895, 1.550096, 0.125571, 0.619626, 0.268308, 61.248444, -103.115601, -177.192963, 13.728680, 100.772360
1759229455.507917, 3.022680, 9.138817, 1.588104, 0.107264, 0.557144, 0.215850, 60.557907, -102.800858, -176.313080, 13.728680, 100.772360
1759229455.528276, 3.190124, 9.414749, 1.815553, 0.030411, 0.343175, 0.114010, 60.454285, -103.348953, -176.031815, 13.728680, 100.772360
1759229455.547615, 2.363526, 10.017040, 2.526781, -0.000199, 0.245291, 0.109853, 60.714401, -102.951996, -175.451797, 13.728680, 100.772360
1759229455.567986, 1.882291, 10.148722, 3.165733, 0.112801, 0.429180, 0.080890, 60.464523, -102.959213, -175.411789, 13.728680, 100.772360
1759229455.587852, 2.137424, 9.878626, 2.760515, 0.174503, 0.489479, 0.127678, 60.921371, -103.109055, -175.037186, 13.728680, 100.772360
1759229455.607910, 3.336170, 9.705046, 1.930175, 0.083539, 0.007272, 0.082852, 60.348663, -102.947021, -174.533936, 13.728680, 100.772360
1759229455.628256, 4.078672, 9.662699, 1.715445, -0.021438, -0.755234, 0.084688, 60.770279, -103.404282, -175.281921, 13.728680, 100.772360
1759229455.647643, 5.878663, 9.211841, 1.179144, -0.425618, -0.217179, -0.129897, 60.612686, -103.263367, -175.540543, 13.728680, 100.772360
1759229455.668234, 5.424213, 7.985860, 1.238251, -0.673737, 0.402436, -0.190838, 60.881012, -102.843552, -175.414734, 13.728680, 100.772360
1759229455.688270, 4.091391, 7.917625, 1.875558, -0.282015, 0.178905, -0.023532, 60.877319, -103.178833, -175.843140, 13.728680, 100.772360
1759229455.707913, 2.888754, 8.290073, 1.638532, 0.165366, 0.183013, 0.116217, 60.492767, -102.853485, -174.486862, 13.728680, 100.772360
1759229455.728278, 2.256984, 8.812607, 1.177199, 0.298823, 0.007465, 0.077853, 60.952316, -102.801880, -174.916977, 13.728680, 100.772360
1759229455.747618, 2.033725, 9.357588, 1.171363, 0.112477, -0.299372, -0.086364, 60.958450, -102.840912, -174.289886, 13.728680, 100.772360
1759229455.768245, 1.795502, 9.467122, 1.694496, -0.145205, -0.299319, -0.141765, 61.136826, -102.612244, -175.433273, 13.728680, 100.772360
1759229455.788336, 1.794454, 9.730484, 1.863587, -0.209087, -0.131870, -0.100568, 61.256302, -102.360367, -175.965256, 13.728680, 100.772360
1759229455.807924, 1.995567, 9.942521, 1.433528, -0.146743, 0.116432, -0.061203, 61.024094, -102.605270, -175.260849, 13.728680, 100.772360
1759229455.828257, 1.843236, 9.930700, 0.919822, -0.073757, 0.340211, -0.043692, 61.147461, -102.283966, -175.549286, 13.728680, 100.772360
1759229455.847675, 1.737891, 10.025869, 0.552312, 0.020938, 0.363368, -0.064406, 60.899246, -102.309250, -174.788116, 13.728680, 100.772360
1759229455.868107, 1.766771, 10.230274, 0.470910, 0.148444, 0.256434, -0.045105, 60.830353, -102.159378, -174.589706, 13.728680, 100.772360
1759229455.887956, 1.898752, 10.308834, 0.413898, 0.246200, 0.306860, -0.054596, 61.150909, -101.766495, -174.423569, 13.728680, 100.772360
1759229455.907941, 1.779041, 10.087969, 0.165050, 0.302689, 0.510843, -0.036081, 60.915115, -101.737946, -173.390488, 13.728680, 100.772360
1759229455.928265, 1.494281, 9.887604, -0.449511, 0.428260, 0.619702, -0.052710, 60.984528, -101.450989, -172.833725, 13.728680, 100.772360
1759229455.947604, 1.041328, 9.832088, -1.166874, 0.716019, 0.342126, -0.126768, 60.886642, -101.223312, -172.150589, 13.728680, 100.772360
1759229455.968227, 0.614412, 9.728539, -1.542464, 0.990205, -0.140830, -0.176272, 60.807739, -100.246841, -171.697327, 13.728680, 100.772360
1759229455.987305, 0.977283, 9.899575, -1.839944, 1.116551, -0.597107, -0.224511, 61.076538, -99.538422, -171.795242, 13.728680, 100.772360
1759229456.007913, 2.324171, 10.150667, -1.223736, 1.202072, -0.556719, -0.330765, 61.398392, -98.482208, -172.625885, 13.728680, 100.772360
1759229456.028256, 3.095403, 9.938780, -1.623568, 1.465516, -0.399421, -0.280626, 61.530426, -97.238998, -172.705704, 13.728680, 100.772360
1759229456.048258, 4.353108, 10.072107, -2.252644, 1.764854, -0.385601, -0.101110, 61.856293, -96.571259, -172.634583, 13.728680, 100.772360
1759229456.068227, 5.631761, 10.496629, -3.186084, 1.903630, -0.457209, -0.038573, 61.897430, -95.621338, -173.572281, 13.728680, 100.772360
1759229456.088321, 6.337751, 11.509825, -3.782090, 1.853231, -1.051924, 0.006364, 61.986740, -95.392212, -174.000229, 13.728680, 100.772360
1759229456.107894, 5.073313, 11.187506, -1.855656, 1.758560, -1.382128, 0.332063, 62.102188, -94.424667, -175.353287, 13.728680, 100.772360
1759229456.128305, 5.202301, 12.087127, 1.205331, 2.272191, -1.551594, 0.351781, 62.798599, -94.442596, -177.406158, 13.728680, 100.772360
1759229456.147622, 3.696797, 12.514492, 4.059070, 2.962916, -0.574305, 0.171617, 62.625580, -93.728821, -177.368103, 13.728680, 100.772360
1759229456.168230, 1.245135, 12.501923, -0.668730, 3.133322, 0.279027, 0.170942, 62.479874, -93.418594, -177.760284, 13.728680, 100.772360
1759229456.188373, 1.854309, 13.085958, -4.028992, 2.823595, 0.501391, -0.298350, 62.334518, -92.256073, -177.020645, 13.728680, 100.772360
1759229456.207942, 2.397793, 10.615142, -2.409165, 2.509010, 0.607174, -0.341196, 61.955505, -91.231812, -175.811966, 13.728680, 100.772360
1759229456.228263, 3.379715, 8.351574, -0.939275, 2.495543, 1.230583, -0.013968, 61.675858, -89.925476, -174.963470, 13.728680, 100.772360
1759229456.247642, 4.187758, 7.246351, -1.942745, 2.830740, 1.356732, 0.354080, 61.053589, -89.318115, -173.196671, 13.728680, 100.772360
1759229456.268225, 4.757877, 6.073192, -3.972280, 2.410399, 0.799531, 0.555694, 60.488831, -89.459549, -172.644653, 13.728680, 100.772360
1759229456.288251, 4.058920, 5.581932, -4.560206, 1.827352, 0.240029, 0.491590, 60.039658, -89.139587, -172.158127, 13.728680, 100.772360
1759229456.307885, 2.314744, 5.802647, -3.853767, 1.468478, 0.030560, 0.485629, 59.895233, -88.901871, -171.981155, 13.728680, 100.772360
1759229456.328263, 1.350180, 5.695955, -3.368043, 0.926305, -0.068436, 0.401815, 59.528595, -88.859833, -172.574265, 13.728680, 100.772360
1759229456.347608, 1.051653, 5.109077, -1.967136, 0.498884, 0.286167, 0.400850, 59.613312, -89.525558, -172.124741, 13.728680, 100.772360
1759229456.368223, 1.372476, 4.682011, -1.885883, 0.315994, 0.607364, 0.461622, 59.957214, -89.420242, -172.014709, 13.728680, 100.772360
1759229456.387670, 2.106000, 4.485986, -2.772635, -0.050622, 0.732667, 0.363795, 59.655212, -89.830444, -171.074860, 13.728680, 100.772360
1759229456.407890, 2.787449, 3.940407, -3.377919, -0.670270, 0.641354, 0.238020, 59.188202, -90.177612, -169.944977, 13.728680, 100.772360
1759229456.428262, 3.134160, 3.063980, -3.427150, -1.298411, 0.393289, 0.175958, 59.344696, -90.724136, -169.296021, 13.728680, 100.772360
1759229456.447630, 4.077026, 2.415001, -3.221548, -1.893894, 0.048141, 0.244875, 59.373169, -91.567520, -168.831848, 13.728680, 100.772360
1759229456.468223, 4.291457, 3.009960, -2.948759, -2.424597, -0.244054, 0.301674, 59.762512, -93.050369, -169.386871, 13.728680, 100.772360
1759229456.488244, 4.163966, 3.500323, -3.010858, -2.690318, -0.492560, 0.578716, 60.511780, -94.423172, -169.760071, 13.728680, 100.772360
1759229456.507905, 4.876241, 5.093514, -3.878457, -2.457282, -0.359353, 0.610738, 60.950058, -96.142731, -170.232483, 13.728680, 100.772360
1759229456.528264, 6.152649, 8.770709, -5.932233, -1.674407, -1.153733, 0.272487, 61.553955, -97.328384, -171.725250, 13.728680, 100.772360
1759229456.547590, 4.980688, 12.148030, -6.647651, -1.208710, -1.274592, -0.087818, 62.052185, -97.672043, -172.014221, 13.728680, 100.772360
1759229456.568223, 3.960159, 12.604724, -7.756316, -1.510738, -0.917393, -0.465530, 63.194290, -97.634781, -173.318512, 13.728680, 100.772360
1759229456.588248, 2.131588, 10.778397, -8.710106, -1.764157, -1.281280, -0.726717, 63.584427, -97.071472, -175.073441, 13.728680, 100.772360
1759229456.607882, -0.247950, 9.453655, -7.932439, -1.764833, -1.542367, -0.746805, 64.617996, -97.065643, -175.770782, 13.728680, 100.772360
1759229456.628295, -1.850568, 10.089166, -6.715137, -1.110408, -0.708218, -0.575210, 64.674820, -96.291275, -177.686676, 13.728680, 100.772360
1759229456.647617, -1.632247, 10.563517, -5.808333, -0.686243, 0.786901, -0.131464, 64.965347, -95.637970, -176.445877, 13.728680, 100.772360
1759229456.668221, 2.795081, 14.027478, -3.441815, -0.718268, 1.752291, -0.371094, 64.732056, -94.426804, -174.592590, 13.728680, 100.772360
1759229456.688245, 5.306748, 19.675400, -2.320131, -0.561265, 1.872659, -0.244974, 64.419830, -93.982040, -171.791351, 13.728680, 100.772360
1759229456.707876, 6.810007, 18.917336, 1.122731, -1.288020, 0.741079, 0.296289, 63.896820, -94.169205, -170.246323, 13.728680, 100.772360
1759229456.728259, 7.926753, 11.015871, 6.892158, -0.954370, -0.922742, 0.457115, 64.105408, -95.079315, -171.344116, 13.728680, 100.772360
1759229456.747612, 10.024822, 8.709357, 4.590433, -0.276674, -2.997487, -0.328889, 64.809830, -94.834854, -173.557983, 13.728680, 100.772360
1759229456.768220, 7.368754, 3.962254, 0.764798, -0.811801, -2.734370, -0.870200, 65.477783, -93.939346, -177.898819, 13.728680, 100.772360
1759229456.788248, 5.156661, 1.484704, -0.940921, -2.459624, -0.662928, -0.563401, 65.603104, -93.453613, -178.548248, 13.728680, 100.772360
1759229456.807872, 4.860529, 2.779818, -0.424971, -3.131461, 0.525633, -0.055110, 65.295822, -94.112778, -178.143448, 13.728680, 100.772360
1759229456.828381, 4.309413, 6.817789, -0.401777, -2.228330, 3.981883, 0.007077, 64.817184, -94.858566, -174.038589, 13.728680, 100.772360
1759229456.847632, 3.154660, 12.223896, -4.342334, -0.694653, 0.189179, 0.084486, 64.805908, -95.333344, -172.173889, 13.728680, 100.772360
1759229456.868219, 3.303549, 11.639112, -1.456872, -0.838919, -3.700191, 0.055097, 65.527115, -95.764343, -176.112106, 13.728680, 100.772360
1759229456.887352, 2.913893, 9.582792, 2.205060, -0.874672, -4.265541, -0.600522, 66.405426, -95.591461, -181.219604, 13.728680, 100.772360
1759229456.907868, 1.992574, 8.822633, 2.994099, -0.798621, -3.759496, -0.739045, 67.106094, -94.549164, -185.354355, 13.728680, 100.772360
1759229456.928256, 1.599626, 8.752004, 3.292476, -0.858284, -2.808710, -0.787130, 67.543671, -94.001968, -189.041718, 13.728680, 100.772360
1759229456.947612, 0.779612, 8.130559, 3.277363, -1.269331, -1.512996, -0.676859, 67.860458, -92.814682, -190.180466, 13.728680, 100.772360
1759229456.968218, 0.552462, 9.038111, 3.681833, -1.472448, -0.205499, -0.439890, 67.795761, -92.692078, -191.145157, 13.728680, 100.772360
1759229456.988245, 0.631022, 10.312425, 3.955221, -1.306398, 0.650399, -0.331838, 67.882065, -91.898956, -190.240097, 13.728680, 100.772360
1759229457.007825, 0.946009, 10.400262, 2.574665, -0.913973, 0.000274, -0.176059, 67.965668, -91.793732, -189.389832, 13.728680, 100.772360
1759229457.028290, 1.692252, 10.244490, 1.946187, -0.656435, -1.866613, -0.419021, 67.892715, -91.317581, -191.772797, 13.728680, 100.772360
1759229457.047598, 1.145476, 9.954043, 1.805378, -0.392010, -2.617873, -0.520856, 67.666000, -90.423904, -194.296860, 13.728680, 100.772360
1759229457.068220, 1.070358, 9.806500, 1.357063, -0.406140, -2.712486, -0.524030, 67.375732, -89.966248, -197.895950, 13.728680, 100.772360
1759229457.088249, 0.929250, 9.625439, 1.041029, -0.599143, -2.602018, -0.506728, 66.301590, -89.392227, -201.023026, 13.728680, 100.772360
1759229457.107856, 0.925808, 9.306262, 1.255160, -0.791800, -2.300336, -0.526916, 65.289215, -88.355286, -203.613495, 13.728680, 100.772360
1759229457.128260, 0.801908, 8.757990, 1.591695, -0.889824, -1.865876, -0.547152, 64.748917, -86.870575, -205.516693, 13.728680, 100.772360
1759229457.147579, 1.130961, 8.806921, 2.117971, -0.778129, -1.512003, -0.542847, 64.346573, -86.023651, -206.623138, 13.728680, 100.772360
1759229457.168240, 1.526603, 9.444976, 1.709909, -0.630376, -1.461424, -0.512441, 63.560638, -84.816101, -207.915451, 13.728680, 100.772360
1759229457.188240, 1.236755, 8.888474, 1.196652, -0.685599, -1.419482, -0.469178, 63.018188, -84.170486, -209.401016, 13.728680, 100.772360
1759229457.207850, 1.139640, 8.449587, 1.075146, -0.791998, -1.363360, -0.324821, 61.900894, -83.318542, -210.273636, 13.728680, 100.772360
1759229457.228259, 1.204283, 8.889072, 1.114651, -0.825510, -1.247426, -0.277297, 61.441803, -82.317245, -211.667603, 13.728680, 100.772360
1759229457.247598, 1.092504, 9.149442, 1.077989, -0.827361, -1.148515, -0.209205, 60.946075, -81.728195, -211.976807, 13.728680, 100.772360
1759229457.268239, 1.294964, 9.269451, 1.223287, -0.756247, -0.986042, -0.152855, 60.281830, -80.951981, -212.878967, 13.728680, 100.772360
1759229457.288291, 1.437568, 9.125051, 1.161786, -0.695901, -0.787906, -0.142978, 60.329514, -80.230148, -213.913010, 13.728680, 100.772360
1759229457.307848, 1.403002, 9.103802, 1.061380, -0.680327, -0.616132, -0.181592, 59.564499, -79.395035, -213.866821, 13.728680, 100.772360
1759229457.328297, 1.461062, 9.119215, 0.682347, -0.723341, -0.563658, -0.215259, 58.947632, -78.934982, -214.237946, 13.728680, 100.772360
1759229457.347611, 1.591845, 9.930700, -2.768146, -1.349436, -0.620023, -0.305747, 58.065475, -77.448959, -213.816864, 13.728472, 100.772464
1759229457.368240, 1.218050, 10.161590, -1.119589, -1.251301, -1.542814, -0.528118, 57.231110, -76.651810, -215.206329, 13.728472, 100.772464
1759229457.388204, 0.603488, 9.760562, 1.774552, -0.244095, -2.389352, -0.562983, 56.020752, -75.718842, -216.891968, 13.728472, 100.772464
1759229457.407848, 0.636409, 10.061184, 1.634492, 0.108913, -2.404390, -0.325452, 54.299866, -74.883301, -218.882721, 13.728472, 100.772464
1759229457.428295, 1.788020, 10.607959, 0.329801, -0.097355, -2.127590, -0.324826, 52.586838, -74.859039, -220.443207, 13.728472, 100.772464
1759229457.447602, 2.469469, 11.371710, -0.618153, -0.601645, -1.841539, -0.395193, 51.196335, -73.524658, -221.609467, 13.728472, 100.772464
1759229457.468233, 2.706346, 12.830227, 1.224485, -0.544250, -1.752168, -0.429291, 49.784882, -72.719025, -222.531113, 13.728472, 100.772464
1759229457.488237, 2.520047, 15.694890, 2.878279, 0.613841, -1.543306, -0.718740, 48.132233, -72.476501, -223.661057, 13.728472, 100.772464
1759229457.507837, 1.833659, 17.038037, 2.645144, 2.107218, -0.730156, -1.275020, 46.097763, -72.375137, -224.392014, 13.728472, 100.772464
1759229457.528240, 0.721702, 13.224223, -1.825878, 3.439551, -0.958111, -1.207631, 45.223389, -73.705032, -226.594788, 13.728472, 100.772464
1759229457.547592, 3.452439, 9.110835, -3.024924, 3.442283, -1.699849, 0.253597, 43.046295, -75.837234, -227.904907, 13.728472, 100.772464
1759229457.568229, 6.000019, 8.401852, -0.863559, 3.714183, -1.518581, 2.069018, 42.039276, -80.161606, -230.093628, 13.728472, 100.772464
1759229457.588239, 8.984391, 9.573814, 0.775123, 3.854081, -1.499255, 2.341819, 40.871628, -84.393555, -231.343491, 13.728472, 100.772464
1759229457.607837, 14.046781, 13.955652, -1.132158, 3.498281, -2.269540, 1.955715, 38.839600, -89.181931, -233.050980, 13.728472, 100.772464
1759229457.628244, 12.401965, 12.693010, 0.566678, 2.705301, -3.846289, 0.749664, 35.573181, -92.522430, -235.017380, 13.728472, 100.772464
1759229457.647580, 6.446089, 10.774955, 1.061080, 2.469464, -3.939318, 0.669466, 30.857147, -95.211594, -235.595825, 13.728472, 100.772464
1759229457.667663, 3.798251, 10.784532, 2.299481, 2.015613, -3.567999, 0.655494, 27.018829, -97.884079, -237.733841, 13.728472, 100.772464
1759229457.687609, 2.229900, 10.192266, 3.397671, 1.914121, -2.590115, 0.654085, 24.196762, -99.982864, -238.408798, 13.728472, 100.772464
1759229457.707850, 0.266355, 8.920047, 3.466056, 1.993394, -1.414380, 0.850177, 22.202637, -102.312561, -237.795792, 13.728472, 100.772464
1759229457.728058, -0.874033, 7.529465, 1.673397, 2.223312, -0.167567, 0.964249, 21.400696, -104.422424, -237.447189, 13.728472, 100.772464
1759229457.747565, -1.020229, 8.595483, -2.850447, 2.061419, -0.420959, 0.730856, 20.514297, -106.794144, -236.197952, 13.728472, 100.772464
1759229457.768192, 0.308253, 7.429507, -3.111415, 1.027324, -1.095562, 0.346022, 19.323120, -108.228729, -235.969452, 13.728472, 100.772464
1759229457.788022, 1.404648, 4.632930, -2.133533, 0.515358, -1.046011, 0.459663, 17.890121, -108.722961, -236.239624, 13.728298, 100.772482
1759229457.807810, 2.964620, 3.361459, -0.957830, 0.376323, -0.908821, 0.452219, 16.537643, -108.796097, -235.970261, 13.728298, 100.772482
1759229457.828247, 4.016423, 4.175937, -1.187823, -0.367781, -0.435213, 0.093867, 15.781662, -108.789337, -236.695847, 13.728298, 100.772482
1759229457.847620, 3.046173, 4.441693, -1.903091, -0.662684, -0.377380, 0.005678, 15.062958, -108.223740, -236.513626, 13.728298, 100.772482
1759229457.868229, 1.724424, 3.756353, -3.083283, -1.380285, -0.478085, 0.048074, 14.554840, -107.043259, -237.637238, 13.728298, 100.772482
1759229457.888241, 0.822109, 3.695750, -3.853617, -1.898174, 0.103469, 0.219721, 14.511520, -105.631119, -238.803253, 13.728298, 100.772482
1759229457.907799, 0.985214, 5.446210, -4.026299, -2.165557, 0.558367, 0.233132, 14.576157, -103.822128, -238.207626, 13.728298, 100.772482
1759229457.928175, 1.416170, 7.266103, -4.534917, -2.488409, 1.163843, 0.150480, 15.374207, -101.153870, -239.031937, 13.728298, 100.772482
1759229457.947580, 2.227655, 8.952818, -4.613627, -2.207780, 1.093210, 0.056809, 16.561615, -99.068924, -239.119797, 13.728298, 100.772482
1759229457.968209, 3.070115, 9.932944, -4.937592, -0.706787, 0.583450, 0.110098, 17.629868, -97.652115, -240.041016, 13.728298, 100.772482
1759229457.988244, 4.029292, 10.269928, -5.550059, -0.251724, 0.841726, 0.177944, 18.051758, -97.248688, -239.338730, 13.728298, 100.772482
1759229458.007859, 5.013458, 8.896404, -6.086510, -0.445434, 1.094974, 0.125261, 19.009338, -97.134445, -238.989716, 13.728298, 100.772482
1759229458.028314, 4.869657, 8.152406, -5.560683, -0.454687, 1.170607, 0.033645, 20.087250, -96.433243, -238.373276, 13.728298, 100.772482
1759229458.047582, 4.182072, 8.275857, -5.278018, -0.382335, 0.549001, 0.083427, 21.197952, -95.946609, -238.491287, 13.728298, 100.772482
1759229458.068208, 3.908235, 8.625411, -4.756231, -0.054507, -0.401273, 0.042959, 21.336929, -95.882797, -238.560913, 13.728298, 100.772482
1759229458.088210, 3.454384, 8.194754, -3.772364, 0.202313, -1.157787, -0.031799, 20.227097, -95.978561, -238.682404, 13.728298, 100.772482
1759229458.107805, 2.571373, 7.296479, -4.052336, -0.018260, -1.608853, -0.170593, 19.124542, -95.928360, -238.493652, 13.728298, 100.772482
1759229458.128245, 2.369960, 5.811476, -3.272125, -0.121115, -1.333195, -0.412184, 17.468979, -96.287811, -239.780502, 13.728298, 100.772482
1759229458.147567, 1.164929, 4.367473, -1.388936, -0.025963, -0.088294, -0.780830, 16.626785, -96.001556, -239.015228, 13.728298, 100.772482
1759229458.168233, -0.764349, 4.090643, -0.912490, -0.072297, 0.780656, -0.963038, 17.307129, -95.420380, -239.676361, 13.728298, 100.772482
1759229458.188236, -1.939752, 4.730643, -1.675792, -0.242156, 0.844456, -0.814545, 18.312515, -95.294281, -239.404480, 13.728298, 100.772482
1759229458.207789, -1.695244, 5.174019, -0.863409, -0.170353, 1.024568, -0.545407, 19.353958, -94.437500, -239.390823, 13.728298, 100.772482
1759229458.228244, -0.871489, 6.166566, -1.790713, -0.161639, 0.725449, -0.487630, 20.385483, -93.984299, -239.084625, 13.728298, 100.772482
1759229458.248228, 0.715717, 5.680243, -3.113360, -0.377795, -0.215168, -0.505296, 20.840652, -93.856720, -238.745651, 13.728298, 100.772482
1759229458.268204, 2.187402, 4.658368, -2.610727, -0.773878, -0.165742, -0.598408, 20.582825, -92.877563, -239.628296, 13.728298, 100.772482
1759229458.288235, 3.405303, 4.097527, -1.186477, -1.154724, 0.815195, -0.653891, 20.712509, -91.525787, -239.983795, 13.728298, 100.772482
1759229458.307803, 5.449802, 5.389946, -2.539649, -1.929110, 3.642774, -0.685039, 22.898331, -89.941803, -239.013947, 13.728298, 100.772482
1759229458.328260, 11.618612, 12.268488, -3.569605, -1.476028, 6.643988, -0.178947, 28.071228, -87.880585, -237.219528, 13.728298, 100.772482
1759229458.347571, 13.907169, 17.048511, -4.545841, -1.039879, 1.577648, -0.217395, 32.889740, -86.585358, -234.572037, 13.728298, 100.772482
1759229458.367340, 8.577527, 24.110808, 0.610073, 0.172148, -6.411485, 1.343023, 29.464859, -86.564194, -236.418594, 13.728298, 100.772482
1759229458.388219, 6.707805, 45.986329, -16.883910, -1.372627, -4.763772, -0.952387, 25.080124, -86.624191, -238.885361, 13.728298, 100.772482
1759229458.407792, 0.228347, 16.735170, 8.552088, -0.452055, -3.496788, -1.787097, 20.064163, -85.112000, -239.412750, 13.728298, 100.772482
1759229458.428244, 0.878672, 9.765949, 10.447099, 0.579409, -1.023390, -1.895033, 17.807480, -85.391235, -240.335312, 13.728298, 100.772482
1759229458.447568, -1.488296, 6.744167, 8.245032, 0.570888, 0.819197, -1.774394, 16.934921, -85.685867, -239.881744, 13.728298, 100.772482
1759229458.468227, -3.319411, 6.604555, 6.624606, -0.027494, 1.843371, -0.986306, 18.595261, -85.594193, -239.684814, 13.728298, 100.772482
1759229458.488228, -4.210952, 7.561936, 2.898031, -0.928861, -0.507458, 0.782411, 19.739960, -85.385468, -239.668594, 13.728298, 100.772482
1759229458.507777, 0.100556, 9.259725, 3.100342, -1.178991, -1.451774, 1.140445, 18.541336, -84.480438, -239.540237, 13.728298, 100.772482
1759229458.528260, 2.200271, 11.506384, 3.476082, -1.235703, -1.446919, 0.442355, 17.190582, -84.049973, -239.860550, 13.728298, 100.772482
1759229458.547581, 2.212991, 10.326042, 1.753005, -1.611370, -1.236401, -0.151176, 15.875610, -82.385132, -239.277939, 13.728298, 100.772482
1759229458.567989, 0.998831, 6.242282, 0.232088, -2.344175, -0.740728, -0.277292, 14.354477, -80.388397, -239.698441, 13.728298, 100.772482
1759229458.587916, 5.731270, 5.400720, -10.550499, -2.643405, 1.127999, -0.115450, 14.240982, -77.689346, -238.767227, 13.728298, 100.772482
1759229458.607793, 5.709423, 8.007707, -6.860734, -0.113897, 0.151759, 0.288308, 15.162262, -76.413086, -237.351227, 13.728298, 100.772482
1759229458.628252, 3.628263, 7.603984, -1.608754, 0.877330, -0.728607, 0.288527, 15.433624, -76.988632, -238.989853, 13.728298, 100.772482
1759229458.647569, 0.224157, 7.297826, -0.386664, 0.491686, -1.589371, 0.046038, 14.281876, -77.806366, -238.437057, 13.728298, 100.772482
1759229458.668224, -0.434099, 7.560590, 0.026336, -0.000764, -2.282636, -0.235603, 12.363708, -77.949936, -239.490326, 13.728298, 100.772482
1759229458.688237, -0.957082, 7.607725, 0.641047, -0.389688, -2.324823, -0.158979, 9.984818, -77.687088, -239.520966, 13.728298, 100.772482
1759229458.707763, -2.457947, 8.746468, -1.626561, -1.277785, -2.254498, 0.103003, 7.573257, -76.616211, -238.812531, 13.728298, 100.772482
1759229458.728231, -5.853823, 11.691186, -7.516746, -0.902301, -3.665807, -0.088233, 4.143524, -75.756058, -239.550720, 13.728298, 100.772482
1759229458.747596, -6.454019, 12.604424, -6.819584, 0.374680, -4.860287, -0.565360, -0.758423, -75.895477, -238.158859, 13.728298, 100.772482
1759229458.768202, -3.828777, 7.796867, 0.340575, 0.347153, -2.158836, 0.034863, -4.230011, -76.334198, -238.490723, 13.728298, 100.772482
1759229458.788230, -2.235586, 11.270854, 0.712425, -0.082716, 0.752347, -0.217985, -4.675461, -76.372375, -238.658630, 13.728298, 100.772482
1759229458.807760, -1.099088, 11.629835, -1.748366, 0.000952, 1.272692, -0.045640, -3.932037, -76.576370, -237.715439, 13.728298, 100.772482
1759229458.828217, -0.193930, 9.051130, -0.498742, 0.688762, -0.107192, 0.117064, -3.217667, -76.957703, -238.041367, 13.728298, 100.772482
1759229458.847598, -0.225205, 9.234286, -1.133056, 1.464991, -1.581840, 0.065575, -4.379684, -78.311340, -238.315735, 13.728298, 100.772482
1759229458.868220, 1.192911, 7.939173, -2.367417, 2.165963, -1.620817, 0.093291, -6.222534, -80.363419, -238.602859, 13.728298, 100.772482
1759229458.888218, 3.333327, 7.703045, -6.190508, 1.172657, -1.116253, -0.036781, -7.435654, -81.911316, -238.327362, 13.728298, 100.772482
1759229458.907753, 2.406921, 7.874978, -1.448642, 1.124742, -1.002122, -0.069278, -8.506210, -83.151886, -237.790207, 13.728298, 100.772482
1759229458.928229, 0.856526, 6.848464, 1.017536, 2.202562, -0.783925, -0.043602, -9.348846, -84.840164, -237.703400, 13.728298, 100.772482
1759229458.947577, 0.223559, 4.858583, 1.233762, 2.386789, 1.243654, -0.327893, -9.702103, -87.388565, -237.237579, 13.728298, 100.772482
1759229458.968200, -0.238971, 3.756502, 1.229722, 2.622193, 2.737351, -0.416525, -7.487808, -89.992676, -238.361755, 13.728298, 100.772482
1759229458.988225, -0.434099, 3.900005, -0.392649, 3.258061, 2.192869, -0.265026, -4.981979, -93.167297, -238.808823, 13.728298, 100.772482
1759229459.007757, -0.463278, 5.836166, -1.533636, 3.758649, 0.857229, -0.327654, -3.516220, -96.972488, -238.104340, 13.728298, 100.772482
1759229459.027639, 0.823755, 11.206360, -1.632846, 3.489807, 1.110587, -0.942268, -2.573715, -100.790649, -237.511032, 13.728298, 100.772482
1759229459.047446, 1.326837, 18.863167, -5.051766, 2.621875, 0.858610, -1.594687, -1.466187, -103.993454, -236.754135, 13.728298, 100.772482
1759229459.068235, 1.536928, 24.128315, -6.869114, 2.278102, -0.448529, -1.258994, -0.885574, -106.362579, -236.761948, 13.728298, 100.772482
1759229459.088074, 2.908207, 22.778285, -6.132448, 1.974395, -2.407725, -0.329352, -2.227966, -108.365341, -235.286575, 13.728298, 100.772482
1759229459.107751, 5.671415, 15.409531, -8.307132, 0.818285, -3.608158, -0.637983, -5.195053, -109.584946, -233.802185, 13.728298, 100.772482
1759229459.128233, 5.375581, 14.216769, -8.026112, -0.490274, -2.172290, -1.484653, -7.771545, -109.996613, -233.171005, 13.728298, 100.772482
1759229459.147571, -0.469413, 14.281263, -5.205892, -0.727144, -1.348845, -1.444651, -8.461807, -109.697250, -232.218674, 13.728298, 100.772482
1759229459.167880, -4.345326, 12.415881, -3.948338, -0.695878, -0.576466, -0.961884, -8.877075, -109.339600, -232.451782, 13.728298, 100.772482
1759229459.188230, -4.645948, 8.037634, -3.270180, -0.723610, 1.158725, -0.584783, -8.468811, -109.178741, -232.495270, 13.728298, 100.772482
1759229459.207742, -3.142240, 4.587440, -1.785626, -0.743547, 2.609348, 0.293272, -6.488556, -108.163300, -233.066559, 13.728298, 100.772482
1759229459.228232, -1.162535, 3.088371, -1.458967, -0.676942, 2.188480, 1.105019, -4.618301, -107.363846, -234.035461, 13.728298, 100.772482
1759229459.247339, 1.568651, 2.943671, -0.634015, -0.534203, 1.402604, 1.405696, -3.208389, -107.200363, -234.260178, 13.728298, 100.772482
1759229459.268080, 3.569156, 2.619107, -0.087089, -0.493031, 1.403436, 1.431410, -2.652634, -106.189209, -234.947205, 13.728298, 100.772482
1759229459.288230, 5.528661, 2.247108, -0.314089, -0.829093, 1.826996, 1.131832, -1.462357, -105.331696, -235.160248, 13.728298, 100.772482
1759229459.307737, 5.916072, 1.773206, -2.190545, -1.566380, 1.510341, 0.923858, -0.274017, -103.991562, -235.356186, 13.728298, 100.772482
1759229459.328213, 4.387375, 2.321029, -2.556259, -1.863716, 0.999508, 1.127028, 0.736115, -102.467148, -236.213577, 13.728298, 100.772482
1759229459.347578, 2.440290, 4.607791, -0.061052, -1.804854, 1.475399, 1.325047, 1.420013, -100.839355, -236.537933, 13.728298, 100.772482
1759229459.368197, 2.803461, 7.523330, 2.254590, -1.688414, 3.060825, 1.074355, 3.602890, -99.396103, -237.565872, 13.728298, 100.772482
1759229459.388187, 2.997391, 12.191724, 2.634370, -1.968718, 5.831336, -0.027244, 8.414047, -97.391907, -237.858170, 13.728298, 100.772482
1759229459.407723, 3.058892, 15.642517, -1.396418, -1.404942, 7.223394, -0.989337, 14.317963, -95.884872, -236.927307, 13.728298, 100.772482
1759229459.428218, 1.794604, 12.695703, -12.327295, -0.618543, 3.117476, -0.428645, 19.658386, -95.006760, -236.388565, 13.728298, 100.772482
1759229459.447586, 2.229750, 10.835109, -19.858257, -1.701845, -1.793789, -0.493122, 19.363602, -93.541550, -236.282242, 13.728298, 100.772482
1759229459.467833, 4.410269, 8.390779, -10.425401, -2.529471, -3.630062, -0.877066, 16.681000, -91.191147, -237.144867, 13.728298, 100.772482
1759229459.487502, 4.875642, 8.030452, -3.065027, -2.254405, -3.161003, -0.547340, 13.261337, -88.820618, -238.251953, 13.728298, 100.772482
1759229459.507742, 3.706224, 7.283311, 2.309507, -0.736984, -1.217832, 0.018858, 10.991226, -87.646042, -237.944504, 13.728298, 100.772482
1759229459.528220, 3.825635, 6.423942, 3.185336, 0.504084, -0.147877, 0.155971, 10.774002, -87.896851, -238.772766, 13.728298, 100.772482
1759229459.547574, 3.618985, 5.581034, 0.742801, 0.828799, 0.287494, 0.021797, 11.013702, -88.843384, -238.131546, 13.728298, 100.772482
1759229459.568195, 2.819621, 5.975778, -1.595586, 0.290563, 0.186944, -0.492892, 11.256271, -89.487015, -237.794815, 13.728298, 100.772482
1759229459.588218, -0.029479, 6.332813, -5.114015, -0.737368, -0.521077, -0.953101, 10.774002, -88.798752, -238.390839, 13.728298, 100.772482
1759229459.607747, -2.559402, 6.225523, -7.633762, -1.544020, -1.707237, -0.949055, 9.666367, -87.417068, -237.697342, 13.728298, 100.772482
1759229459.628247, -1.726070, 7.847594, -3.367894, -0.798746, -2.704375, -0.844518, 6.612244, -86.670792, -237.815002, 13.728298, 100.772482
1759229459.648222, 2.987365, 11.644050, 7.367557, 0.254951, -1.792909, -0.187167, 4.248611, -86.505035, -237.549118, 13.728298, 100.772482
1759229459.668214, 5.239411, 14.312089, 6.581062, -0.126017, 0.752345, 1.433381, 4.049438, -86.707825, -237.607910, 13.728298, 100.772482
1759229459.688213, 8.575282, 15.605257, 1.747019, -0.250069, 3.093292, 2.298015, 6.920197, -86.276718, -237.667191, 13.728298, 100.772482
1759229459.707715, 5.866692, 16.936134, -4.737377, 0.754243, -1.037202, 1.591105, 8.184479, -87.252243, -237.619247, 13.728298, 100.772482
1759229459.728211, 0.966360, 23.149087, -11.335497, -0.530475, -4.645885, 0.057957, 4.558304, -86.992035, -238.016724, 13.728298, 100.772482
1759229459.747577, 0.962918, 16.240618, 0.101454, -1.003736, -3.598174, -1.195568, 0.462601, -86.083832, -236.721313, 13.728298, 100.772482
1759229459.767279, 1.454029, 12.102839, 5.904849, -0.660152, -1.496940, -2.024136, -1.591385, -85.511612, -237.461212, 13.728298, 100.772482
1759229459.787252, -3.691709, 13.477709, 1.965490, -1.098859, -0.106191, -0.978234, -2.225464, -85.084671, -236.890823, 13.728298, 100.772482
1759229459.807712, -6.335058, 12.618939, -0.864905, -1.358810, 1.340277, -0.046768, -1.699081, -83.677383, -236.228073, 13.728298, 100.772482
1759229459.828216, -1.961749, 9.966762, 0.208744, -0.624865, 0.596721, 0.273191, -0.404678, -83.012680, -236.472366, 13.728298, 100.772482
1759229459.847581, 1.523909, 8.076091, 0.820014, -0.465196, -1.286256, 0.346613, -1.026886, -82.504501, -235.783554, 13.728298, 100.772482
1759229459.868192, 1.916708, 5.483919, 0.361076, -0.941241, -2.159503, 0.535837, -2.845871, -82.164398, -236.072372, 13.728298, 100.772482
1759229459.888211, 2.815282, 4.697573, 0.655712, -1.125554, -1.472614, 0.578884, -4.702835, -81.054337, -235.601364, 13.728298, 100.772482
1759229459.907741, 3.500921, 6.406884, 1.655590, -1.129045, -0.372022, 0.455152, -5.120758, -79.881348, -234.119904, 13.728298, 100.772482
1759229459.928224, 3.019238, 7.703194, 0.755969, -1.297998, 0.058311, 0.361888, -4.837341, -78.535812, -234.526093, 13.728298, 100.772482
1759229459.947597, 0.769287, 8.177845, -1.721281, -1.469480, -0.056672, 0.270653, -4.952850, -77.493301, -233.133331, 13.728298, 100.772482
1759229459.967917, -0.846051, 8.933066, -4.087650, -1.228356, -0.767962, 0.271894, -5.495010, -76.205765, -233.550583, 13.728298, 100.772482
1759229459.988223, -1.127370, 9.541642, -4.567389, -0.439741, -1.623418, 0.099744, -6.602661, -75.638565, -232.579758, 13.728298, 100.772482
1759229460.007705, -1.209521, 10.593893, -2.165256, 0.075970, -1.594006, 0.271374, -8.064438, -75.530594, -231.629471, 13.728298, 100.772482
1759229460.028230, -1.320103, 10.820295, -0.865504, 0.387754, -1.246339, 0.476306, -9.092178, -75.634979, -231.301132, 13.728298, 100.772482
1759229460.047584, -0.805649, 11.459397, 0.767192, 0.514051, -0.610516, 0.321870, -9.722931, -76.429520, -230.661880, 13.728298, 100.772482
1759229460.068191, -2.336591, 12.871078, -1.744176, 0.622780, -0.973758, 0.103505, -10.125778, -76.798386, -231.453537, 13.728298, 100.772482
1759229460.088219, -3.664176, 11.137826, -2.257882, 1.273540, -1.154976, -0.163807, -11.485092, -78.065994, -231.111649, 13.728298, 100.772482
1759229460.107696, -3.616292, 8.678682, -0.764199, 2.523876, -1.272276, -0.658524, -12.928101, -79.897003, -230.511688, 13.728298, 100.772482
1759229460.128193, 0.267253, 6.995109, -2.876633, 2.613563, 0.954064, -0.025629, -12.476639, -82.288895, -231.110306, 13.728298, 100.772482
1759229460.147544, 2.952948, 7.798364, -2.379238, 2.131206, 1.807405, 0.410373, -10.984482, -83.980865, -231.265396, 13.728298, 100.772482
1759229460.168189, 3.300557, 7.887548, 0.915184, 2.315760, 1.326687, 0.044264, -9.589539, -85.992401, -232.158600, 13.728298, 100.772482
1759229460.188219, 3.850325, 7.663540, 2.079663, 3.017828, 0.023369, -0.490378, -9.299789, -88.499420, -231.878113, 13.728298, 100.772482
1759229460.207691, 3.158251, 4.794239, -1.689109, 3.765792, -0.281057, -0.697818, -9.897522, -91.749420, -231.173904, 13.728298, 100.772482
1759229460.227915, 3.394679, 4.301632, -4.102315, 3.267321, 1.047310, -0.946189, -9.407578, -94.772278, -231.501053, 13.728298, 100.772482
1759229460.247567, 2.820070, 4.498406, 0.520290, 3.389319, 1.101649, -0.674876, -8.574509, -97.807434, -231.488129, 13.728298, 100.772482
1759229460.267314, 2.051232, 4.610335, 0.279224, 4.201144, 0.078726, -0.411317, -8.171036, -100.970612, -230.878479, 13.728298, 100.772482
1759229460.288230, 1.707664, 8.793005, -1.455226, 3.877483, -0.092293, -0.725004, -8.158859, -104.323883, -230.035690, 13.728298, 100.772482
1759229460.307702, 0.895282, 17.241095, -7.545925, 2.538810, 0.046020, -1.110590, -8.109573, -106.865051, -228.345688, 13.728298, 100.772482
1759229460.327651, -0.384419, 24.333618, -9.090484, 1.847968, -0.848246, -1.019923, -8.682526, -108.421066, -226.951492, 13.728298, 100.772482
1759229460.347565, -2.388665, 21.703139, -4.281581, 2.312423, -0.451237, -0.648927, -8.626480, -110.271637, -226.214294, 13.728298, 100.772482
1759229460.368189, 0.297180, 12.789376, -4.792593, 1.665660, -0.543280, -0.434161, -8.579865, -111.720886, -225.027847, 13.728298, 100.772482
1759229460.388219, 4.825513, 10.226234, -10.635792, 0.018201, -2.129705, -0.161368, -9.983902, -112.355484, -224.769028, 13.728298, 100.772482
1759229460.407682, 4.717325, 9.707291, -11.854890, -1.614218, -2.793699, -0.072898, -11.810898, -111.505508, -223.739838, 13.728298, 100.772482
1759229460.427681, 3.731663, 10.899005, -7.773823, -2.220260, -1.801789, -0.539345, -13.395660, -110.217789, -223.750000, 13.728298, 100.772482
1759229460.447522, 2.639458, 10.283395, -4.978293, -1.975100, -0.079801, -0.948417, -13.560150, -109.452621, -223.616760, 13.728298, 100.772482
1759229460.468208, -0.112079, 6.033538, -0.883610, -1.394783, 2.031481, -0.415600, -12.161545, -108.005707, -225.739151, 13.728298, 100.772482
1759229460.488270, -2.266411, 3.072808, -0.761655, -1.065842, 2.189275, 0.393945, -9.971802, -107.081665, -226.583054, 13.728298, 100.772482
1759229460.507712, -1.969979, 2.167501, -1.978658, -1.266400, 1.595694, 0.864796, -8.873871, -106.210602, -226.859161, 13.728298, 100.772482
1759229460.528214, 0.228347, 3.641581, -2.192041, -1.846712, 1.284740, 1.074398, -8.350571, -104.771057, -228.516388, 13.728298, 100.772482
1759229460.547544, 2.471714, 3.535338, -0.642993, -2.253616, 1.360381, 1.031143, -7.388077, -102.745895, -228.118729, 13.728298, 100.772482
1759229460.568187, 3.580678, 2.870947, 0.391302, -2.571893, 1.596983, 0.925429, -6.462372, -100.419464, -229.415726, 13.728298, 100.772482
1759229460.588364, 3.809324, 2.379537, 1.184831, -2.499177, 1.698432, 0.878246, -5.090363, -98.290024, -230.097351, 13.728298, 100.772482
1759229460.607688, 3.101688, 4.188207, 2.634071, -1.935103, 2.186571, 0.721541, -3.765335, -96.465607, -230.408524, 13.728298, 100.772482
1759229460.628225, 2.948010, 6.287772, 3.647417, -1.369278, 3.396519, 0.587259, -1.254974, -95.234070, -231.505676, 13.728298, 100.772482
1759229460.647604, 3.205237, 11.282975, 4.242376, -1.385497, 5.085762, -0.055548, 2.496857, -94.409973, -231.604004, 13.728298, 100.772482
1759229460.668185, 2.824859, 17.146973, 0.491410, -2.813801, 6.128328, -0.426569, 7.139557, -92.319305, -232.194611, 13.728298, 100.772482
1759229460.687841, 5.803395, 14.928745, -10.264691, -0.307069, 3.001978, 0.323044, 10.715073, -91.364304, -231.716553, 13.728298, 100.772482
1759229460.707668, 8.491186, 12.662633, -20.707600, -0.282989, -2.508539, 0.171348, 9.497406, -91.489197, -231.776077, 13.728298, 100.772482
1759229460.728337, 7.057957, 9.720908, -10.586860, -1.193073, -5.156176, -0.345581, 5.834274, -90.407257, -232.102829, 13.728298, 100.772482
1759229460.747642, 4.211550, 7.232434, -3.079991, -1.552795, -6.120073, -0.604004, 0.501053, -89.580063, -231.411255, 13.728298, 100.772482
1759229460.768184, 3.617040, 8.053047, 3.141043, -0.850412, -5.083958, -0.983220, -4.352249, -88.893707, -230.989975, 13.728298, 100.772482
1759229460.788347, 2.158373, 6.119729, 4.875492, -0.118403, -3.709682, -0.685054, -7.662552, -88.595551, -230.942230, 13.728298, 100.772482
1759229460.807664, 0.949750, 4.398897, 3.791967, 0.208081, -2.582994, -0.143357, -10.174591, -88.827332, -229.412094, 13.728298, 100.772482
1759229460.828219, 0.494552, 5.193622, 2.635866, 0.103996, -0.968480, 0.096919, -11.746643, -89.273483, -229.365295, 13.728298, 100.772482
1759229460.847560, -0.808791, 7.294235, -0.681150, -0.808347, 1.333466, 0.094135, -11.159882, -88.453186, -228.632889, 13.728298, 100.772482
1759229460.868184, -2.276587, 7.083096, -5.650017, -1.469882, 1.663476, -0.144827, -9.972198, -87.522064, -229.421844, 13.728298, 100.772482
1759229460.888172, -3.558382, 6.829610, -10.699986, -1.445118, -0.522426, -0.609940, -10.007492, -86.783356, -230.266983, 13.728298, 100.772482
1759229460.907646, -3.159448, 9.247005, -10.502465, -1.156954, -3.513370, -0.981297, -12.505539, -85.866257, -228.469955, 13.728298, 100.772482
1759229460.928260, 2.579154, 14.664635, 4.904372, 0.324178, -2.633223, -0.626074, -14.760086, -86.194855, -227.382370, 13.728298, 100.772482
1759229460.947587, 4.770297, 18.747347, 10.482862, 0.736903, 0.275906, 1.014321, -15.588440, -86.622803, -226.412369, 13.728298, 100.772482
1759229460.968184, 9.112332, 21.445014, 3.890578, -1.093283, 5.163975, 1.053901, -11.413651, -85.520065, -228.434875, 13.728298, 100.772482
1759229460.988209, 7.454945, 12.850428, -0.362273, -0.691517, 3.418045, 0.673821, -8.680069, -84.801956, -229.318329, 13.728298, 100.772482
1759229461.007704, 3.355923, 14.015657, -5.738153, 0.609692, -1.435731, 0.099894, -8.731506, -85.112183, -228.623306, 13.728298, 100.772482
1759229461.028307, 0.822259, 15.779136, -0.964714, 0.329128, -2.523214, 0.051363, -10.448135, -85.621658, -229.041382, 13.728298, 100.772482
1759229461.047573, 0.520589, 14.886847, 0.105495, -0.281560, -1.810924, -0.194471, -12.279938, -85.126846, -227.731995, 13.728298, 100.772482
1759229461.068218, 0.218770, 13.468581, 0.376787, -0.470300, -0.696547, -0.886060, -13.042038, -84.932343, -226.958160, 13.728298, 100.772482
1759229461.088209, 0.223409, 11.995848, 2.643199, -0.165080, -0.792335, -0.780987, -13.604141, -85.041550, -227.035599, 13.728298, 100.772482
1759229461.107685, -0.478691, 8.970176, 2.197428, -0.227096, -1.446757, -0.187487, -14.272125, -84.894684, -226.323090, 13.728298, 100.772482
1759229461.127474, 0.238073, 6.559215, 1.299453, -0.586332, -1.601544, 0.074455, -15.591278, -85.040421, -225.479874, 13.728298, 100.772482
1759229461.147529, 1.592144, 5.583727, 1.064372, -0.980535, -1.271299, 0.077201, -16.586288, -84.508652, -224.523254, 13.728298, 100.772482
1759229461.167403, 2.361880, 5.285051, 0.764798, -1.316581, -0.751183, 0.198481, -16.736252, -83.397369, -223.834930, 13.728298, 100.772482
1759229461.188237, 2.778321, 6.310667, 1.413926, -1.347191, 0.170766, 0.355404, -17.111908, -82.315598, -224.198120, 13.728298, 100.772482
1759229461.207647, 3.260154, 7.846397, 1.271321, -1.208040, 0.940270, 0.527038, -16.747665, -81.439438, -223.986633, 13.728298, 100.772482
1759229461.228254, 2.587384, 8.590246, 0.011522, -0.864572, 1.071613, 0.660704, -15.691345, -80.440460, -224.405136, 13.728298, 100.772482
1759229461.247553, 0.483030, 9.358186, -2.506430, -0.448283, -0.008319, 0.544041, -15.493820, -79.628357, -224.453278, 13.728298, 100.772482
1759229461.268216, -1.469890, 9.989358, -5.442469, -0.311769, -1.274760, 0.300675, -16.075974, -79.728729, -223.660751, 13.728298, 100.772482
1759229461.288260, -2.006940, 9.788993, -4.833893, -0.201771, -1.910417, -0.015091, -17.618683, -79.493530, -223.144714, 13.728298, 100.772482
1759229461.307657, -2.424877, 10.298808, -3.965097, -0.019047, -2.400144, -0.208475, -19.231750, -79.304489, -221.581207, 13.728298, 100.772482
1759229461.328231, -1.826926, 9.610625, -0.625186, 0.369673, -1.518778, -0.090432, -20.132614, -80.019470, -221.456512, 13.728298, 100.772482
1759229461.347560, 0.027084, 8.148965, 1.824831, 0.803550, -0.991682, -0.054983, -20.873947, -80.258957, -219.748474, 13.728298, 100.772482
1759229461.368195, -2.111836, 12.288539, -2.629282, 1.062036, -0.757944, -0.006003, -21.248138, -81.074921, -220.097855, 13.728298, 100.772482
1759229461.388176, -0.524480, 9.702353, 1.395969, 1.560437, -0.364919, 0.114602, -21.258469, -81.914703, -220.583694, 13.728298, 100.772482
1759229461.407633, 0.254683, 8.731653, 0.405518, 1.604570, -0.144610, 0.191015, -21.596603, -82.912476, -219.911896, 13.728298, 100.772482
1759229461.428256, 1.101632, 8.776545, -1.445499, 1.745835, 0.590507, 0.135545, -21.191910, -83.973236, -220.952530, 13.728298, 100.772482
1759229461.448206, -0.588824, 8.273762, 0.703596, 1.806368, 0.914203, -0.043102, -20.609879, -85.149353, -220.887344, 13.728298, 100.772482
1759229461.468214, -1.272219, 10.000580, -1.481113, 3.158545, 0.055457, -0.574130, -20.220764, -87.061188, -221.568558, 13.728298, 100.772482
1759229461.488234, 0.134225, 8.104672, -4.893299, 4.018144, 0.000880, -0.703929, -20.337769, -90.212387, -221.861618, 13.728298, 100.772482
1759229461.507626, 1.290924, 6.944681, -3.926640, 3.745789, 1.462247, -0.676648, -19.758957, -92.755966, -221.257706, 13.728298, 100.772482
1759229461.528205, 2.397643, 5.586570, -1.453580, 4.178347, 1.536998, -0.537114, -18.107941, -96.076782, -221.633972, 13.728298, 100.772482
1759229461.547541, 3.726874, 4.781670, -0.085593, 4.428708, 1.812607, -0.730101, -17.082932, -98.828430, -221.191376, 13.728298, 100.772482
1759229461.568183, 3.457826, 8.066065, -4.496909, 3.940202, 1.339183, -1.004766, -15.728027, -101.737000, -221.661026, 13.728298, 100.772482
1759229461.587623, 3.064428, 11.155783, -5.115361, 2.677209, 0.691273, -1.184634, -15.103439, -103.791611, -220.933578, 13.728298, 100.772482
1759229461.607696, 3.060538, 18.480244, -5.723489, 2.403927, -1.135946, -0.843052, -15.492126, -105.772171, -219.260101, 13.728298, 100.772482
1759229461.628043, 1.204433, 24.191313, -5.814019, 2.595152, -0.781501, -0.166709, -15.922501, -107.445389, -218.071609, 13.728298, 100.772482
1759229461.647524, 0.752079, 16.502783, -3.654898, 2.303587, 1.276992, -0.034768, -15.289536, -108.649048, -216.637833, 13.728298, 100.772482
1759229461.667431, 0.103699, 11.399093, -3.970933, 1.690297, 1.322613, -0.238844, -14.555695, -109.515793, -217.131805, 13.728298, 100.772482
1759229461.687452, 4.400393, 9.562741, -10.393379, 0.646050, -0.582054, 0.034631, -14.478531, -110.361465, -216.658981, 13.728298, 100.772482
1759229461.707618, 6.026654, 8.313865, -11.941230, -0.992008, -0.610687, -0.215343, -14.904694, -110.006714, -216.702972, 13.728298, 100.772482
1759229461.727340, 4.527585, 8.592790, -9.813683, -2.239132, 0.054403, -0.549313, -14.790405, -109.174850, -217.577240, 13.728298, 100.772482
1759229461.747562, 2.304419, 7.710377, -4.296395, -2.310735, 0.201198, -0.550891, -14.620255, -108.050079, -217.723740, 13.728298, 100.772482
1759229461.768194, -0.178218, 4.357297, 0.397138, -2.180425, 0.006000, -0.380359, -14.212936, -106.780090, -219.084045, 13.728298, 100.772482
1759229461.788204, 0.205901, 2.480692, 1.033397, -2.198348, 0.211236, -0.174366, -13.969727, -105.539169, -219.785538, 13.728298, 100.772482
1759229461.807625, 0.691475, 1.897554, 1.087267, -2.311663, 0.667566, -0.249000, -13.822357, -104.020782, -219.943924, 13.728298, 100.772482
1759229461.828208, 0.394594, 0.597802, -0.847098, -2.508926, 0.534092, -0.086122, -13.140472, -102.932129, -221.249084, 13.728298, 100.772482
1759229461.848195, 0.299874, 1.240047, -0.574459, -2.627409, 0.644610, 0.287833, -13.207062, -101.072876, -220.946182, 13.728298, 100.772482
1759229461.867907, 0.661249, 3.926640, 0.268151, -2.658244, 1.545010, 0.723810, -12.045303, -99.289688, -222.765900, 13.728298, 100.772482
1759229461.888277, 2.104653, 7.078008, 2.910302, -2.566497, 3.256111, 0.899641, -10.513306, -97.032471, -224.174515, 13.728298, 100.772482
1759229461.907617, 2.824110, 8.577826, 3.857209, -2.108006, 5.182509, 0.526477, -7.256226, -95.455948, -225.769440, 13.728298, 100.772482
1759229461.928278, 3.179649, 10.825383, 2.830844, -1.900716, 6.786625, 0.101861, -1.864014, -93.967865, -227.600845, 13.728298, 100.772482
1759229461.947373, 2.927510, 11.709891, 1.695993, 0.071105, 7.078823, 0.362240, 2.578949, -93.966980, -227.882309, 13.728298, 100.772482
1759229461.968193, 5.376180, 14.992640, -8.919598, 4.264385, 3.898677, 2.129529, 6.156387, -96.736801, -227.860474, 13.728298, 100.772482
1759229461.988202, 15.263335, 13.805715, -24.794502, -0.747645, 2.175517, 0.699823, 8.101318, -96.320572, -227.720566, 13.728298, 100.772482
1759229462.007627, 12.311733, 7.378930, -12.210578, -3.127594, -2.447699, -0.628796, 6.730469, -94.849197, -227.940659, 13.728298, 100.772482
1759229462.028203, 12.216264, 4.460697, -3.241450, -2.910614, -6.129229, -1.219069, 2.237411, -92.427109, -228.324966, 13.728298, 100.772482
1759229462.047542, 8.105869, 6.442497, 3.935170, -1.418994, -7.069476, -1.275163, -3.438492, -91.500275, -227.242767, 13.728298, 100.772482
1759229462.068172, 4.135086, 6.738481, 7.202507, 0.331328, -5.389019, -0.910209, -7.386414, -91.542252, -226.529831, 13.728298, 100.772482
1759229462.088197, 1.956063, 5.644330, 4.536863, 1.100190, -3.814754, -0.249553, -10.147232, -92.482101, -225.065079, 13.728298, 100.772482
1759229462.107594, 0.726640, 6.903980, 2.066495, 0.799817, -2.342425, -0.232062, -11.932495, -93.346649, -224.182007, 13.728298, 100.772482
1759229462.128166, -1.090708, 6.073341, -0.010475, -0.379985, -0.526529, -0.626063, -12.565369, -92.954865, -223.635635, 13.728298, 100.772482
1759229462.147525, -3.184587, 4.832696, -2.954594, -1.431853, 1.077447, -0.776829, -12.398041, -92.215576, -223.962799, 13.728298, 100.772482
1759229462.168179, -5.068525, 5.524022, -7.836671, -1.637156, 0.337156, -1.182274, -12.311050, -91.679199, -224.301117, 13.728298, 100.772482
1759229462.188203, -4.243872, 6.900688, -2.578106, -1.993706, -1.723779, -1.169999, -13.345474, -91.158340, -224.043686, 13.728298, 100.772482
1759229462.207608, -0.332345, 9.425074, 6.616676, -1.347406, -1.423339, -0.563910, -14.798370, -90.117981, -222.777802, 13.728298, 100.772482
1759229462.228224, 1.035941, 17.299304, 8.212710, -0.097250, -0.641809, 0.398366, -15.234726, -89.892471, -222.730011, 13.728298, 100.772482
