SamplingTime, AccelerationX, AccelerationY, AccelerationZ, GyroX, GyroY, GyroZ, MagneticFieldX, MagneticFieldY, MagneticFieldZ, Latitude, Longitude
1759316039.417063, 2.344073, 1.666514, -7.478139, -0.361693, 0.273114, 0.058871, 28.649765, -104.696503, 64.568878, 13.727805, 100.772331
1759316039.436942, 2.622698, 1.074398, -8.667309, -0.095195, 0.004925, 0.255351, 28.789124, -104.545151, 65.110687, 13.727805, 100.772331
1759316039.457390, 2.597559, 0.450409, -11.302128, 0.047442, 1.346486, 0.271391, 29.393341, -104.674728, 64.165756, 13.727805, 100.772331
1759316039.476710, 1.237054, 2.075623, -11.541099, -0.112056, 1.925161, 0.278630, 29.772720, -104.612137, 64.027817, 13.727805, 100.772331
1759316039.496819, 1.929128, 2.450316, -10.003423, -0.252804, 2.785029, 0.631009, 30.576447, -104.147614, 63.665894, 13.727805, 100.772331
1759316039.516842, 3.973627, 0.592565, -7.591265, -0.448828, 2.875445, 1.023489, 31.925247, -103.649277, 63.518723, 13.727805, 100.772331
1759316039.536932, 8.700230, -2.564938, -4.594323, -0.409445, 1.520652, 1.221910, 32.972336, -103.497711, 63.087936, 13.727805, 100.772331
1759316039.557360, 7.332841, -0.235679, -4.259883, -0.019629, 0.035810, 0.890204, 33.637802, -103.296692, 63.423279, 13.727805, 100.772331
1759316039.576615, 6.432322, 0.161758, -5.988796, 0.265155, -0.612264, 0.832481, 34.222748, -103.371246, 62.701813, 13.727805, 100.772331
1759316039.597096, 4.576965, 1.707515, -7.835324, 0.456273, -1.217041, 1.004660, 34.461197, -103.062042, 63.036728, 13.727805, 100.772331
1759316039.617356, 4.817882, -0.553659, -7.302465, 0.942541, -1.926247, 0.678044, 34.362869, -103.036621, 62.978394, 13.727805, 100.772331
1759316039.636983, 4.195240, -2.680458, -7.252186, 0.824830, -1.435620, -0.084716, 33.972305, -103.601395, 62.902847, 13.727805, 100.772331
1759316039.657359, 4.665700, -1.912369, -13.009493, 0.111637, 0.196914, -0.152260, 33.896500, -103.698181, 62.256409, 13.727805, 100.772331
1759316039.677403, 4.754884, -1.416918, -8.467693, -0.945175, 0.631364, 0.326196, 34.461548, -103.559448, 63.005219, 13.727805, 100.772331
1759316039.697166, 3.406650, 2.267010, -10.270826, -1.569803, 1.047685, 1.129877, 35.276749, -102.909286, 63.617233, 13.727805, 100.772331
1759316039.717362, 4.273351, 1.988534, -8.156746, -1.011707, 0.599349, 1.851463, 36.672089, -102.448914, 64.053894, 13.727805, 100.772331
1759316039.736944, 4.633828, 2.293944, -7.740454, -1.112836, 0.802121, 2.556233, 38.364975, -102.033554, 64.815460, 13.727805, 100.772331
1759316039.756845, 3.755455, 2.983475, -9.767894, -2.282748, 1.619838, 2.934513, 40.573090, -101.247543, 66.370926, 13.727805, 100.772331
1759316039.777352, 3.644125, 0.112677, -7.841759, -3.212146, 1.450579, 2.510304, 42.095886, -100.628555, 68.755844, 13.727805, 100.772331
1759316039.797334, 4.681113, -2.916587, -6.552331, -3.620027, 1.272968, 1.385410, 43.399460, -100.188217, 70.659531, 13.727805, 100.772331
1759316039.816816, 5.626224, -1.849820, -7.029675, -3.867815, 0.732471, 0.674072, 43.478577, -100.299179, 72.068802, 13.727805, 100.772331
1759316039.837336, 8.125023, 1.308132, -6.564452, -2.617807, -0.522069, 1.172706, 44.408112, -100.220520, 74.125595, 13.727805, 100.772331
1759316039.857221, 7.783699, 4.848558, -9.135076, -1.431511, 0.176727, 1.740715, 45.519974, -100.501816, 75.124756, 13.727805, 100.772331
1759316039.876791, 8.199392, 3.804386, -11.676521, -1.676257, 1.942543, 2.124771, 46.674377, -100.609970, 77.312347, 13.727805, 100.772331
1759316039.896830, 7.430106, 1.609352, -8.647557, -2.742364, 2.072327, 1.545467, 47.648483, -100.786972, 78.375732, 13.727805, 100.772331
1759316039.917351, 7.644836, -1.308880, -5.656002, -3.391496, 1.717604, 0.630325, 48.193832, -101.255371, 80.830536, 13.727805, 100.772331
1759316039.937334, 6.527641, -0.075417, -7.302614, -3.689514, 2.291291, 0.232178, 48.120926, -101.819672, 83.218109, 13.727805, 100.772331
1759316039.957150, 6.586598, -0.257377, -7.415142, -3.193971, 2.217155, -0.130722, 47.694794, -102.142334, 85.410736, 13.727805, 100.772331
1759316039.977348, 7.359926, -0.004489, -4.885219, -2.132508, 1.295768, -0.620480, 47.053024, -102.801834, 87.116150, 13.727805, 100.772331
1759316039.997348, 6.937199, 2.871546, -5.517737, -1.529459, 1.521116, -0.725274, 46.289062, -103.088730, 87.960083, 13.727805, 100.772331
1759316040.017349, 7.470807, 2.994099, -3.518579, -1.851388, 0.632161, -0.390958, 45.809402, -103.383820, 88.997467, 13.727805, 100.772331
1759316040.036912, 7.598448, 4.134038, -2.820519, -2.090642, 0.200869, -0.011441, 45.754822, -103.802292, 90.456543, 13.727805, 100.772331
1759316040.056892, 6.623709, 3.576039, -4.083461, -1.825587, 0.121545, 0.021949, 45.561005, -104.485153, 91.472321, 13.727805, 100.772331
1759316040.077336, 7.892635, 0.856376, -9.863812, -1.679400, 1.697987, -0.566488, 44.757568, -105.103745, 92.504684, 13.727805, 100.772331
1759316040.096818, 6.231359, 2.638859, -9.470564, -0.997951, 2.550150, -0.232211, 43.671860, -105.407974, 93.338013, 13.727805, 100.772331
1759316040.117341, 6.416610, 4.243124, -4.644153, -0.522027, 2.319395, -0.545985, 42.718613, -105.730881, 93.634750, 13.727805, 100.772331
1759316040.137361, 8.606556, 5.220856, -1.446098, -0.374713, 1.498499, -0.218379, 42.065948, -105.978027, 93.711533, 13.727805, 100.772331
1759316040.156819, 9.733627, 6.222231, -1.534683, -0.909900, 1.785811, 0.141945, 41.322235, -106.114075, 94.152069, 13.727805, 100.772331
1759316040.177334, 8.747814, 5.232378, -5.438429, 0.316827, 3.485088, 1.109818, 40.502472, -105.920258, 94.427231, 13.727805, 100.772331
1759316040.197330, 9.546729, 3.495684, 1.029058, 2.160577, 0.556364, 1.758148, 41.270630, -105.328598, 93.014450, 13.727805, 100.772331
1759316040.217282, 8.314015, 3.000533, -1.329979, 1.726259, 0.320221, 1.599376, 42.135223, -104.732666, 92.269394, 13.727805, 100.772331
1759316040.237327, 11.517906, 3.450942, -0.208595, 0.892541, -0.306934, 1.514286, 42.746368, -104.700134, 92.066711, 13.727805, 100.772331
1759316040.256522, 12.622231, 2.915689, 0.370203, -1.842553, -0.811925, 1.424254, 43.970459, -104.870331, 92.596054, 13.727805, 100.772331
1759316040.276787, 10.472388, 0.679953, -4.888661, -2.524163, 1.141070, 0.450168, 44.271484, -105.729858, 93.568817, 13.727805, 100.772331
1759316040.296843, 9.173084, -0.036661, -3.797952, -1.117170, 1.403209, -0.619538, 43.425613, -106.440689, 94.501328, 13.727805, 100.772331
1759316040.316783, 9.390209, 3.651906, -0.505476, -1.053007, 0.214743, -0.059062, 42.942245, -106.833023, 94.775131, 13.727805, 100.772331
1759316040.337142, 8.108712, 3.112462, -2.044499, -1.915959, 0.495251, 0.010689, 43.234207, -107.363708, 96.112228, 13.727805, 100.772331
1759316040.356354, 7.841160, 1.647360, -2.097171, -1.828089, 0.596912, -0.176147, 42.780319, -108.241440, 97.078979, 13.727805, 100.772331
1759316040.376814, 7.779210, 2.651728, -1.015291, -1.307093, 0.473886, -0.226984, 42.330215, -108.876892, 97.766846, 13.727805, 100.772331
1759316040.397332, 8.628254, 4.069993, -0.326060, -1.320902, 0.539855, -0.013266, 42.149902, -109.489136, 98.124084, 13.727805, 100.772331
1759316040.416829, 9.946561, 4.721216, 0.307206, -0.905933, 0.103001, 0.466699, 41.935211, -109.869766, 98.623734, 13.727805, 100.772331
1759316040.436987, 8.893262, 2.742259, 0.242712, -0.779855, 0.181795, 0.253218, 42.050308, -110.445602, 98.932770, 13.727805, 100.772331
1759316040.456779, 9.485378, 3.005920, -1.498321, -0.592991, 0.535469, 0.114205, 42.061752, -110.703613, 99.345963, 13.727805, 100.772331
1759316040.476771, 9.400234, 2.541894, -0.072874, -0.631876, 0.136765, 0.037501, 41.745239, -111.112091, 99.910492, 13.727805, 100.772331
1759316040.496788, 9.024943, 2.322974, 0.248698, -0.721446, -0.093153, 0.038342, 41.924667, -111.513474, 100.213562, 13.727805, 100.772331
1759316040.516790, 8.902989, 2.851045, -0.434398, -0.378427, 0.084240, 0.176064, 42.070221, -111.611649, 100.413483, 13.727805, 100.772331
1759316040.536838, 9.370307, 1.859098, -0.458490, -0.496261, 0.305165, -0.147756, 41.880203, -111.776657, 100.723282, 13.727805, 100.772331
1759316040.556787, 8.648305, 1.911022, -0.536301, -0.331707, 0.215943, 0.094463, 41.700806, -111.965271, 100.640259, 13.727805, 100.772331
1759316040.576770, 8.672098, 2.264316, 0.679355, -0.349373, -0.091259, 0.367917, 41.687500, -112.207321, 101.267746, 13.727805, 100.772331
1759316040.597337, 7.807791, 1.346290, 0.164152, -0.045951, -0.226754, 0.552224, 42.057678, -112.551102, 100.903992, 13.727805, 100.772331
1759316040.616563, 7.196970, 4.205266, -1.426944, 0.422182, 0.017494, 0.048655, 42.021011, -112.324707, 101.071716, 13.727805, 100.772331
1759316040.636674, 9.024943, -0.211887, 2.052130, -1.034717, -0.068829, -1.345430, 41.780731, -112.358459, 101.343582, 13.727805, 100.772331
1759316040.656787, 7.875277, -2.417844, -1.375768, 0.227999, 0.671816, -2.440565, 40.703568, -112.767380, 101.231644, 13.727805, 100.772331
1759316040.677081, 8.340052, 7.485471, -1.524209, 0.872991, 0.177152, -2.279528, 39.710007, -112.397919, 101.401566, 13.727805, 100.772331
1759316040.696784, 9.351452, 1.339107, 2.460641, -0.209633, -0.198914, -2.755218, 38.813705, -112.716187, 100.588074, 13.727805, 100.772331
1759316040.716801, 12.208633, 5.395633, -0.159065, -0.411899, 0.004763, -1.838611, 37.788681, -113.052490, 101.235397, 13.727805, 100.772331
1759316040.736519, 10.694899, 8.164677, 0.259472, 0.497134, -0.569996, -1.762878, 37.289200, -112.894531, 100.809311, 13.727805, 100.772331
1759316040.756790, 5.890484, 0.900519, 0.423325, 0.151906, -0.696529, -2.888751, 37.066574, -112.836853, 101.192642, 13.727805, 100.772331
1759316040.776788, 3.288586, -0.423774, -2.160318, -0.543657, -0.918446, -4.115625, 35.954361, -112.948105, 101.302536, 13.727805, 100.772331
1759316040.797330, 5.136161, 1.321899, -2.254291, -0.787212, -0.807172, -5.302736, 34.593079, -114.008835, 101.319778, 13.727805, 100.772331
1759316040.816780, 6.220585, 3.268534, -1.671452, -1.129664, -0.217855, -6.605678, 32.787048, -115.307175, 102.854156, 13.727805, 100.772331
1759316040.836366, 4.814291, 3.928137, -0.570119, -1.464359, 0.466406, -7.982552, 30.226807, -117.288834, 101.824142, 13.727805, 100.772331
1759316040.857333, 0.640299, 7.068581, 2.727145, -0.185493, -2.612017, -6.383373, 28.091446, -120.257080, 102.372787, 13.727805, 100.772331
1759316040.876397, 4.081366, 21.639842, 6.126014, 0.456418, -0.909562, -4.010885, 28.663773, -121.883118, 103.438766, 13.727805, 100.772331
1759316040.897342, 4.962282, 12.803592, -5.152472, -0.057634, 0.383959, -2.335991, 27.905228, -122.811676, 102.783966, 13.727805, 100.772331
1759316040.917332, 0.263362, 15.279945, 0.008829, -0.237683, -0.241680, -0.921721, 27.445877, -123.132874, 102.766418, 13.727805, 100.772331
1759316040.936794, -0.471358, 9.707590, -4.509928, -0.411694, 1.376735, 0.354467, 26.870193, -123.387726, 102.511734, 13.727805, 100.772331
1759316040.957351, 0.853832, 8.509442, -2.374449, -0.134668, 1.455550, 0.998855, 25.933289, -122.887970, 102.154724, 13.727805, 100.772331
1759316040.977330, 3.035997, 4.058621, 0.433650, 0.106824, 1.337503, 0.693032, 25.318207, -122.654724, 102.563507, 13.727805, 100.772331
1759316040.996629, 2.326266, 2.673126, 1.097592, 0.414826, 1.192102, 0.080669, 24.845245, -122.430801, 101.396179, 13.727805, 100.772331
1759316041.017332, 2.045696, 2.388366, 0.545579, 0.381216, 0.578190, -1.028734, 24.239944, -122.348999, 101.106155, 13.727805, 100.772331
1759316041.036770, 1.440112, 2.931101, 1.761833, -0.126558, -0.214954, -2.124377, 23.822891, -123.103241, 101.718979, 13.727805, 100.772331
1759316041.057329, 0.205004, 2.981080, -0.582988, -0.520228, 0.013843, -2.985347, 23.215607, -124.369659, 101.364960, 13.727805, 100.772331
1759316041.077329, -0.147692, 1.776947, 1.145925, -0.770501, -0.346707, -3.634205, 22.848312, -125.901627, 102.501358, 13.727805, 100.772331
1759316041.097330, -0.186299, 3.174562, 1.857452, -1.048508, -2.544547, -4.315315, 24.992493, -129.680573, 101.228455, 13.727805, 100.772331
1759316041.116792, 0.948403, 43.166408, 5.388300, -1.162876, -5.621939, -5.413203, 27.167206, -132.118744, 103.244064, 13.727805, 100.772331
1759316041.136761, -5.487809, 25.224710, 7.804948, -0.265264, -8.676273, -2.076203, 30.681870, -132.062073, 106.241974, 13.727805, 100.772331
1759316041.156697, -4.901978, 7.532607, 2.649633, 0.778815, -9.228235, 0.021023, 36.352829, -131.546951, 107.252808, 13.727805, 100.772331
1759316041.176790, -3.304447, 2.675221, -1.852663, 1.426410, -6.691011, 0.427024, 41.281418, -130.684402, 108.011261, 13.727805, 100.772331
1759316041.197329, -1.789666, 3.780594, -3.802292, 0.721132, -2.807650, -0.078265, 44.026123, -130.371948, 107.097839, 13.727805, 100.772331
1759316041.216791, -1.419911, 7.594857, -2.604293, -0.384362, 0.681144, -0.674216, 44.122299, -130.216644, 107.309265, 13.727805, 100.772331
1759316041.236547, -1.343446, 10.655095, 1.133654, -0.709691, 1.494457, -0.612166, 43.390533, -130.820023, 106.867050, 13.727805, 100.772331
1759316041.256410, -1.660080, 12.627020, 2.941127, -0.279610, 0.987255, -0.008151, 42.432861, -131.217438, 107.284515, 13.727805, 100.772331
1759316041.276755, -1.056292, 10.012551, 3.597288, 0.251203, 0.133246, 0.339548, 41.732544, -131.045227, 107.667969, 13.727805, 100.772331
1759316041.297330, -1.517924, 8.999205, 2.347814, 0.156369, 0.166360, 0.355418, 42.079437, -131.041595, 106.855438, 13.727805, 100.772331
1759316041.316723, -2.290353, 9.548375, 0.655413, -0.076476, 0.960802, 0.364259, 41.728409, -130.996887, 107.676849, 13.727805, 100.772331
1759316041.336909, -2.682104, 9.166650, -0.036811, 0.164407, 1.695855, 0.166576, 40.823578, -130.945038, 106.742325, 13.727805, 100.772331
1759316041.357327, -2.805705, 9.188796, 0.643741, 0.517485, 1.914264, 0.061664, 39.593582, -130.697983, 106.895065, 13.727805, 100.772331
1759316041.377326, -2.604891, 9.445724, 1.205630, 0.527013, 1.703733, 0.044911, 38.477097, -130.455353, 107.320282, 13.727805, 100.772331
1759316041.397329, -2.194435, 9.750835, 1.448043, 0.263216, 1.218619, -0.026394, 37.404175, -130.274994, 106.585724, 13.727805, 100.772331
1759316041.417325, -1.749713, 10.233566, 1.491438, 0.116465, 0.605836, -0.089500, 36.842758, -130.373062, 106.886551, 13.727805, 100.772331
1759316041.437307, -1.277606, 9.406369, 1.063175, 0.146735, 0.045914, -0.051357, 36.638596, -130.212997, 106.436157, 13.727805, 100.772331
1759316041.457329, -0.998532, 9.288305, 0.938078, 0.082683, -0.317681, -0.030259, 36.725723, -130.129654, 106.688034, 13.727805, 100.772331
1759316041.477326, -1.049109, 9.323769, 0.487669, -0.129123, -0.376883, -0.033464, 37.147903, -130.045349, 107.505798, 13.727805, 100.772331
1759316041.497332, -0.983269, 9.785401, 0.008829, -0.207446, -0.124684, 0.027475, 37.293579, -130.124268, 106.514862, 13.727805, 100.772331
1759316041.516930, -0.811934, 9.537302, 1.011849, -0.076593, -0.133294, -0.050088, 37.219391, -130.211426, 106.721054, 13.727805, 100.772331
1759316041.536764, -0.944662, 10.127623, 1.412729, -0.000773, -0.262199, -0.163644, 37.398941, -130.251907, 107.483109, 13.727805, 100.772331
1759316041.556939, -1.067066, 9.347861, 1.330278, 0.014441, -0.423634, -0.125001, 37.654007, -130.251770, 106.862305, 13.727805, 100.772331
1759316041.577321, -0.810288, 8.159739, 0.673070, 0.089537, -0.339528, -0.021056, 37.791046, -130.155472, 107.655655, 13.727805, 100.772331
1759316041.597329, -1.052401, 9.350106, 0.334440, 0.083054, 0.017361, -0.098780, 37.949860, -130.179672, 106.960587, 13.727805, 100.772331
1759316041.616784, -1.101782, 9.602095, 0.635810, 0.054976, 0.288712, -0.059309, 37.778214, -130.205582, 106.741684, 13.727805, 100.772331
1759316041.637299, -1.160440, 10.019435, 1.019182, 0.031917, 0.220083, 0.007369, 37.627350, -130.159622, 107.375320, 13.727805, 100.772331
1759316041.657323, -1.315165, 10.168474, 0.787992, 0.007217, 0.120668, 0.081561, 37.825790, -130.259537, 106.932999, 13.727805, 100.772331
1759316041.676623, -1.424101, 9.722853, 0.345364, 0.051230, 0.116870, 0.071736, 37.644043, -129.925293, 106.888397, 13.727805, 100.772331
1759316041.697306, -1.601721, 9.562890, 0.205452, 0.104382, 0.115744, 0.034121, 37.294556, -129.980484, 106.846756, 13.727805, 100.772331
1759316041.717315, -1.720683, 9.492112, 0.372298, 0.052371, 0.041795, 0.027391, 37.457214, -129.917236, 106.334610, 13.727805, 100.772331
1759316041.737298, -1.830367, 9.196278, 0.314838, -0.019883, -0.018735, 0.068407, 37.528275, -129.912888, 106.726196, 13.727805, 100.772331
1759316041.757327, -2.415001, 9.406070, 1.301698, 0.096107, -0.224822, 0.020737, 37.633545, -129.863815, 107.097351, 13.727805, 100.772331
1759316041.776473, -2.151041, 9.749638, -0.078260, 0.117762, -0.008617, -0.106098, 37.548798, -129.754395, 107.383728, 13.727805, 100.772331
1759316041.796790, -1.631050, 9.568577, -0.701351, 0.163942, 0.493645, -0.064313, 37.416992, -129.700958, 106.732193, 13.727805, 100.772331
1759316041.816778, -1.064073, 9.093028, -0.033968, 0.099496, 0.649021, -0.030237, 37.177261, -129.604172, 107.301849, 13.727805, 100.772331
1759316041.837170, -1.051354, 9.413552, 0.808043, 0.012156, 0.463224, -0.044204, 36.648544, -129.712906, 106.562637, 13.727805, 100.772331
1759316041.856780, -0.899472, 10.155455, 0.768389, 0.060983, 0.349699, -0.025015, 36.437927, -129.559601, 106.577728, 13.727805, 100.772331
1759316041.877320, -0.845303, 10.090363, -0.317681, 0.093925, 0.544885, 0.049857, 36.108261, -129.628448, 107.162384, 13.727805, 100.772331
1759316041.897330, -1.066018, 9.590274, -0.319327, 0.039557, 0.690134, 0.109059, 35.688416, -129.781021, 106.458969, 13.727805, 100.772331
1759316041.917319, -1.180341, 9.332149, 0.733823, 0.008306, 0.370672, 0.121185, 35.354340, -129.509796, 105.931534, 13.727805, 100.772331
1759316041.936961, -1.362151, 9.396793, 0.729932, 0.008040, -0.052705, 0.060278, 35.348206, -129.569275, 106.366470, 13.727805, 100.772331
1759316041.957334, -1.412579, 9.592968, 0.570867, 0.058137, -0.273722, -0.023819, 35.499374, -129.500900, 106.311935, 13.727805, 100.772331
1759316041.977321, -1.395820, 9.808146, 0.241515, 0.071951, -0.316863, 0.004312, 35.651581, -129.505692, 107.372192, 13.727805, 100.772331
1759316041.996939, -1.062128, 9.897330, 0.082151, 0.010558, 0.052639, 0.097994, 35.650711, -129.538971, 106.609848, 13.727805, 100.772331
1759316042.016861, -0.924461, 9.539697, -0.004639, 0.104707, 0.572673, 0.074410, 35.272263, -129.488968, 106.812012, 13.727805, 100.772331
1759316042.036833, -1.028609, 9.416994, 1.199046, 0.326322, 0.265597, 0.013606, 34.920990, -129.271729, 107.241669, 13.727805, 100.772331
1759316042.057327, -0.849044, 9.845556, 1.271471, 0.347058, -0.195333, 0.058813, 35.180359, -129.207565, 106.611847, 13.727805, 100.772331
1759316042.077297, -1.399561, 9.575610, 0.825102, 0.227777, -0.670391, 0.059313, 35.713928, -128.864304, 107.324585, 13.727805, 100.772331
1759316042.096782, -2.445228, 9.140463, -1.152658, 0.058601, -0.522845, -0.052463, 35.872055, -128.988434, 106.599609, 13.727805, 100.772331
1759316042.116776, -2.146252, 9.059809, -1.722927, -0.150293, 0.049185, -0.131416, 35.925232, -129.087250, 106.622986, 13.727805, 100.772331
1759316042.136684, -1.624765, 9.579500, -1.238550, -0.343681, 0.771749, -0.055538, 35.567245, -129.248505, 107.040924, 13.727805, 100.772331
1759316042.157312, -1.172710, 9.971102, 1.005265, -0.258907, 0.872139, 0.007833, 34.702438, -129.258560, 106.679092, 13.727805, 100.772331
1759316042.177322, -0.946009, 9.860220, 2.954594, -0.024676, 0.118387, -0.007458, 34.762894, -129.143280, 106.792313, 13.727805, 100.772331
1759316042.196435, -1.054795, 9.561095, 2.636016, 0.077937, -0.682394, -0.015597, 34.995407, -129.372482, 106.434082, 13.727805, 100.772331
1759316042.217317, -1.084124, 9.615413, 0.863858, 0.085654, -0.858284, 0.110556, 35.577499, -129.204590, 106.672226, 13.727805, 100.772331
1759316042.236534, -1.552640, 9.427768, -0.784251, 0.078395, -0.162004, 0.123138, 35.946579, -129.262146, 106.128128, 13.727805, 100.772331
1759316042.257320, -2.055871, 9.628581, -0.504578, 0.086179, 0.320954, 0.074851, 36.037018, -129.115860, 105.981155, 13.727805, 100.772331
1759316042.276622, -2.073678, 9.445275, 0.334141, 0.007879, 0.222880, 0.039445, 35.639526, -129.021851, 106.895569, 13.727805, 100.772331
1759316042.297157, -2.111686, 9.358036, 0.894534, -0.067207, -0.065097, 0.016849, 35.551987, -129.168518, 106.362930, 13.727805, 100.772331
1759316042.317166, -1.884536, 9.322872, 0.675015, -0.065992, -0.153982, -0.044538, 35.745987, -129.121918, 107.194260, 13.727805, 100.772331
1759316042.337291, -1.471087, 9.608380, 0.679205, -0.055322, -0.113714, 0.001362, 35.739182, -129.234940, 106.485107, 13.727805, 100.772331
1759316042.357319, -1.142782, 9.592369, 0.741454, -0.077055, -0.115387, 0.015591, 35.819565, -129.314896, 106.516617, 13.727805, 100.772331
1759316042.377320, -1.069310, 9.540744, 0.527323, -0.094674, -0.044228, 0.030782, 35.893784, -129.275024, 107.144043, 13.727805, 100.772331
1759316042.397326, -1.149366, 9.603741, 0.305111, -0.077656, 0.102458, 0.050648, 35.863342, -129.534668, 106.805954, 13.727805, 100.772331
1759316042.417019, -1.281945, 9.676316, 0.232537, -0.040927, 0.213478, 0.041323, 35.839096, -129.420074, 106.436508, 13.727805, 100.772331
1759316042.437296, -1.230021, 9.473706, 0.403573, -0.029915, 0.148706, 0.015999, 35.670135, -129.168777, 106.557907, 13.727805, 100.772331
1759316042.457316, -1.096694, 9.536255, 0.432004, -0.068649, 0.023863, 0.019524, 35.818283, -129.348190, 106.350632, 13.727805, 100.772331
1759316042.477318, -1.175254, 9.420585, 0.262015, -0.098310, 0.005726, 0.060864, 35.545044, -129.425201, 107.189194, 13.727805, 100.772331
1759316042.497317, -1.144578, 9.977087, 0.464026, -0.079070, -0.051237, 0.016793, 35.783646, -129.478500, 106.779022, 13.727805, 100.772331
1759316042.516855, -1.229423, 9.723302, 0.367809, -0.006852, -0.050225, 0.021600, 35.610031, -129.620102, 106.632935, 13.727805, 100.772331
1759316042.536751, -1.091157, 9.576208, 0.370353, 0.024775, -0.076783, 0.016736, 35.637085, -129.515808, 107.290298, 13.727805, 100.772331
1759316042.556768, -1.039084, 9.488969, 0.357335, -0.002420, -0.153997, 0.010153, 35.856766, -129.504013, 106.704498, 13.727805, 100.772331
1759316042.576770, -1.048660, 9.597457, 0.514155, -0.058001, -0.258468, 0.024529, 36.071991, -129.369904, 107.478638, 13.727805, 100.772331
1759316042.596771, -1.090260, 9.804106, 0.609175, -0.078520, -0.345881, 0.048868, 36.094513, -129.712524, 106.632385, 13.727805, 100.772331
1759316042.616699, -1.180192, 9.750087, 0.411054, -0.067243, -0.256047, 0.037085, 36.364899, -129.575089, 106.419220, 13.727805, 100.772331
1759316042.636745, -1.252616, 9.336189, 0.526724, -0.050095, -0.080200, 0.029287, 36.518936, -129.522934, 107.457367, 13.727805, 100.772331
1759316042.656766, -1.401955, 9.026589, 0.890194, -0.062846, 0.031237, 0.053567, 36.482269, -129.681900, 106.492203, 13.727805, 100.772331
1759316042.676767, -1.555932, 9.470863, 1.041029, -0.076004, 0.080631, 0.049214, 36.332779, -129.605865, 107.234909, 13.727805, 100.772331
1759316042.697311, -1.525256, 9.720608, 1.019631, -0.034112, 0.088086, 0.026754, 36.201767, -129.700470, 106.486435, 13.727805, 100.772331
1759316042.716677, -1.345541, 9.775376, 0.572513, 0.034225, 0.181142, 0.017042, 36.326157, -129.788773, 107.073502, 13.727805, 100.772331
1759316042.736751, -1.188721, 9.770438, 0.242114, 0.084560, 0.310301, 0.012131, 36.218918, -129.830139, 106.323135, 13.727805, 100.772331
1759316042.756773, -1.140538, 9.766547, 0.386065, 0.072950, 0.311855, -0.005370, 35.933441, -129.633072, 106.550354, 13.727805, 100.772331
1759316042.776769, -1.062128, 9.501988, 0.560094, -0.007063, 0.198913, -0.020474, 35.741409, -129.629532, 107.129425, 13.727805, 100.772331
1759316042.797310, -0.920122, 9.398139, 0.620697, -0.046128, 0.060554, 0.000850, 35.664719, -129.721191, 106.402176, 13.727805, 100.772331
1759316042.816528, -0.886304, 9.404873, 0.614262, -0.011592, -0.028222, 0.021343, 35.615921, -129.634995, 107.201736, 13.727805, 100.772331
1759316042.837150, -1.063474, 9.761011, 0.556951, -0.007626, -0.053890, 0.035927, 35.640060, -129.683365, 106.269882, 13.727805, 100.772331
1759316042.857312, -1.152060, 9.779117, 0.371849, -0.041453, -0.038624, 0.030660, 35.829102, -129.771225, 106.367767, 13.727805, 100.772331
1759316042.877309, -1.165378, 9.463381, 0.232686, -0.045855, -0.015654, 0.030934, 35.928955, -129.712814, 107.448730, 13.727805, 100.772331
1759316042.897310, -1.271321, 9.265411, 0.612467, -0.074531, -0.091991, 0.027154, 35.770248, -129.793411, 106.022598, 13.727805, 100.772331
1759316042.916374, -1.304391, 9.374796, 0.963367, -0.089810, -0.227234, 0.021984, 36.026779, -129.771088, 106.729492, 13.727805, 100.772331
1759316042.937283, -1.301398, 9.774777, 0.838270, -0.082610, -0.233439, 0.023163, 36.078003, -129.792130, 106.979874, 13.727805, 100.772331
1759316042.957304, -1.235258, 9.790788, 0.640599, -0.027964, -0.126181, 0.030443, 36.210526, -129.896133, 106.483414, 13.727805, 100.772331
1759316042.977305, -1.249624, 9.579949, 0.429759, -0.021074, 0.031452, 0.027691, 36.233353, -129.918060, 107.200684, 13.727805, 100.772331
1759316042.997307, -1.298405, 9.474305, 0.481384, -0.055085, 0.112446, 0.013367, 35.961960, -129.941360, 106.641800, 13.727805, 100.772331
1759316043.017321, -1.289577, 9.462484, 0.781108, -0.055047, 0.013782, 0.017197, 35.846420, -130.029755, 106.391022, 13.727805, 100.772331
1759316043.037289, -1.369633, 9.614366, 0.967257, -0.086578, -0.128333, 0.027905, 36.144287, -129.902649, 107.327728, 13.727805, 100.772331
1759316043.057314, -1.380108, 9.764153, 0.782006, -0.083351, -0.152246, 0.038960, 36.210526, -130.106857, 106.785889, 13.727805, 100.772331
1759316043.077311, -1.221791, 9.852289, 0.395343, -0.006466, -0.017032, 0.045080, 36.393631, -130.023544, 107.622604, 13.727805, 100.772331
1759316043.097307, -1.060033, 9.621848, 0.316484, 0.054236, 0.121709, 0.041270, 36.038803, -130.012543, 106.657440, 13.727805, 100.772331
1759316043.117314, -1.028908, 9.412505, 0.543484, 0.023667, 0.122856, 0.039358, 35.948700, -129.908905, 106.395340, 13.727805, 100.772331
1759316043.137287, -1.086968, 9.357438, 0.897077, -0.037954, 0.002732, 0.019849, 36.187241, -129.976288, 106.665512, 13.727805, 100.772331
1759316043.157306, -1.134403, 9.495105, 0.991199, -0.026889, -0.102612, 0.010756, 36.257431, -130.022888, 106.725510, 13.727805, 100.772331
1759316043.176591, -1.080533, 9.696966, 0.812532, -0.000788, -0.099597, 0.027018, 36.434891, -129.973450, 107.172104, 13.727805, 100.772331
1759316043.197302, -0.902464, 9.682750, 0.524629, 0.013005, -0.027503, 0.002009, 36.469147, -130.043320, 107.004272, 13.727805, 100.772331
1759316043.217302, -0.689829, 9.620501, 0.445621, -0.010371, 0.043409, 0.027695, 36.325272, -129.938522, 107.668289, 13.727805, 100.772331
1759316043.237278, -0.723049, 9.575460, 0.787842, -0.093273, -0.022032, 0.059756, 36.348801, -130.089020, 107.000519, 13.727805, 100.772331
1759316043.257324, -0.919673, 9.561394, 0.993444, -0.113988, -0.132829, 0.073530, 36.254013, -130.121460, 106.576950, 13.727805, 100.772331
1759316043.276653, -1.151461, 9.546729, 0.796521, -0.052075, -0.129792, 0.055463, 36.279022, -130.257706, 107.425217, 13.727805, 100.772331
1759316043.297307, -1.203086, 9.665093, 0.475399, 0.016748, -0.006751, 0.037534, 36.407608, -130.161682, 106.821228, 13.727805, 100.772331
1759316043.317317, -1.175104, 9.741258, 0.434697, 0.011199, 0.079299, 0.026009, 35.981628, -130.123672, 107.232452, 13.727805, 100.772331
1759316043.337275, -1.039233, 9.478495, 0.707636, -0.029246, -0.037401, 0.004877, 36.303024, -130.053574, 107.019455, 13.727805, 100.772331
1759316043.357328, -0.987758, 9.485827, 0.832434, -0.041833, -0.105489, 0.011333, 36.436569, -130.113831, 106.453751, 13.727805, 100.772331
1759316043.376794, -0.902315, 9.501689, 1.028908, -0.054517, -0.207676, 0.031455, 36.477478, -130.078125, 107.921402, 13.727805, 100.772331
1759316043.396765, -0.956334, 9.550470, 0.983418, -0.051035, -0.207655, 0.046324, 36.727615, -130.062729, 106.923813, 13.727805, 100.772331
1759316043.416760, -1.063624, 9.589975, 0.748637, -0.013761, -0.088381, 0.060449, 36.665802, -130.036133, 106.595932, 13.727805, 100.772331
1759316043.436740, -1.184082, 9.612869, 0.612616, 0.029369, 0.033887, 0.070716, 36.739548, -130.015656, 107.574921, 13.727805, 100.772331
1759316043.457291, -1.292420, 9.500342, 0.506823, 0.049680, 0.082952, 0.057250, 36.696671, -130.227692, 107.193817, 13.727805, 100.772331
1759316043.476733, -1.310975, 9.470414, 0.475997, 0.057344, 0.076748, 0.046472, 36.843781, -129.888947, 107.687698, 13.727805, 100.772331
1759316043.496751, -1.230171, 9.767595, 0.558448, 0.085562, -0.018370, 0.002255, 36.489914, -129.944809, 106.967773, 13.727805, 100.772331
1759316043.516741, -1.004817, 9.531616, 0.728137, 0.098847, -0.047394, -0.007980, 36.614258, -129.929962, 106.662292, 13.727805, 100.772331
1759316043.536734, -0.947056, 9.009082, 1.182736, 0.061775, -0.131038, -0.029614, 36.677200, -129.936920, 107.671753, 13.727805, 100.772331
1759316043.556739, -1.008557, 9.149591, 1.436072, -0.008613, -0.345881, -0.039383, 36.860291, -129.890778, 106.820572, 13.727805, 100.772331
1759316043.576726, -0.933290, 9.543587, 1.267431, 0.067540, -0.328964, -0.035881, 37.209351, -129.885620, 108.082932, 13.727805, 100.772331
1759316043.597296, -0.821660, 10.449643, 0.979079, 0.180462, -0.168030, -0.037455, 37.178253, -129.745499, 107.074753, 13.727805, 100.772331
1759316043.617299, -0.420182, 10.704925, 0.655862, 0.280735, -0.018720, -0.005905, 37.468750, -129.504608, 107.013168, 13.727805, 100.772331
1759316043.636960, -0.119560, 9.850344, 0.888099, 0.227673, -0.063282, 0.133944, 37.539658, -129.634369, 107.338150, 13.727805, 100.772331
1759316043.656743, -0.057760, 8.814403, 1.094749, 0.026323, -0.249465, 0.211201, 37.591400, -129.503006, 107.078857, 13.727805, 100.772331
1759316043.676733, -0.215179, 8.489540, 0.533757, -0.098120, -0.297720, 0.094797, 37.556091, -129.418625, 108.158035, 13.727805, 100.772331
1759316043.697303, -1.020528, 9.679907, 0.095918, -0.042119, -0.265308, 0.087304, 37.768341, -129.482254, 107.136765, 13.727805, 100.772331
1759316043.716755, -1.376965, 10.485257, -0.879420, 0.068246, -0.058861, 0.093577, 38.023468, -129.416885, 108.313507, 13.727805, 100.772331
1759316043.736735, -1.094449, 10.190620, -1.164480, 0.145390, 0.095691, 0.019290, 38.111298, -129.434769, 107.066498, 13.727805, 100.772331
1759316043.756758, -0.730531, 9.871742, -0.854880, 0.050266, 0.193351, 0.024245, 37.887009, -129.399170, 106.955383, 13.727805, 100.772331
1759316043.776748, -0.374693, 9.570522, -0.494552, 0.032021, 0.253385, 0.055626, 37.788437, -129.410950, 107.825485, 13.727805, 100.772331
1759316043.797297, -0.199617, 9.377190, -0.187047, 0.131856, 0.282168, 0.097639, 37.527100, -129.295715, 107.167877, 13.727805, 100.772331
1759316043.816743, -0.274136, 9.158420, -0.301071, 0.346734, 0.303359, 0.089109, 37.391434, -129.225281, 107.184448, 13.727805, 100.772331
1759316043.837273, -0.387262, 9.071181, -0.856376, 0.666217, 0.390590, -0.029853, 37.125198, -129.059738, 106.995377, 13.727805, 100.772331
1759316043.857322, -0.440982, 8.686912, -0.791433, 0.648559, 0.446178, -0.146802, 37.046738, -128.477890, 107.089188, 13.727805, 100.772331
1759316043.876478, -0.507421, 8.417115, -1.125574, 0.550625, 0.499085, -0.060716, 36.647003, -128.052826, 107.817703, 13.727805, 100.772331
1759316043.897295, -0.559196, 7.712322, -1.392079, 0.587614, 0.714575, 0.000130, 36.061600, -127.804459, 106.833771, 13.727805, 100.772331
1759316043.917311, -0.774674, 7.038504, -1.647809, 0.778224, 0.934180, -0.009909, 35.628571, -127.362869, 106.521667, 13.727805, 100.772331
1759316043.937210, -1.102530, 7.273884, -2.549226, 1.171827, 1.002269, -0.063984, 35.229233, -126.665192, 107.408325, 13.727805, 100.772331
1759316043.957307, -1.266682, 8.214955, -2.731784, 1.033615, 0.675976, -0.119855, 34.677505, -126.019028, 106.320099, 13.727805, 100.772331
1759316043.977292, -1.349432, 9.432706, -3.503764, 0.820812, 0.509852, -0.143621, 34.478607, -125.696640, 106.679443, 13.727805, 100.772331
1759316043.997297, -0.977582, 8.585757, -3.002927, 0.881982, 1.327047, -0.194028, 33.650772, -125.119812, 105.636398, 13.727805, 100.772331
1759316044.016753, -0.915034, 5.984457, 0.551115, 0.491393, 1.288064, -0.445537, 32.379166, -124.885773, 105.751160, 13.727805, 100.772331
1759316044.037269, -0.881066, 6.118981, -0.252289, 0.780428, 0.998490, -0.328242, 31.920776, -124.427414, 106.374405, 13.727805, 100.772331
1759316044.057300, -0.540341, 6.997653, -0.789338, 0.598586, 0.625093, -0.358895, 31.466415, -124.322266, 105.091553, 13.727805, 100.772331
1759316044.076750, 0.037409, 8.066963, -3.538181, 0.851304, 0.883488, -0.400865, 31.026184, -124.030869, 105.591095, 13.727805, 100.772331
1759316044.096758, -0.361973, 7.117064, -1.977311, 0.534112, 0.973278, -0.459003, 30.866150, -123.812210, 104.749374, 13.727805, 100.772331
1759316044.117145, 0.061950, 7.153276, -1.701679, 0.503076, 1.164445, -0.415199, 29.780045, -123.657272, 104.073441, 13.727805, 100.772331
1759316044.137271, 0.873734, 8.485350, -1.633594, 0.012233, 0.894323, -0.486229, 29.748077, -123.824158, 103.682114, 13.727805, 100.772331
1759316044.157295, 1.515829, 11.440842, -3.027767, 0.168274, 0.753278, -0.427503, 29.066208, -123.804382, 103.382660, 13.727805, 100.772331
1759316044.176601, 2.663699, 12.607417, -4.278438, 0.146277, 0.417670, -0.649958, 28.601303, -123.977402, 103.971985, 13.727805, 100.772331
1759316044.197290, 1.401506, 11.758373, -0.455048, 0.144141, 0.021251, -0.366591, 28.241913, -124.090759, 103.621628, 13.727805, 100.772331
1759316044.216991, 1.953220, 11.079019, -3.440169, 1.394807, 0.356743, -0.148907, 28.093353, -123.770691, 104.216995, 13.727805, 100.772331
1759316044.236866, -0.272041, 9.580996, -2.899827, 1.599220, 0.009552, -0.222173, 27.882141, -123.101532, 103.484604, 13.727805, 100.772331
1759316044.256792, -2.499696, 10.634894, -4.605397, 2.274903, 0.884556, -0.512315, 27.649429, -122.036743, 102.883881, 13.727805, 100.772331
1759316044.277301, -3.624522, 17.174955, -4.501847, 2.905537, 1.068992, -0.591602, 27.293503, -121.123962, 102.418228, 13.727805, 100.772331
1759316044.297291, -5.420772, 24.262690, -5.493496, 1.972001, -0.776458, -0.065234, 27.368393, -120.350540, 101.377075, 13.727805, 100.772331
1759316044.316840, -5.709872, 17.247380, -5.115810, 1.346072, -0.466777, 0.309093, 27.190536, -118.944244, 101.004517, 13.727805, 100.772331
1759316044.337276, -4.639664, 10.711509, -3.117101, 1.329039, 0.034765, -0.004893, 26.891998, -117.935104, 100.672028, 13.727805, 100.772331
1759316044.357288, -6.178537, 9.528474, -2.059911, 1.144081, 0.273497, 0.176543, 26.768982, -117.206406, 100.613861, 13.727805, 100.772331
1759316044.377288, -5.512500, 8.218845, -2.805555, 1.375093, 0.666603, 0.351722, 26.478607, -116.378067, 100.972244, 13.727805, 100.772331
1759316044.397289, -3.343353, 6.279991, -3.007566, 2.266101, 0.930352, 0.262590, 25.952377, -115.352417, 99.134186, 13.727805, 100.772331
1759316044.416691, -1.763778, 3.681684, -0.927454, 2.519733, -0.066766, 0.023617, 25.872864, -113.926422, 98.187241, 13.727805, 100.772331
1759316044.436888, -0.078859, 2.371157, -2.198476, 1.946576, -2.481982, -0.257753, 26.876846, -113.121384, 98.361176, 13.727805, 100.772331
1759316044.456742, -0.241964, 5.495441, -9.337386, 1.668834, -1.734095, -0.009188, 27.954529, -112.533569, 97.608963, 13.727805, 100.772331
1759316044.477236, -0.234781, 7.499089, -8.731205, 0.926240, -0.187668, 0.189467, 28.232788, -111.872147, 98.160950, 13.727805, 100.772331
1759316044.497288, -1.976862, 7.404817, -5.552603, 0.345798, 0.790815, 0.077317, 27.798294, -111.783325, 96.705475, 13.727805, 100.772331
1759316044.516534, -3.061136, 7.028628, -2.052729, 0.082726, 0.411700, 0.091683, 27.473511, -111.432709, 96.896591, 13.727805, 100.772331
1759316044.537197, -3.102287, 5.882105, -2.496255, -0.084112, -0.282294, 0.152657, 27.467819, -111.426682, 97.179611, 13.727805, 100.772331
1759316044.557287, -2.368464, 4.969914, -3.945495, -0.429578, -0.409832, 0.026160, 27.556183, -111.500168, 96.468887, 13.727805, 100.772331
1759316044.577281, -1.713799, 4.466832, -4.578162, -0.916016, 0.072804, -0.024607, 27.507248, -111.869217, 97.910690, 13.727805, 100.772331
1759316044.597131, -0.965312, 4.301632, -4.348469, -1.438902, 0.518896, -0.023788, 27.212952, -112.552399, 97.470978, 13.727805, 100.772331
1759316044.616365, -0.231040, 3.903447, -3.954623, -1.901356, 0.691701, 0.011577, 27.140854, -112.914215, 98.818787, 13.727805, 100.772331
1759316044.637263, 0.276081, 3.731962, -3.653552, -2.338884, 0.741833, 0.073166, 26.681824, -113.800934, 98.562515, 13.727805, 100.772331
1759316044.657283, 0.055516, 3.754707, -2.740613, -2.710521, 0.652225, 0.110314, 26.312119, -115.035660, 99.027115, 13.727805, 100.772331
1759316044.676937, 0.108188, 4.114884, -1.571644, -2.981949, 0.378385, 0.263492, 25.796890, -116.408615, 101.017136, 13.727805, 100.772331
1759316044.697002, 0.134674, 4.740519, -0.441431, -3.266748, -0.280492, 0.597473, 26.003922, -117.900436, 101.419037, 13.727805, 100.772331
1759316044.716733, 0.080655, 5.577143, 0.106243, -3.444089, -1.217662, 0.941715, 26.645355, -119.500015, 103.211304, 13.727805, 100.772331
1759316044.736723, -0.320075, 6.926425, -1.094150, -3.006161, -1.890781, 1.016052, 27.739502, -121.146164, 103.932632, 13.727805, 100.772331
1759316044.756747, -0.742352, 9.000552, -3.345747, -1.747588, -1.838993, 0.807655, 29.251114, -122.290863, 104.882675, 13.727805, 100.772331
1759316044.776743, -0.789338, 11.499201, -4.754436, -0.692911, -1.003117, 0.462222, 30.529938, -123.028381, 106.017838, 13.727805, 100.772331
1759316044.796834, -1.611447, 12.877363, -5.998972, -0.618231, 0.114247, 0.424399, 30.863434, -123.695023, 105.804642, 13.727805, 100.772331
1759316044.817286, -2.996194, 11.905168, -6.502801, -0.792417, 0.741486, 0.716978, 30.450256, -123.736969, 105.667114, 13.727805, 100.772331
1759316044.837262, -3.005920, 9.761759, -4.487781, -0.912482, 0.782192, 0.706515, 29.854538, -124.155914, 106.439560, 13.727805, 100.772331
1759316044.857289, -2.808698, 9.304765, -2.826804, -0.788700, 0.799790, 0.387109, 29.347244, -124.500824, 106.209915, 13.727805, 100.772331
1759316044.876632, -3.760543, 10.281450, -3.085827, 0.162226, 0.778554, -0.258959, 28.923904, -124.608231, 106.364029, 13.727805, 100.772331
1759316044.896692, -4.016722, 12.000038, -2.347515, 0.508597, 0.746935, -0.753819, 28.344513, -124.641708, 105.173935, 13.727805, 100.772331
1759316044.917299, -2.914192, 14.025084, 0.859518, -0.593261, 0.795658, -0.335646, 27.758865, -124.943741, 105.040329, 13.727805, 100.772331
1759316044.937256, -1.823185, 17.083976, 4.272603, -1.487742, -0.223163, 0.018733, 27.852203, -125.947708, 105.734238, 13.727805, 100.772331
1759316044.957284, -2.229301, 28.101942, 6.141427, -1.397931, -1.783788, 0.183967, 29.019165, -127.168381, 105.338867, 13.727805, 100.772331
1759316044.976398, -0.018106, 29.229611, -0.891391, 1.777213, -1.276148, 0.241616, 29.549240, -125.929108, 107.178604, 13.727805, 100.772331
1759316044.996520, 1.058985, 11.717073, -3.690063, 3.143261, 1.082321, 0.747425, 29.141312, -124.098587, 105.911209, 13.727805, 100.772331
1759316045.017279, 3.302502, 0.813430, 0.024241, -1.956908, -1.458322, 0.869115, 29.392914, -123.909348, 106.112106, 13.727805, 100.772331
1759316045.037255, 0.335936, 0.430507, -2.021754, -2.447786, -0.891932, 1.183324, 30.091507, -124.843994, 107.222580, 13.727805, 100.772331
1759316045.057286, -0.186000, -0.557400, -1.139640, -1.401641, -0.098318, 0.994891, 30.483047, -125.750198, 106.875351, 13.727805, 100.772331
1759316045.076289, -0.595109, 4.950162, 1.717391, -1.031725, -0.135693, 0.626187, 30.797745, -126.190796, 107.597153, 13.727805, 100.772331
1759316045.097154, -1.115099, 11.351209, 1.318607, -0.734074, 0.134389, -0.183999, 31.141052, -126.957672, 106.872818, 13.727805, 100.772331
1759316045.117280, -1.231368, 13.509881, -0.818218, 0.139141, 0.680348, -0.618499, 30.682159, -127.344666, 107.934708, 13.727805, 100.772331
1759316045.136712, -0.783802, 12.327595, -2.536058, 1.069160, 0.683417, -0.435014, 30.288177, -127.045547, 106.402924, 13.727805, 100.772331
1759316045.156771, 0.961871, 9.609727, -6.555175, -0.117660, -0.754193, -0.232093, 30.215378, -126.855637, 106.963806, 13.727805, 100.772331
1759316045.176257, 1.218499, 8.859444, -7.593809, 0.369995, 1.022823, -0.011995, 30.059250, -126.950195, 107.042465, 13.727805, 100.772331
1759316045.197285, 0.443526, 6.573281, -3.028964, 0.653554, 2.227945, -0.178572, 28.659302, -126.180496, 105.792374, 13.727805, 100.772331
1759316045.217284, 0.068833, 5.138555, 0.518494, 0.514233, 1.694014, -0.535672, 27.276215, -126.065567, 105.922928, 13.727805, 100.772331
1759316045.236914, -0.001945, 4.692486, -2.013224, 1.117704, 2.009270, -0.697088, 26.037857, -125.751770, 104.425659, 13.727805, 100.772331
1759316045.257286, 0.585233, 4.156933, -0.433500, 1.609244, 1.311820, -0.520562, 24.881348, -125.098938, 103.954208, 13.727805, 100.772331
1759316045.276735, 0.544980, 3.691410, 1.008857, 1.296123, -0.155236, -0.481946, 24.416519, -124.404221, 104.007126, 13.727805, 100.772331
1759316045.296739, -0.138265, 3.799897, -0.547973, 1.475043, -0.921391, -0.530173, 25.036499, -124.130264, 103.318130, 13.727805, 100.772331
1759316045.316738, -0.576703, 6.422147, -3.434931, 0.774410, -0.734681, -0.378197, 25.424744, -123.775513, 103.678635, 13.727805, 100.772331
1759316045.337256, 0.826748, 9.718065, -2.343923, -0.200734, 0.383527, -0.215813, 25.484909, -123.699768, 103.513901, 13.727805, 100.772331
1759316045.357277, 1.931373, 13.320440, -3.029862, 0.256582, 1.359038, 0.032382, 24.631927, -123.838699, 102.832825, 13.727805, 100.772331
1759316045.377271, 3.307739, 12.395381, -0.541987, 0.579400, 0.194353, -0.076580, 24.460510, -123.609039, 103.170349, 13.727805, 100.772331
1759316045.396826, 1.974767, 10.185981, -3.485209, 0.667991, -1.317600, -0.065476, 24.766922, -123.097305, 102.568436, 13.727805, 100.772331
1759316045.417275, -0.596306, 10.733805, -3.959261, 0.833871, -0.574595, -0.250231, 25.273132, -123.049011, 102.727386, 13.727805, 100.772331
1759316045.437250, -1.186626, 14.556297, -5.495441, 1.690174, 0.379662, -0.044181, 24.993164, -122.285767, 103.004974, 13.727804, 100.772330
1759316045.457275, -1.420659, 12.744635, -5.309741, 2.572906, 0.853123, -0.022529, 24.498215, -120.861328, 101.330002, 13.727804, 100.772330
1759316045.477271, -1.500566, 11.872996, -2.822614, 3.064316, 1.004373, -0.105803, 23.885864, -119.571243, 100.835800, 13.727804, 100.772330
1759316045.496672, -1.583764, 13.505542, -0.473453, 2.746993, 0.375582, -0.180697, 23.788132, -118.396179, 98.960403, 13.727804, 100.772330
1759316045.517275, -2.651129, 20.590882, -3.182044, 2.594931, -0.544458, 0.071909, 24.253021, -117.626465, 97.984360, 13.727804, 100.772330
1759316045.537248, -4.755184, 22.683115, -5.008071, 2.462525, -2.555601, 0.940786, 25.431000, -115.730759, 98.928055, 13.727804, 100.772330
1759316045.557260, -4.250905, 12.174067, -6.911312, 1.687190, -2.350527, 1.079183, 26.661469, -114.422150, 98.862473, 13.727804, 100.772330
1759316045.577268, -3.585916, 6.810307, -7.634511, 1.030103, -0.934998, 0.483306, 27.187363, -113.785385, 99.297668, 13.727804, 100.772330
1759316045.597068, -2.907159, 3.667318, -5.333234, 0.472578, 0.127020, -0.149851, 27.025558, -113.488419, 98.506302, 13.727804, 100.772330
1759316045.617280, -1.447145, 3.569455, -2.674174, 0.227360, 0.460720, -0.228295, 26.718201, -113.095001, 98.932831, 13.727804, 100.772330
1759316045.636869, -0.334440, 4.086753, -1.371878, 0.277544, 0.228622, -0.194326, 26.484512, -113.080475, 98.155518, 13.727804, 100.772330
1759316045.657275, 0.071078, 4.295048, -0.506972, 0.147231, -0.424347, -0.223939, 26.540390, -113.115341, 98.127747, 13.727804, 100.772330
1759316045.676349, -0.997634, 5.512949, -2.888455, -0.225221, -0.557684, -0.104983, 26.696121, -113.410446, 99.096588, 13.727804, 100.772330
1759316045.696374, -1.994071, 5.606023, -4.017171, -0.715415, -0.428208, -0.091342, 26.935730, -113.595093, 98.518509, 13.727804, 100.772330
1759316045.717269, -2.338536, 4.910059, -3.476082, -1.162383, -0.109609, -0.249298, 26.558075, -114.198425, 99.770660, 13.727804, 100.772330
1759316045.736842, -2.173486, 4.391115, -2.482937, -1.559832, 0.135329, -0.306279, 26.429245, -114.997223, 99.547577, 13.727804, 100.772330
1759316045.757274, -1.801637, 3.981108, -1.702876, -1.949739, 0.131284, -0.299281, 26.002640, -116.222809, 100.618393, 13.727804, 100.772330
1759316045.777279, -0.850839, 3.935319, -1.605013, -2.397161, 0.113729, -0.270566, 25.973450, -117.569748, 101.769974, 13.727804, 100.772330
1759316045.797284, -0.118513, 4.149750, -1.531092, -2.789992, 0.105232, -0.089096, 25.955093, -118.903152, 101.258072, 13.727804, 100.772330
1759316045.817267, 0.195876, 5.119701, -0.883760, -3.049792, -0.047649, 0.369935, 25.952484, -120.684662, 102.044342, 13.727804, 100.772330
1759316045.837245, 0.169839, 6.482301, -0.840514, -3.022566, -0.281418, 0.950418, 26.002258, -122.117371, 103.320358, 13.727804, 100.772330
1759316045.857275, 0.241515, 7.229142, -3.195062, -2.158373, 0.183227, 1.300447, 26.445221, -123.355759, 103.352707, 13.727804, 100.772330
1759316045.876570, 0.111031, 8.717737, -5.237017, -0.912617, 1.344393, 1.153469, 26.169159, -124.010834, 103.878357, 13.727804, 100.772330
1759316045.897271, 1.612944, 9.407118, -5.165490, -1.709492, 0.015452, 0.406567, 26.044586, -124.764023, 103.042404, 13.727804, 100.772330
1759316045.917268, -0.457891, 10.752060, -6.011391, -0.877057, -0.807790, 0.244962, 26.442047, -125.293900, 103.697006, 13.727804, 100.772330
1759316045.937161, -1.945887, 10.193014, -4.938340, 0.085984, -0.726062, 0.404906, 26.992599, -125.094833, 104.601410, 13.727804, 100.772330
1759316045.956321, -2.221370, 8.439411, -3.800795, 0.258870, -0.090811, 0.316077, 26.984604, -124.881287, 103.983978, 13.727804, 100.772330
1759316045.977267, -2.837279, 9.031976, -2.657713, 0.346964, 0.622937, 0.044148, 26.621521, -125.126801, 104.431580, 13.727804, 100.772330
1759316045.997270, -3.519028, 13.034333, -3.027318, 0.238691, 1.237405, -0.371638, 26.039505, -125.406677, 102.975632, 13.727804, 100.772330
1759316046.017027, -1.914912, 18.372505, 3.320907, -1.815209, 0.872630, -0.058288, 25.143784, -126.366211, 103.011078, 13.727804, 100.772330
1759316046.037242, -0.385317, 19.884294, 5.992387, -1.760810, -0.852601, 0.199969, 25.679199, -127.450516, 104.180328, 13.727804, 100.772330
1759316046.057257, 0.310199, 23.657107, 5.897068, -0.834512, -2.338890, 0.252776, 27.338547, -128.106018, 104.359573, 13.727804, 100.772330
1759316046.077267, 1.188721, 25.489120, 2.733430, 0.380215, -2.527930, 0.035609, 28.223846, -127.820267, 105.394424, 13.727804, 100.772330
1759316046.096917, 0.837073, 13.921534, -10.759093, 3.227736, 1.424990, 0.144362, 28.235519, -126.049576, 104.592148, 13.727804, 100.772330
1759316046.117243, 1.436371, 6.749554, -0.356287, -0.599441, 0.866293, 0.361972, 27.070129, -125.125137, 104.019318, 13.727804, 100.772330
1759316046.137248, 0.056713, 4.233697, -2.683750, -2.296648, 0.019590, 0.628373, 26.988724, -125.970352, 104.387268, 13.727804, 100.772330
1759316046.157273, -0.254683, 4.562002, -0.795324, -1.744418, 0.142356, 0.666315, 26.693054, -126.915787, 104.882401, 13.727804, 100.772330
1759316046.177272, -0.406266, 3.049315, 2.538602, -1.771217, -0.696578, 0.405810, 26.910263, -127.632187, 105.678513, 13.727804, 100.772330
1759316046.197009, -0.683395, 3.516783, 2.505682, -1.713933, -1.372608, 0.068101, 27.609192, -129.037598, 105.363129, 13.727804, 100.772330
1759316046.217271, -0.969502, 6.495918, 1.201889, -0.997496, -1.343925, 0.014434, 28.463852, -129.808670, 106.577194, 13.727804, 100.772330
1759316046.237247, -1.053299, 10.670358, -4.872500, 1.634411, -0.008975, -0.068527, 28.653061, -129.216812, 105.674500, 13.727804, 100.772330
1759316046.257266, -1.347786, 11.371560, -5.622034, 3.421339, 1.212598, -0.653973, 28.714279, -128.107971, 105.237457, 13.727804, 100.772330
1759316046.276687, -4.207660, 9.795128, -7.110480, 1.385405, -1.885015, -0.509949, 28.917465, -126.605194, 106.565613, 13.727804, 100.772330
1759316046.297263, -2.438943, 2.993051, -7.973739, 1.644356, 0.983012, -1.342278, 28.267197, -125.836304, 105.024124, 13.727804, 100.772330
1759316046.317265, -0.594510, 1.979556, -0.138265, 0.888315, 2.704114, -1.710980, 26.431992, -125.727356, 104.213882, 13.727804, 100.772330
1759316046.337238, -0.274435, 4.285322, 2.084153, 0.368819, 2.488073, -1.221865, 24.795685, -126.128464, 103.925903, 13.727804, 100.772330
1759316046.357067, 1.379509, 7.248894, -0.665887, 1.012927, 2.042315, -0.156236, 23.907196, -125.843292, 102.413452, 13.727804, 100.772330
1759316046.377270, 3.311929, 7.820809, -2.256685, 0.576750, 0.764121, -0.201870, 23.396393, -125.720551, 102.768509, 13.727804, 100.772330
1759316046.397176, 2.644994, 9.860968, -4.065953, 0.746211, 0.788441, -0.365177, 22.785675, -125.616257, 101.714478, 13.727804, 100.772330
1759316046.417263, 1.575834, 9.762058, -2.027290, 0.310790, 0.845041, -0.338772, 22.215714, -125.520737, 100.746796, 13.727804, 100.772330
1759316046.437238, 1.150713, 11.227459, -2.784905, 1.233808, 0.972227, -0.233347, 21.595764, -125.486862, 100.901093, 13.727804, 100.772330
1759316046.457242, 0.653916, 13.419351, -3.822642, 2.287930, 0.482764, -0.009536, 21.050491, -124.705582, 99.588898, 13.727804, 100.772330
1759316046.477238, -0.720655, 13.295301, -5.806687, 3.484762, 0.702502, 0.134244, 20.861954, -123.255020, 99.498123, 13.727804, 100.772330
1759316046.497019, -1.348684, 12.347646, -4.886416, 3.815452, 0.790864, -0.055826, 20.548965, -122.372711, 98.425217, 13.727804, 100.772330
1759316046.516508, -2.519598, 11.168951, -3.342006, 3.751731, 0.296206, -0.749811, 20.328354, -121.018646, 98.053787, 13.727804, 100.772330
1759316046.536799, -2.639009, 16.008979, -0.772130, 2.142461, -2.113359, -0.575278, 21.145050, -120.660980, 97.276917, 13.727804, 100.772330
1759316046.557238, -3.875464, 27.024851, -12.764537, 2.253890, -1.695871, 1.685735, 22.719193, -119.869980, 97.808929, 13.727804, 100.772330
1759316046.576394, -4.148254, 18.349461, -7.972991, 1.805211, -1.399132, 1.597875, 23.338837, -117.403656, 98.719437, 13.727804, 100.772330
1759316046.596823, -5.056704, 8.492233, -4.706851, 0.845581, -1.051605, 0.426110, 23.639755, -116.346924, 98.345825, 13.727804, 100.772330
1759316046.617234, -2.826804, 2.607286, -3.930830, 0.512230, 0.327962, -0.714727, 23.409225, -115.988541, 98.746109, 13.727804, 100.772330
1759316046.637232, -1.925537, 3.783736, -3.121141, 0.204768, 0.081005, 0.096933, 22.884094, -115.922531, 97.445984, 13.727804, 100.772330
1759316046.657240, -0.138864, 2.819322, -3.613449, -0.230799, 0.340205, 0.122262, 22.924362, -115.879669, 97.767426, 13.727804, 100.772330
1759316046.677258, 0.672920, 3.833416, -1.475277, -0.629413, 0.382414, 0.092728, 22.799103, -115.942291, 98.279648, 13.727804, 100.772330
1759316046.696673, -0.113276, 5.190779, -0.573262, -0.781492, -0.012110, 0.120173, 22.708435, -116.223999, 97.506287, 13.727804, 100.772330
1759316046.717294, -1.397615, 4.792144, -1.535880, -0.783239, -0.579985, -0.062308, 22.789810, -116.648727, 98.369751, 13.727804, 100.772330
1759316046.736282, -2.448670, 4.047099, -2.230199, -1.052675, -0.779353, -0.308646, 23.113922, -117.012268, 98.731659, 13.727804, 100.772330
1759316046.757262, -3.656245, 4.965574, -2.799420, -1.824567, -0.524499, -0.023235, 23.367538, -118.188934, 99.529388, 13.727780, 100.772323
1759316046.777330, -2.916587, 3.926640, -2.764854, -2.515034, -0.137931, -0.101722, 23.317459, -119.055008, 100.953354, 13.727780, 100.772323
1759316046.796491, -1.462558, 3.541922, -2.220173, -2.974851, -0.089358, -0.466711, 23.121262, -120.667816, 100.756592, 13.727780, 100.772323
1759316046.817256, -0.958429, 4.437503, -2.899827, -3.089906, -0.001965, -0.470091, 22.942154, -122.578247, 101.632874, 13.727780, 100.772323
1759316046.837236, -0.459537, 6.005406, -4.125509, -2.803702, 0.553229, 0.056856, 22.728683, -124.435974, 102.825729, 13.727780, 100.772323
1759316046.857263, -0.323367, 8.143877, -4.050840, -2.298008, 1.176634, 0.764327, 22.201370, -126.041962, 101.655731, 13.727780, 100.772323
1759316046.877142, 0.809839, 8.384045, -4.525789, -2.078669, 0.847517, 0.925741, 21.987076, -126.897919, 102.547379, 13.727780, 100.772323
1759316046.896349, 1.283891, 11.107599, -4.996998, -1.787888, -0.316334, 0.720447, 21.972885, -127.750122, 101.575562, 13.727780, 100.772323
1759316046.917256, 0.913837, 11.948263, -3.989937, -1.070706, -0.615151, 0.779261, 22.217926, -128.311310, 102.325531, 13.727780, 100.772323
1759316046.937230, 0.081852, 8.476821, -3.813514, -0.475797, -0.248501, 0.672354, 22.295090, -128.375198, 102.917679, 13.727780, 100.772323
1759316046.956817, -1.990928, 6.094440, -4.957643, -0.138180, -0.258556, 0.538200, 22.240555, -128.448425, 102.179092, 13.727780, 100.772323
1759316046.976989, -4.155736, 6.828562, -4.686350, 0.501776, -0.159450, 0.096547, 22.861557, -128.449524, 102.757996, 13.727780, 100.772323
1759316046.996744, -5.032612, 9.903914, -5.157260, 1.315635, 0.480587, -0.673321, 22.452087, -128.336090, 101.973343, 13.727780, 100.772323
1759316047.017251, -3.398120, 15.535675, 1.793856, -0.745996, -0.190863, -0.441891, 22.633560, -128.603241, 102.767502, 13.727780, 100.772323
1759316047.037230, -2.581249, 19.475334, 3.167978, -2.280681, -0.291214, -0.052856, 22.603912, -129.524887, 101.861053, 13.727780, 100.772323
1759316047.056416, -1.703624, 21.461175, 5.347300, -1.684131, -0.947904, 0.169868, 22.451492, -130.976257, 102.682388, 13.727778, 100.772323
1759316047.076837, -1.015890, 26.310032, 5.941361, -0.287698, -1.585841, 0.029459, 23.281403, -131.594742, 103.749451, 13.727778, 100.772323
1759316047.096712, 0.663493, 24.841039, -14.083891, 4.023676, 2.683662, 0.507648, 23.779984, -131.140228, 103.119385, 13.727778, 100.772323
1759316047.117237, 0.780210, 9.823858, 1.647360, 1.659286, 3.173553, 0.791769, 21.862442, -128.540909, 102.490234, 13.727778, 100.772323
1759316047.136951, 1.849820, 0.637307, -2.206107, -2.436120, -0.693612, 0.450691, 20.954926, -128.115631, 101.612244, 13.727778, 100.772323
1759316047.156806, 0.683993, 2.454206, -0.612317, -1.424837, -0.452089, 0.681089, 21.098831, -128.980179, 102.245804, 13.727778, 100.772323
1759316047.176683, 0.310648, 0.307056, 3.913323, -1.746818, -1.708302, 0.833945, 21.368103, -129.453156, 103.408997, 13.727778, 100.772323
1759316047.197246, -0.481235, 2.442385, 2.227655, -1.703917, -2.057683, 0.605585, 22.624924, -130.306793, 103.173294, 13.727778, 100.772323
1759316047.217249, -1.236156, 9.045144, -1.865233, -0.316916, -0.887147, 0.005327, 23.796890, -131.199905, 103.686752, 13.727778, 100.772323
1759316047.237229, -1.021875, 14.991743, -3.777751, 1.261253, 0.926996, -0.555334, 24.023727, -131.104935, 104.356506, 13.727778, 100.772323
1759316047.256466, -0.698658, 12.837560, -4.791995, 1.296813, 1.186624, -0.411173, 23.286301, -130.604645, 102.912155, 13.727778, 100.772323
1759316047.276497, -0.838719, 5.822698, -8.676437, 0.707089, -0.041451, -0.499893, 22.796478, -130.053085, 103.506012, 13.727778, 100.772323
1759316047.297252, -0.938377, 4.349217, -3.123984, 1.010075, 1.111991, -0.802065, 21.876648, -129.720886, 102.745163, 13.727778, 100.772323
1759316047.317051, -0.198569, 5.948843, -0.145448, 0.440373, 1.173756, -0.569391, 21.423859, -129.934113, 102.196426, 13.727778, 100.772323
1759316047.336248, 0.471508, 7.370849, -1.734449, 0.856302, 1.326703, -0.396720, 20.504242, -129.729919, 102.312271, 13.727778, 100.772323
1759316047.357249, 0.751031, 5.274426, 0.837073, 0.722966, 0.402675, -0.307161, 19.848724, -129.509003, 101.252914, 13.727778, 100.772323
1759316047.376346, 1.544260, 3.399916, -0.739359, 1.008413, 0.171341, -0.185288, 19.837006, -129.123657, 102.192490, 13.727778, 100.772323
1759316047.397257, 1.480664, 3.582923, -0.980426, 0.432394, -0.149277, -0.298754, 19.926224, -129.419205, 101.129776, 13.727778, 100.772323
1759316047.417257, 0.943016, 9.354445, -5.186739, 0.223307, 0.553409, -0.323568, 19.919952, -129.712372, 101.055176, 13.727778, 100.772323
1759316047.437227, 1.284639, 15.453524, -3.412037, 0.098627, 1.039185, -0.236938, 19.627945, -129.964569, 100.828995, 13.727778, 100.772323
1759316047.457248, 3.002030, 14.999524, -2.855534, 0.746036, 1.018641, 0.075925, 18.570114, -129.639404, 99.906128, 13.727778, 100.772323
1759316047.477243, 2.520047, 11.080515, -3.497779, 1.972966, -0.155158, 0.389881, 18.700531, -128.609055, 100.219177, 13.727778, 100.772323
1759316047.497249, -1.015441, 10.752210, -5.323507, 2.369673, -0.777322, 0.311076, 18.826035, -128.196381, 99.795258, 13.727778, 100.772323
1759316047.517251, -2.402731, 10.725126, -4.289063, 2.380532, 0.686008, -0.296096, 18.810226, -127.084869, 100.476242, 13.727778, 100.772323
1759316047.537224, -2.324919, 13.485790, -2.835034, 2.653547, 1.193382, -0.606200, 18.409103, -126.121780, 98.650085, 13.727778, 100.772323
1759316047.557255, -2.014870, 18.810045, -0.562937, 1.959351, -0.040453, -0.161135, 18.163239, -125.625916, 98.125946, 13.727778, 100.772323
1759316047.576689, -3.289035, 24.043471, -3.819201, 0.985078, -2.894275, 0.913773, 19.121155, -124.998245, 98.816238, 13.727778, 100.772323
1759316047.597109, -4.445733, 16.037111, -6.218939, 1.449268, -3.422809, 0.870000, 20.602875, -123.474548, 99.482285, 13.727778, 100.772323
1759316047.617248, -4.105757, 8.887875, -4.690091, 0.981561, -1.977034, -0.101433, 21.761276, -122.189682, 101.336548, 13.727778, 100.772323
1759316047.637225, -3.191022, 5.581333, -4.238036, 0.609192, -0.002753, -1.048522, 22.097946, -121.791382, 101.223480, 13.727778, 100.772323
1759316047.657255, -1.622820, 6.077531, -3.561974, 0.695207, 1.364363, -0.872833, 21.365387, -121.794250, 100.460129, 13.727778, 100.772323
1759316047.677263, -3.138798, 7.433547, -1.556680, 0.344813, 0.745278, 0.339856, 20.568390, -121.700897, 100.692154, 13.727778, 100.772323
1759316047.697257, -1.154454, 4.198382, -2.373701, 0.211287, -0.553531, 0.601448, 20.587463, -121.166214, 99.620560, 13.727778, 100.772323
1759316047.717251, 0.055067, 2.745850, -2.992453, 0.319137, -1.109399, 0.206695, 21.155548, -120.837738, 99.909775, 13.727778, 100.772323
1759316047.737228, -1.425149, 4.209904, -3.488950, 0.115358, -1.001300, -0.060446, 21.854218, -120.849152, 100.606537, 13.727778, 100.772323
1759316047.757258, -2.745401, 4.116979, -3.914071, -0.264200, -0.195808, -0.288475, 21.975113, -120.988892, 100.643448, 13.727778, 100.772323
1759316047.777234, -3.602825, 3.822792, -3.071461, -0.848254, 0.746744, -0.463703, 21.608246, -121.683411, 101.832825, 13.727778, 100.772323
1759316047.797252, -3.375675, 3.844040, -1.605911, -1.522125, 1.143195, -0.340481, 20.851318, -122.444153, 100.746140, 13.727778, 100.772323
1759316047.817252, -1.859397, 3.226486, -1.095198, -2.178710, 1.035345, -0.353914, 20.237503, -123.669754, 101.152252, 13.727778, 100.772323
1759316047.837226, -0.527173, 3.080440, -1.138593, -2.746690, 0.650562, -0.522867, 19.756180, -125.511475, 101.998566, 13.727778, 100.772323
1759316047.857251, 0.498742, 5.237017, -1.511041, -3.112389, 0.073988, -0.080137, 19.633041, -127.603043, 101.683807, 13.727778, 100.772323
1759316047.876440, 0.704494, 7.938724, -0.944064, -3.170224, -0.557383, 0.921448, 19.868027, -128.981262, 103.285202, 13.727778, 100.772323
1759316047.896709, 0.770484, 8.732252, -1.835305, -2.759495, -1.018426, 1.704334, 20.376633, -130.121155, 102.757523, 13.727778, 100.772323
1759316047.917250, 1.350030, 8.379407, -3.697096, -1.814863, -1.123722, 1.974682, 21.033127, -130.868561, 103.174835, 13.727778, 100.772323
1759316047.937223, 2.311602, 8.524405, -5.533748, -1.396351, -0.940140, 1.620275, 22.004593, -131.284561, 104.447220, 13.727778, 100.772323
1759316047.957233, 3.027468, 8.081478, -6.270713, -1.144265, -0.119476, 0.993702, 21.950577, -131.567429, 103.913925, 13.727778, 100.772323
1759316047.977249, 1.148768, 7.498789, -4.887015, -0.314945, 0.570603, 0.432754, 21.715439, -131.787247, 104.663651, 13.727778, 100.772323
1759316047.997248, -2.491017, 7.488913, -2.789245, 1.084352, 0.374868, -0.394875, 21.321594, -131.901657, 103.992203, 13.727778, 100.772323
1759316048.017251, -3.782090, 11.601254, -2.131438, 1.745417, -1.308219, -1.273422, 21.712677, -131.787842, 104.840714, 13.727778, 100.772323
1759316048.037219, -4.589086, 19.599683, -3.546262, -0.272653, -1.910065, -0.893123, 23.383209, -132.440506, 104.361053, 13.727778, 100.772323
1759316048.057251, -2.907309, 23.536349, 3.115156, -2.172972, -0.577852, 0.659278, 23.550690, -133.095047, 105.089294, 13.727778, 100.772323
1759316048.077244, -0.744148, 20.137630, 6.604256, -1.819120, -1.144855, 0.986943, 23.744263, -134.146332, 106.201462, 13.727778, 100.772323
1759316048.097245, -0.616507, 27.559356, 6.689100, -0.909917, -1.594187, -0.019471, 24.993591, -135.109070, 106.096542, 13.727778, 100.772323
1759316048.117252, 0.408211, 23.299473, -4.872500, 2.514824, 0.322004, -0.552649, 25.492493, -134.508102, 107.255554, 13.727778, 100.772323
1759316048.137219, 0.751630, 9.272294, -7.068880, 0.591596, 1.323799, -0.421507, 24.858490, -132.825134, 106.622818, 13.727778, 100.772323
1759316048.157248, -0.205901, 3.325247, -5.684433, -1.979773, -0.167406, 0.086975, 23.814148, -133.332016, 106.543640, 13.727778, 100.772323
1759316048.177246, 0.228347, 3.144934, 0.895880, -1.057046, 0.257949, 0.523341, 23.579559, -134.027176, 106.923264, 13.727778, 100.772323
1759316048.197252, -0.277278, 2.915988, 2.883966, -0.923829, 0.038436, 0.660020, 23.524338, -134.309158, 106.333176, 13.727778, 100.772323
1759316048.217245, -1.207127, 4.138826, 1.856853, -0.523801, 0.150394, 0.264258, 23.386810, -134.718689, 106.537491, 13.727778, 100.772323
1759316048.237219, -2.083255, 4.744260, -0.211438, 0.422750, 0.759701, -0.518215, 23.014023, -134.745071, 106.513107, 13.727778, 100.772323
1759316048.257249, -2.314295, 4.951059, -2.665644, 2.149771, 1.610048, -1.121751, 22.308868, -134.211273, 105.760590, 13.727778, 100.772323
1759316048.277156, -1.671751, 5.170129, -1.932869, 2.684519, 2.057710, -1.149709, 21.267746, -133.387894, 106.081055, 13.727778, 100.772323
1759316048.297246, -1.105972, 5.139453, -1.144428, -0.304543, -1.720357, -0.530012, 21.614319, -133.320084, 105.363770, 13.727778, 100.772323
1759316048.317247, -0.184204, 5.306748, -9.499743, 0.866272, 0.455726, -0.264240, 21.404205, -133.233353, 105.663727, 13.727778, 100.772323
1759316048.337219, 0.439186, 3.525163, 3.155558, -0.590092, 0.753958, -0.353590, 20.942123, -133.621429, 105.962952, 13.727778, 100.772323
1759316048.357245, 1.052551, 7.476194, 2.902970, -1.268422, -0.145032, 0.065671, 20.812180, -134.668945, 105.428970, 13.727778, 100.772323
1759316048.376978, 2.407669, 12.074558, -7.372495, 1.097053, 2.761521, 1.121732, 19.594269, -134.137283, 105.818069, 13.727778, 100.772323
1759316048.397247, 3.676147, 8.767866, -4.113238, 0.272067, 2.081449, 0.219064, 17.882446, -134.072968, 104.234482, 13.727778, 100.772323
1759316048.417230, 2.623147, 8.915408, -6.500258, 0.986808, 1.132452, -0.447962, 16.893158, -133.572189, 103.198608, 13.727778, 100.772323
1759316048.437216, 1.304840, 10.275165, -1.733552, 1.353306, 0.387184, -0.275870, 16.662262, -133.042252, 103.987411, 13.727778, 100.772323
1759316048.457257, 0.952593, 10.903643, -3.341857, 1.786854, 0.142615, -0.257255, 16.493378, -133.006119, 103.305008, 13.727778, 100.772323
1759316048.476793, -0.715268, 13.400496, -6.553528, 2.547451, 0.045673, -0.081452, 16.497772, -131.925659, 103.815643, 13.727778, 100.772323
1759316048.497242, -1.152060, 13.138331, -3.594595, 2.796948, 0.284095, 0.079830, 16.595200, -130.548203, 103.158203, 13.727778, 100.772323
1759316048.517243, -1.643171, 12.933178, -2.829497, 3.022226, 0.866755, 0.129951, 16.254776, -128.599350, 103.746643, 13.727778, 100.772323
1759316048.536546, -1.542016, 14.093169, 0.131083, 2.071589, -0.156700, 0.246689, 15.809525, -127.407791, 102.646896, 13.727778, 100.772323
1759316048.557245, -1.123629, 19.927838, -1.472883, 1.636415, -1.254910, 0.601172, 16.517136, -126.506531, 102.864578, 13.727778, 100.772323
1759316048.577209, -1.391181, 22.546945, -8.490138, 2.196035, -1.889711, 1.709007, 17.669113, -124.648453, 103.646591, 13.727778, 100.772323
1759316048.597249, -3.742137, 13.292907, -8.513631, 0.745869, -3.119070, 1.763959, 19.776291, -122.645981, 103.927872, 13.727778, 100.772323
1759316048.617240, -3.728371, 8.051999, -8.610297, 0.044313, -1.304350, 0.679746, 20.849136, -121.362030, 106.174591, 13.727778, 100.772323
1759316048.637216, -1.452831, 5.177910, -3.377470, -0.059366, 0.387977, -0.072771, 20.490555, -121.101334, 105.544144, 13.727778, 100.772323
1759316048.657240, -0.492158, 4.191649, -0.060903, -0.412913, 0.062023, -0.020164, 20.333206, -121.157257, 105.602341, 13.727778, 100.772323
1759316048.677245, 0.131831, 3.044976, -0.379032, -0.548883, -0.260386, 0.259701, 20.414200, -121.365784, 106.358078, 13.727778, 100.772323
1759316048.697241, 0.171784, 2.056769, -0.398186, -0.432991, -0.453883, 0.116895, 20.662949, -121.388824, 106.114853, 13.727778, 100.772323
1759316048.717241, -0.486921, 2.838476, -1.388787, -0.489970, -0.515139, -0.382030, 20.729324, -121.940414, 106.433533, 13.727778, 100.772323
1759316048.736927, -1.835754, 3.702633, -2.019060, -0.852624, -0.268309, -0.877341, 20.870956, -122.632965, 107.459015, 13.727778, 100.772323
1759316048.757147, -2.366219, 4.621408, -1.943643, -1.406974, -0.385348, -1.098347, 20.501572, -124.191452, 107.615891, 13.727778, 100.772323
1759316048.776264, -2.293645, 5.449951, -1.198448, -1.896058, -0.655304, -0.760963, 20.737061, -125.531113, 109.268753, 13.727778, 100.772323
1759316048.797252, -1.906682, 6.547543, -0.288352, -2.599171, -0.878523, 0.158690, 21.177399, -127.464264, 109.082809, 13.727778, 100.772323
1759316048.817192, -1.112855, 6.034286, -0.233734, -3.234399, -0.968328, 0.824609, 21.860474, -129.239838, 109.715149, 13.727778, 100.772323
1759316048.837213, -1.083526, 6.292561, -0.224307, -3.699824, -1.144974, 1.142729, 22.354019, -131.559860, 111.288788, 13.727778, 100.772323
1759316048.856982, -1.616834, 6.595577, -2.581548, -2.492228, -1.198894, 0.897007, 23.332108, -133.344742, 111.290039, 13.727778, 100.772323
1759316048.876660, -1.876156, 8.782081, -4.455909, -0.482440, -0.768492, 0.233081, 24.026123, -134.051651, 112.541107, 13.727778, 100.772323
1759316048.896662, -0.889147, 10.866982, -5.494094, -0.309469, -1.197701, -0.072818, 25.070786, -134.494400, 112.348068, 13.727778, 100.772323
1759316048.917218, 0.471658, 10.051158, -8.555231, -0.678072, -0.816571, 0.170152, 25.215042, -134.948639, 112.585770, 13.727778, 100.772323
1759316048.936609, -0.441281, 8.270470, -6.149357, -0.393249, 1.029454, 0.484222, 24.975784, -135.115143, 112.727615, 13.727778, 100.772323
1759316048.956822, -1.885135, 7.073070, -1.626710, 0.017846, 1.575391, 0.434871, 23.358521, -135.294052, 112.179901, 13.727778, 100.772323
1759316048.976672, -2.815581, 8.839841, 0.132729, 0.480471, 0.877483, -0.054776, 22.455902, -135.201126, 112.804092, 13.727778, 100.772323
1759316048.996691, -4.522647, 16.227450, -1.190816, 1.504155, -1.628813, -0.852284, 23.498093, -135.257935, 112.300507, 13.727778, 100.772323
1759316049.017238, -2.682254, 22.592285, 0.515202, -1.125144, -0.607816, -0.214349, 24.438232, -135.575134, 113.111008, 13.727778, 100.772323
1759316049.036403, -1.168370, 19.341708, 4.260781, -1.858045, -0.961409, 0.409390, 24.598145, -136.644928, 113.393112, 13.727778, 100.772323
1759316049.056661, -0.108338, 19.498378, 4.716428, -1.138509, -1.576120, 0.393146, 25.528320, -137.620209, 113.306534, 13.727778, 100.772323
1759316049.077209, 0.063297, 21.263952, -0.287304, 0.650065, -0.508679, -0.205185, 26.664368, -137.613693, 114.885727, 13.727778, 100.772323
1759316049.097237, -0.503231, 13.511079, -7.320421, 2.656055, 2.303257, -0.355016, 25.217499, -135.410324, 113.497299, 13.727778, 100.772323
1759316049.117228, 1.229572, 7.543830, -0.019603, -1.454536, -0.209117, 0.137984, 24.186432, -135.308472, 113.676315, 13.727778, 100.772323
1759316049.136288, -0.091578, 5.548562, -3.088670, -2.336290, -1.079187, 0.589007, 24.678207, -136.831970, 113.969467, 13.727778, 100.772323
1759316049.156500, -0.036362, 4.537162, -0.996437, -1.739704, -0.798323, 0.896863, 25.121033, -137.695984, 114.250458, 13.727778, 100.772323
1759316049.177246, -0.186598, 3.129970, 2.219575, -1.512038, -1.151649, 0.658216, 25.963425, -138.689560, 115.648483, 13.727778, 100.772323
1759316049.196696, -0.394594, 4.681113, 1.340005, -1.106547, -0.955155, 0.079333, 26.700760, -139.699615, 114.642899, 13.727778, 100.772323
1759316049.217238, -0.789488, 7.829339, 0.452205, -0.496665, -0.256220, -0.207522, 26.971603, -140.240021, 114.595901, 13.727778, 100.772323
1759316049.237208, -0.467019, 8.586655, -3.218854, 1.021479, 1.171052, -0.189742, 26.126038, -139.545181, 115.274902, 13.727778, 100.772323
1759316049.256771, -0.689680, 8.444349, -4.963928, 2.714007, 2.519327, -0.337852, 24.803787, -138.018173, 114.750031, 13.727778, 100.772323
1759316049.277229, -2.701857, 7.237372, -4.612579, 1.087158, -1.035473, -0.552445, 24.991196, -136.883774, 116.382812, 13.727778, 100.772323
1759316049.297233, -2.327912, 6.146963, -9.013122, 1.309186, 0.848791, -0.851548, 24.141388, -136.094315, 115.318909, 13.727778, 100.772323
1759316049.317232, -0.615160, 5.385457, -0.894384, 0.486865, 2.701826, -1.236563, 21.906296, -136.063766, 114.395981, 13.727778, 100.772323
1759316049.337203, -0.287005, 5.788132, 2.697218, -0.059375, 2.075936, -1.005755, 20.169708, -136.290726, 114.482712, 13.727778, 100.772323
1759316049.356671, 1.503259, 6.458209, 1.160739, 0.842978, 1.292270, -0.230011, 19.349564, -136.276077, 113.469376, 13.727778, 100.772323
1759316049.377225, 3.717896, 7.918822, -2.713379, 0.751030, 0.042719, -0.073645, 19.413315, -135.886383, 114.169098, 13.727778, 100.772323
1759316049.397227, 3.017592, 9.389610, -5.240907, 0.613174, 0.262077, -0.114865, 19.059982, -135.502014, 113.639572, 13.727778, 100.772323
1759316049.417226, 2.101511, 10.150068, -3.255067, 0.476485, 0.888269, -0.111830, 18.293167, -135.317795, 114.818695, 13.727778, 100.772323
1759316049.436781, 1.636287, 10.938210, -2.873491, 0.656161, 0.588495, -0.115575, 17.542526, -134.773422, 113.893097, 13.727778, 100.772323
1759316049.456462, 1.084723, 11.721114, -3.414431, 1.500028, -0.021125, -0.013424, 17.053360, -133.969238, 113.839264, 13.727778, 100.772323
1759316049.477238, 0.541838, 11.713033, -3.944747, 2.112610, -0.216936, 0.104010, 17.222961, -132.069916, 114.874969, 13.727778, 100.772323
1759316049.497223, -0.543035, 11.192294, -2.806004, 2.660183, 0.274053, 0.234174, 17.163239, -129.874725, 114.915863, 13.727778, 100.772323
1759316049.517223, -1.235109, 11.792940, -1.532289, 2.684856, 0.513829, 0.229096, 16.784424, -127.776031, 114.732651, 13.727778, 100.772323
1759316049.537200, -2.084003, 18.625393, -2.951302, 2.480417, 0.369547, 0.316069, 16.941177, -125.964569, 113.529465, 13.727778, 100.772323
1759316049.557207, -4.256741, 28.091318, -9.389311, 2.159271, -1.720444, 1.420617, 18.164627, -123.411652, 113.628433, 13.727778, 100.772323
1759316049.577210, -4.532673, 13.080870, -7.609521, 1.113550, -2.971704, 1.564007, 20.424179, -120.703415, 115.887421, 13.727778, 100.772323
1759316049.597205, -4.040365, 6.414366, -6.645855, 0.769177, -2.023733, 0.622522, 22.019241, -119.413330, 115.714752, 13.727778, 100.772323
1759316049.617204, -2.723853, 4.007445, -3.127725, 0.317740, -0.349757, -0.229563, 22.588913, -118.515640, 116.222122, 13.727778, 100.772323
1759316049.636502, -2.190844, 3.968240, -2.508226, 0.238099, -0.083099, -0.284368, 22.511169, -118.090805, 116.069885, 13.727778, 100.772323
1759316049.657200, 0.046238, 4.728249, 0.004489, -0.051969, -0.191254, 0.015775, 22.201370, -117.850082, 116.150040, 13.727778, 100.772323
1759316049.677207, 0.515053, 5.033210, 0.751181, -0.190886, -0.797377, 0.358942, 22.626663, -117.570999, 117.017838, 13.727778, 100.772323
1759316049.697213, 0.058808, 4.187459, -0.644340, -0.054832, -0.838118, 0.357082, 23.302124, -117.329910, 116.530334, 13.727778, 100.772323
1759316049.717203, -1.012747, 3.389890, -1.381005, -0.080108, -0.493326, 0.065416, 23.950409, -117.033829, 116.738586, 13.727778, 100.772323
1759316049.737198, -1.776348, 3.533243, -1.542165, -0.527333, -0.468276, -0.167146, 24.263428, -117.240219, 117.933411, 13.727778, 100.772323
1759316049.757220, -1.848473, 4.102165, -1.684171, -1.055047, -0.511362, -0.107114, 24.773193, -117.792664, 117.452271, 13.727778, 100.772323
1759316049.776310, -1.756446, 4.494665, -1.707365, -1.280967, -0.447370, 0.017026, 24.796219, -118.822037, 119.466400, 13.727778, 100.772323
1759316049.797218, -1.143979, 5.791424, -1.190068, -2.071724, -0.448105, 0.448098, 25.210892, -120.048370, 119.733459, 13.727778, 100.772323
1759316049.817212, -1.012448, 6.775591, -0.993893, -2.581033, -0.722835, 0.717215, 25.782776, -122.037857, 120.678589, 13.727778, 100.772323
1759316049.837197, -1.419762, 7.539191, -1.429787, -2.719326, -1.001042, 0.785664, 26.612274, -124.283493, 122.300644, 13.727778, 100.772323
1759316049.857223, -2.175431, 8.516325, -3.566313, -1.862734, -1.172415, 0.408679, 27.805038, -126.090851, 122.670670, 13.727778, 100.772323
1759316049.877196, -2.883966, 8.833557, -7.395390, -0.134244, -0.499209, -0.302177, 28.515320, -126.803619, 124.145187, 13.727778, 100.772323
1759316049.897220, -2.036269, 8.025963, -8.959552, -0.209128, -1.535548, -0.370277, 29.043869, -126.965454, 123.655014, 13.727778, 100.772323
1759316049.917215, -0.958130, 7.335834, -11.435904, 0.155500, -1.519540, -0.122532, 30.366257, -126.907761, 125.104004, 13.727778, 100.772323
1759316049.936797, -1.123928, 10.504560, -10.049811, 0.665776, 1.329600, 0.219200, 31.181091, -126.662613, 125.193344, 13.727778, 100.772323
1759316049.957235, -2.381034, 10.980557, -3.058293, 0.717504, 2.042809, 0.598184, 29.272583, -125.674377, 124.990082, 13.727778, 100.772323
1759316049.977221, -3.804835, 8.979902, -3.892972, 1.415701, -0.676813, 0.492352, 27.777664, -123.911484, 125.229019, 13.727778, 100.772323
1759316049.997219, -5.803994, 5.643732, -7.404817, 1.572837, -2.264972, -0.370451, 29.368332, -122.154587, 125.023941, 13.727778, 100.772323
1759316050.017217, -4.969914, 13.009194, -4.419547, 0.378243, -1.448882, -0.831767, 31.654999, -120.876572, 126.004562, 13.727778, 100.772323
1759316050.037193, -4.380042, 23.773375, -2.840870, -2.275408, -0.260372, -0.997298, 32.744385, -121.737778, 125.326157, 13.727778, 100.772323
1759316050.056672, -3.034950, 29.599964, 4.622754, -3.516233, 0.573032, -0.266818, 31.897949, -124.339691, 126.256577, 13.727778, 100.772323
1759316050.076649, 0.426916, 20.688147, 7.679851, -1.004810, 0.104771, 0.604853, 30.651871, -126.250748, 127.831543, 13.727778, 100.772323
1759316050.096661, 1.072004, 12.436082, 4.087650, 1.239964, 0.067524, 0.725096, 30.889404, -125.468384, 127.091766, 13.727778, 100.772323
1759316050.116676, 0.095918, 9.772233, 0.802506, 1.459842, 1.029274, 0.516570, 30.703430, -123.700455, 126.444382, 13.727778, 100.772323
1759316050.136652, -0.096217, 8.634988, 0.090531, 0.632214, 1.812825, 0.418363, 29.235046, -122.120255, 126.327164, 13.727778, 100.772323
1759316050.156547, 0.081702, 7.184850, 0.702399, -0.389385, 1.628862, 0.394558, 27.106003, -121.873550, 125.661484, 13.727778, 100.772323
1759316050.177221, -0.126893, 7.095366, 1.397765, -1.308568, 0.848173, 0.151427, 26.082611, -122.563004, 126.204727, 13.727778, 100.772323
1759316050.197217, -1.083077, 9.027786, 1.328483, -1.751157, 0.165293, 0.152651, 25.579483, -123.895050, 125.294479, 13.727778, 100.772323
1759316050.216903, -1.634791, 9.871892, 1.221941, -1.898467, -0.313866, 0.135292, 25.854858, -125.668747, 125.382599, 13.727778, 100.772323
1759316050.237190, -1.976413, 9.703849, 0.969951, -1.961477, -0.609767, 0.079279, 26.404251, -127.473572, 126.437271, 13.727778, 100.772323
1759316050.257214, -2.015619, 7.974188, -1.873912, -0.714667, -0.414860, 0.001609, 26.719070, -128.633682, 126.378021, 13.727778, 100.772323
1759316050.277214, -2.357391, 6.273108, -5.062539, 1.585451, 0.674220, -0.344729, 26.632568, -127.791183, 126.876389, 13.727778, 100.772323
1759316050.297219, -1.808819, 6.648548, -2.310105, 0.676889, 1.253557, -0.397551, 25.477402, -126.891724, 125.378967, 13.727778, 100.772323
1759316050.317211, -1.437120, 6.264279, -2.896086, -0.241045, 0.815950, -0.286208, 24.566620, -126.941437, 125.128845, 13.727778, 100.772323
1759316050.336308, -0.515352, 8.612542, -4.486584, -0.615853, 0.466147, -0.402538, 23.916748, -127.534378, 125.696289, 13.727778, 100.772323
1759316050.357034, -0.328006, 10.414328, -3.403807, -1.023387, 0.946267, -0.570295, 22.941452, -128.506744, 124.960739, 13.727778, 100.772323
1759316050.377190, -0.263961, 11.067347, 1.107169, -1.319406, 0.470703, -0.436237, 22.116013, -129.638550, 125.594254, 13.727778, 100.772323
1759316050.397217, 0.379331, 11.628637, 3.891027, -1.098065, -1.019862, -0.064878, 22.094238, -130.401138, 124.855164, 13.727778, 100.772323
1759316050.416638, 0.850839, 14.389451, 3.969586, -0.408976, -2.340909, 0.383024, 23.596634, -131.104431, 126.654541, 13.727778, 100.772323
1759316050.437188, 1.089511, 15.828067, 0.452953, 0.550177, -2.138541, 0.638155, 26.365723, -131.052231, 126.320129, 13.727778, 100.772323
1759316050.457212, 0.596455, 10.680983, -1.715296, 0.621574, -0.873417, 0.450505, 27.906860, -130.049057, 126.898285, 13.727778, 100.772323
1759316050.477187, -0.490662, 7.340323, -1.132308, -0.003844, -0.156330, 0.190568, 28.478333, -129.376801, 127.711960, 13.727778, 100.772323
1759316050.497176, -1.129016, 5.954380, -0.482881, -0.648790, -0.029426, 0.056330, 28.460297, -129.504440, 127.165375, 13.727778, 100.772323
1759316050.517214, -1.480514, 5.773917, -0.287603, -1.047279, 0.113327, -0.158552, 28.636658, -130.294983, 128.205383, 13.727778, 100.772323
1759316050.537186, -1.544709, 7.002591, 0.076315, -1.190339, 0.401823, -0.106412, 28.079926, -131.424103, 127.241455, 13.727778, 100.772323
1759316050.556727, -1.983147, 8.967782, 1.579425, -1.069598, 0.392445, 0.086693, 27.769669, -132.521988, 127.337845, 13.727778, 100.772323
1759316050.577199, -2.384774, 10.483760, 2.538752, -0.489880, 0.104432, 0.384808, 27.485443, -133.285187, 127.590942, 13.727778, 100.772323
1759316050.596555, -2.060809, 9.719262, 1.869871, -0.167845, -0.064970, 0.261818, 27.404526, -133.479965, 127.058701, 13.727778, 100.772323
1759316050.616402, -1.785925, 10.563068, 1.485452, -0.224696, -0.384161, 0.115827, 27.603485, -133.726288, 127.224518, 13.727778, 100.772323
1759316050.636645, -1.508197, 11.501446, 0.884209, -0.397039, -0.754911, 0.092493, 28.336914, -133.939758, 127.751312, 13.727778, 100.772323
1759316050.656562, -1.570297, 11.691485, -1.749114, -0.006972, -0.849403, -0.090641, 29.238449, -134.334015, 127.432541, 13.727778, 100.772323
1759316050.677250, -2.080262, 9.908254, -3.437176, 0.307417, -0.900971, -0.279966, 30.384872, -133.949905, 128.411591, 13.727778, 100.772323
1759316050.697214, -1.994819, 8.545504, -1.709909, -0.018287, -0.202615, -0.270951, 30.559784, -133.763504, 127.940903, 13.727778, 100.772323
1759316050.717215, -1.398064, 8.727763, 1.414674, -0.392402, 0.081367, -0.116890, 30.576904, -133.890381, 128.217712, 13.727778, 100.772323
1759316050.737136, -0.947206, 8.528895, 2.804957, -0.254611, -0.198894, -0.062813, 30.775070, -134.368835, 129.065643, 13.727778, 100.772323
1759316050.756459, -0.889446, 9.160066, 2.508076, 0.049216, -0.330926, -0.057231, 30.988205, -134.445938, 128.393356, 13.727778, 100.772323
1759316050.777218, -0.869843, 9.891495, 1.525855, -0.018126, -0.350697, 0.018109, 31.408386, -134.404251, 129.257843, 13.727778, 100.772323
1759316050.797214, -0.702549, 10.070910, 0.582988, -0.300012, -0.364539, 0.107461, 31.692642, -134.455414, 127.751358, 13.727778, 100.772323
1759316050.816659, -0.639701, 9.668235, -0.157269, -0.420466, -0.252821, 0.129493, 32.223007, -134.998215, 128.286194, 13.727778, 100.772323
1759316050.836981, -1.243638, 9.540145, -0.404770, -0.159364, -0.032085, 0.149379, 32.192352, -135.072235, 128.827103, 13.727778, 100.772323
1759316050.857207, -1.623418, 9.793183, 0.302867, -0.150248, 0.110387, 0.103970, 32.043411, -135.214691, 127.991898, 13.727778, 100.772323
1759316050.876631, -1.839944, 9.973795, 0.902015, -0.157659, 0.073275, 0.061785, 31.972916, -135.180466, 128.714005, 13.727778, 100.772323
1759316050.896670, -1.889025, 9.925013, 1.310077, -0.042278, -0.139343, 0.015778, 31.915878, -135.221985, 127.911575, 13.727778, 100.772323
1759316050.916814, -1.613243, 9.562292, 1.026215, 0.015051, -0.199999, -0.058165, 32.046082, -135.189850, 128.938782, 13.727778, 100.772323
1759316050.936816, -1.299603, 9.345617, 0.786196, -0.025367, -0.127646, -0.044835, 32.330994, -135.401688, 128.091690, 13.727778, 100.772323
1759316050.956667, -1.114800, 9.337386, 0.637905, -0.031861, 0.021880, -0.022524, 32.518494, -135.424866, 128.045593, 13.727778, 100.772323
1759316050.976658, -0.997035, 9.645490, 0.802806, -0.003432, 0.074991, -0.006058, 32.456558, -135.378815, 129.309753, 13.727778, 100.772323
1759316050.996668, -0.833930, 9.661053, 0.999878, 0.006259, -0.053107, 0.011740, 32.382416, -135.443069, 128.168655, 13.727778, 100.772323
1759316051.016658, -0.726042, 9.609877, 1.077241, -0.011363, -0.216235, 0.021388, 32.536148, -135.457428, 128.212708, 13.727778, 100.772323
1759316051.036660, -0.712275, 9.679159, 1.107169, -0.030558, -0.282025, 0.026008, 32.756744, -135.455063, 128.117935, 13.727778, 100.772323
1759316051.057203, -0.824653, 9.686491, 1.087267, -0.027579, -0.220892, 0.042971, 33.222672, -135.496582, 128.351273, 13.727778, 100.772323
1759316051.077206, -1.051354, 9.652823, 0.910096, -0.025880, -0.035739, 0.082354, 33.130157, -135.285263, 129.139496, 13.727778, 100.772323
1759316051.097209, -1.280449, 9.440786, 1.001973, -0.040656, 0.084774, 0.080018, 33.141357, -135.320175, 128.399673, 13.727778, 100.772323
1759316051.117205, -1.474978, 9.149442, 1.243937, -0.022521, 0.012952, 0.029471, 33.043411, -135.419495, 128.012558, 13.727778, 100.772323
1759316051.136627, -1.608006, 9.970054, 0.959177, 0.046927, -0.042463, 0.014803, 33.030731, -135.314346, 129.124451, 13.727778, 100.772323
1759316051.156656, -1.370381, 9.881170, 0.876427, 0.030427, -0.070667, -0.024672, 33.155212, -135.352005, 128.682007, 13.727778, 100.772323
1759316051.177218, -1.099088, 9.688436, 0.788441, -0.004184, -0.072496, 0.003373, 33.284454, -135.357147, 128.958771, 13.727778, 100.772323
1759316051.197206, -0.769287, 9.255684, 0.921917, -0.035101, -0.066651, -0.004083, 33.209671, -135.518021, 128.172638, 13.727778, 100.772323
1759316051.216277, -0.746542, 9.289802, 0.838270, -0.035250, 0.023639, 0.014499, 33.145020, -135.393509, 128.232483, 13.727778, 100.772323
1759316051.236463, -0.708085, 9.449764, 0.856975, -0.002532, 0.067350, 0.021312, 33.125534, -135.292419, 129.258606, 13.727778, 100.772323
1759316051.257210, -0.747141, 9.909301, 0.875380, 0.006437, 0.015813, 0.048199, 33.184479, -135.357010, 128.694946, 13.727778, 100.772323
1759316051.277204, -0.857872, 10.052205, 0.725593, -0.030733, -0.042678, 0.058006, 33.285614, -135.588364, 129.431610, 13.727778, 100.772323
1759316051.297199, -0.805050, 9.548974, 0.522684, -0.023165, -0.051050, 0.052503, 33.186813, -135.565414, 128.124390, 13.727778, 100.772323
1759316051.317187, -0.796521, 9.150788, 0.490362, 0.005650, -0.015970, 0.027134, 33.406876, -135.524994, 128.688843, 13.727778, 100.772323
1759316051.336305, -0.798167, 9.419238, 0.805948, 0.003182, -0.075884, 0.004720, 33.190216, -135.697617, 128.379562, 13.727778, 100.772323
1759316051.357202, -0.749984, 9.723003, 0.946159, -0.014244, -0.188055, -0.018462, 33.543472, -135.649719, 128.440842, 13.727778, 100.772323
1759316051.377200, -0.719009, 9.954043, 0.742801, -0.017629, -0.168139, -0.010647, 33.826614, -135.663651, 129.335648, 13.727778, 100.772323
1759316051.397206, -0.462081, 9.735572, 0.779163, -0.018415, -0.135929, 0.012862, 33.838425, -135.520340, 128.958374, 13.727778, 100.772323
1759316051.417210, -0.332944, 9.724649, 0.837971, -0.046137, -0.130983, 0.036009, 33.980820, -135.623337, 129.752670, 13.727778, 100.772323
1759316051.437180, -0.357335, 9.608081, 0.825850, -0.045551, -0.126947, 0.033935, 34.168991, -135.634750, 128.994080, 13.727778, 100.772323
1759316051.457209, -0.449062, 9.588927, 0.854431, -0.018705, -0.111864, 0.046754, 34.223999, -135.751923, 128.831924, 13.727778, 100.772323
1759316051.477195, -0.514454, 9.764153, 0.823007, -0.021328, -0.123024, 0.055853, 34.351517, -135.744614, 129.302231, 13.727778, 100.772323
1759316051.497203, -0.552312, 9.560496, 0.886752, -0.056512, -0.197586, 0.053569, 34.611252, -135.788818, 129.112076, 13.727778, 100.772323
1759316051.517205, -0.578649, 9.203910, 0.912340, -0.064630, -0.246624, 0.035001, 34.955490, -135.845367, 129.423401, 13.727778, 100.772323
1759316051.536775, -0.729633, 9.325266, 0.841263, -0.028225, -0.169506, 0.023095, 35.163574, -135.941772, 128.627930, 13.727778, 100.772323
1759316051.557201, -0.902015, 9.520992, 0.850839, -0.005989, -0.025189, 0.008050, 35.087326, -136.010925, 128.618866, 13.727778, 100.772323
1759316051.577198, -0.903961, 9.820866, 0.974290, -0.004946, 0.057901, -0.003852, 35.121048, -135.733627, 129.534256, 13.727778, 100.772323
1759316051.597198, -0.764499, 9.835979, 0.957531, 0.003594, 0.069945, -0.001466, 34.863586, -135.912476, 128.917206, 13.727778, 100.772323
1759316051.616651, -0.556053, 9.706094, 0.947655, 0.014660, 0.030723, 0.008880, 34.780121, -135.992462, 128.673737, 13.727778, 100.772323
1759316051.636612, -0.546028, 9.519944, 1.155202, 0.008464, -0.097054, 0.012737, 35.054214, -135.851379, 129.670013, 13.727778, 100.772323
1759316051.657205, -0.723049, 9.466374, 1.175403, 0.011458, -0.179648, 0.021094, 35.235153, -135.948242, 128.590820, 13.727778, 100.772323
1759316051.676650, -0.757765, 9.651625, 0.964414, 0.044981, -0.122761, 0.006555, 35.425644, -135.790482, 129.478287, 13.727778, 100.772323
1759316051.696665, -0.508469, 9.705794, 0.900519, 0.088232, -0.095492, -0.020388, 35.404022, -135.892502, 128.649643, 13.727778, 100.772323
1759316051.716652, -0.278027, 9.539996, 0.892588, 0.117252, -0.188742, 0.022632, 35.316940, -135.807022, 128.923126, 13.727778, 100.772323
1759316051.737183, -0.227150, 9.403676, 0.638354, 0.077442, -0.184714, 0.069947, 35.805908, -135.743057, 129.524094, 13.727778, 100.772323
1759316051.757216, -0.127342, 9.548076, 0.512658, 0.014404, -0.108772, 0.073684, 36.017426, -135.590103, 128.739685, 13.727778, 100.772323
1759316051.777194, -0.030077, 9.844359, 0.532710, -0.026806, -0.113063, 0.047197, 36.136520, -135.588226, 129.485916, 13.727778, 100.772323
1759316051.797188, 0.077662, 10.113557, 0.550217, -0.030259, -0.179380, 0.024487, 36.356689, -135.679962, 128.860947, 13.727778, 100.772323
1759316051.817200, 0.206650, 9.924116, 0.656909, -0.010281, -0.326281, 0.025148, 36.464127, -135.677963, 129.990784, 13.727778, 100.772323
1759316051.836295, 0.188992, 9.562142, 0.491260, -0.051470, -0.488161, 0.069059, 36.859085, -135.722366, 129.180511, 13.727778, 100.772323
1759316051.857192, 0.151882, 9.443928, 0.335936, -0.123357, -0.630110, 0.106067, 37.481583, -135.763916, 128.854553, 13.727778, 100.772323
1759316051.877191, 0.116568, 10.013300, 0.387861, -0.142227, -0.812217, 0.090101, 38.132111, -135.986633, 129.869934, 13.727778, 100.772323
1759316051.897201, 0.007033, 10.346991, 0.430657, -0.139625, -1.008301, 0.077142, 39.221725, -136.006012, 129.044968, 13.727778, 100.772323
1759316051.917196, -0.088286, 9.738266, 0.084246, -0.185603, -1.064158, 0.108077, 40.325562, -136.240967, 129.590729, 13.727778, 100.772323
1759316051.937181, -0.181510, 9.043648, -0.074071, -0.239879, -0.992107, 0.136249, 41.313110, -136.330795, 128.919998, 13.727778, 100.772323
1759316051.957199, -0.143353, 9.125350, -0.075866, -0.219925, -0.855703, 0.047143, 42.559998, -136.515884, 129.181747, 13.727778, 100.772323
1759316051.977185, -0.192584, 9.602844, 0.068235, -0.177856, -0.725778, -0.029135, 43.125183, -136.622040, 129.629868, 13.727778, 100.772323
1759316051.997196, -0.032621, 9.643994, 0.215927, -0.174834, -0.714333, -0.094699, 44.305618, -136.879242, 129.255035, 13.727778, 100.772323
1759316052.017200, 0.055366, 9.844808, 0.422726, -0.177017, -0.844319, -0.074115, 45.222366, -137.050827, 129.110016, 13.727778, 100.772323
1759316052.037168, 0.210540, 9.845406, 0.543933, -0.176206, -1.027833, -0.047216, 46.176834, -137.080978, 129.229630, 13.727778, 100.772323
1759316052.056655, 0.371251, 9.503933, 0.642694, -0.173539, -1.228831, -0.035739, 47.531784, -137.149841, 129.087036, 13.727778, 100.772323
1759316052.077194, 0.359130, 9.439290, 0.568473, -0.175942, -1.354378, -0.100428, 48.861954, -137.226044, 129.525253, 13.727778, 100.772323
1759316052.097200, 0.300921, 9.716568, 0.218321, -0.198415, -1.252032, -0.189391, 50.176224, -137.195312, 128.028122, 13.727778, 100.772323
1759316052.117191, 0.272490, 10.135553, 0.252738, -0.243266, -1.125366, -0.220317, 51.634888, -137.442703, 128.130234, 13.727778, 100.772323
1759316052.137171, 0.298078, 10.047118, 0.433201, -0.317268, -1.157388, -0.262853, 52.904419, -137.542480, 128.781219, 13.727778, 100.772323
1759316052.157196, 0.351948, 10.240599, 0.606631, -0.404280, -1.352283, -0.318847, 54.305923, -137.751083, 127.626114, 13.727778, 100.772323
1759316052.177201, 0.474351, 10.280702, 0.680253, -0.431731, -1.554833, -0.381254, 55.895966, -137.933945, 128.164413, 13.727778, 100.772323
1759316052.197190, 0.632817, 10.120440, 0.342670, -0.337247, -1.593579, -0.459356, 57.657318, -138.018448, 126.446167, 13.727778, 100.772323
1759316052.217195, 0.591069, 10.238504, -0.616208, -0.291779, -1.325267, -0.492681, 58.876221, -137.886215, 125.984390, 13.727778, 100.772323
1759316052.237169, 0.548123, 10.188974, -1.209221, -0.198947, -0.927282, -0.523453, 59.906464, -137.838028, 126.312668, 13.727778, 100.772323
1759316052.257197, 0.439935, 9.911247, -0.824952, -0.030872, -0.601301, -0.616532, 60.901474, -137.287704, 125.967834, 13.727778, 100.772323
1759316052.276429, 0.589123, 10.070611, -0.230143, 0.047610, -0.494087, -0.668518, 61.212738, -137.165710, 126.302521, 13.727778, 100.772323
1759316052.297197, 1.069011, 9.795876, -0.502333, 0.214244, -0.465376, -0.755883, 61.540314, -136.543503, 125.468948, 13.727778, 100.772323
1759316052.317190, 1.650503, 10.853664, -0.166547, 0.553959, -0.500230, -0.722375, 61.982330, -135.697952, 126.453461, 13.727778, 100.772323
1759316052.337165, 1.900248, 12.842498, 0.444424, 0.977769, -0.587276, -0.586628, 62.682816, -134.610229, 125.268158, 13.727778, 100.772323
1759316052.357190, 1.782633, 13.191303, 1.826177, 1.102767, -0.976443, -0.486653, 63.365646, -133.053284, 125.140579, 13.727778, 100.772323
1759316052.377184, 0.695516, 11.054927, 1.813608, 1.292936, -1.582989, -0.563259, 64.552322, -131.068558, 125.125534, 13.727778, 100.772323
1759316052.397191, -1.385644, 9.138069, 0.692373, 1.670491, -1.832987, -0.682385, 66.386826, -128.931549, 123.415466, 13.727778, 100.772323
1759316052.417080, -2.073828, 7.146542, -0.108787, 1.879130, -1.503143, -0.864389, 67.902618, -126.490677, 123.310989, 13.727778, 100.772323
1759316052.437164, -2.182165, 7.708132, -0.149488, 1.955912, -0.895862, -0.868855, 68.571335, -124.058533, 121.180908, 13.727778, 100.772323
1759316052.457187, -1.874810, 10.125528, -0.106991, 2.096785, -0.275043, -0.418395, 68.972794, -121.713440, 120.192505, 13.727778, 100.772323
1759316052.476533, -1.754052, 10.856358, 0.389357, 2.015559, 0.318039, 0.030843, 68.693085, -119.566696, 121.273392, 13.727778, 100.772323
1759316052.497191, -1.674295, 10.698490, 0.886902, 1.684659, 0.835963, 0.022018, 68.086914, -117.877701, 120.132309, 13.727778, 100.772323
1759316052.517184, -1.332822, 10.182839, 0.527473, 1.763391, 1.288202, -0.040247, 66.851120, -116.282089, 120.649399, 13.727778, 100.772323
1759316052.537028, -1.014842, 10.058939, 0.659154, 2.105353, 1.441808, 0.090575, 65.545074, -114.028275, 120.492935, 13.727778, 100.772323
1759316052.557187, -1.137545, 9.867104, 0.836474, 2.140529, 1.224624, 0.233272, 64.443756, -112.087601, 120.108200, 13.727778, 100.772323
1759316052.577184, -1.098789, 9.380183, -0.259621, 1.978608, 1.057155, 0.351819, 63.548355, -110.485123, 120.116455, 13.727778, 100.772323
1759316052.596744, -1.208623, 9.187749, -0.800860, 1.865006, 0.649222, 0.487552, 63.201843, -108.914886, 118.877487, 13.727778, 100.772323
1759316052.617184, -1.224036, 9.587880, 0.126893, 1.655382, -0.996620, 0.751450, 64.175003, -107.671204, 117.546997, 13.727778, 100.772323
1759316052.636897, -1.473631, 9.411307, -2.097321, 1.557034, -1.790550, 0.890171, 66.011093, -106.588440, 116.502243, 13.727778, 100.772323
1759316052.657192, -1.100734, 9.187300, -2.923021, 1.344658, -1.471144, 0.946777, 67.561554, -106.266617, 114.483231, 13.727778, 100.772323
1759316052.677181, -0.586280, 9.249549, -2.237980, 0.905316, -0.943169, 1.053662, 68.973663, -105.746567, 114.380966, 13.727778, 100.772323
1759316052.697195, -0.422128, 8.241291, -0.865504, 0.547328, -1.067297, 1.048235, 70.042969, -105.678024, 112.584732, 13.727778, 100.772323
1759316052.717163, -1.038036, 6.985981, -1.531092, 0.365580, -1.533996, 0.547726, 71.275757, -105.868134, 111.486664, 13.727778, 100.772323
1759316052.737172, -1.857751, 6.124368, -2.490269, 0.103099, -1.501786, 0.159668, 72.712631, -105.692383, 111.035431, 13.727778, 100.772323
1759316052.757164, -2.650381, 5.873874, -3.013402, -0.272349, -1.144761, -0.120775, 73.388397, -105.599442, 109.665268, 13.727778, 100.772323
1759316052.777171, -3.174861, 6.494571, -2.705448, -0.558542, -0.957870, -0.234319, 73.749008, -105.606766, 110.081024, 13.727778, 100.772323
1759316052.796252, -3.245340, 7.020248, -2.671929, -0.759741, -1.073548, -0.173758, 74.200134, -105.933868, 109.156540, 13.727778, 100.772323
1759316052.817163, -2.351256, 7.228095, -4.265719, -1.197222, -1.132734, -0.196424, 74.951248, -106.187592, 110.302139, 13.727778, 100.772323
1759316052.836711, -2.249502, 7.775320, -4.824915, -1.525927, -1.231064, -0.240167, 75.627945, -106.817139, 108.953018, 13.727778, 100.772323
1759316052.857171, -3.044527, 8.814702, -6.417358, -1.462216, -0.738611, -0.248801, 76.234344, -107.520004, 108.855560, 13.727778, 100.772323
1759316052.877165, -2.507627, 11.291654, -7.305009, -1.023288, 0.489793, -0.149825, 76.311035, -107.997223, 110.148010, 13.727778, 100.772323
1759316052.897186, 0.050727, 12.966398, -4.319289, -0.596815, 1.034772, 0.290817, 75.558533, -108.256699, 110.480362, 13.727778, 100.772323
1759316052.917173, 2.141164, 9.507824, -2.840720, -0.404105, 0.226153, 0.593510, 74.846085, -108.660355, 111.485809, 13.727778, 100.772323
1759316052.936490, 2.383877, 7.950994, -4.034230, -0.395826, -0.002412, 0.586311, 74.885681, -109.247162, 111.383377, 13.727778, 100.772323
1759316052.957181, 1.130213, 6.529437, -4.683657, -0.528797, -0.108976, 0.240642, 75.108124, -109.521683, 111.693420, 13.727778, 100.772323
1759316052.977182, -1.137395, 11.319636, -1.437868, -0.771939, -1.320115, 0.120891, 75.379929, -110.131744, 112.380402, 13.727778, 100.772323
1759316052.997064, -3.629011, 18.350508, 0.330699, -0.573062, -1.749355, -0.155148, 76.515121, -110.647659, 110.667633, 13.727778, 100.772323
1759316053.017121, -2.117671, 17.673997, 1.226729, -0.263798, -1.696311, -0.093905, 77.396149, -110.382736, 109.597870, 13.727778, 100.772323
1759316053.036395, -0.517297, 10.575488, 0.534954, -0.324051, -1.756274, -0.090662, 78.001266, -110.199463, 109.309418, 13.727778, 100.772323
1759316053.056628, -0.365265, 5.787683, -0.379331, -0.212833, -1.561330, -0.211249, 78.530319, -109.742966, 107.342224, 13.727770, 100.772320
1759316053.076634, 0.078410, 4.232200, 1.047164, -0.066102, -1.704291, -0.143100, 79.124832, -109.590530, 107.156052, 13.727770, 100.772320
1759316053.096642, 0.740706, 5.225944, 2.367566, 0.185239, -2.234878, 0.210749, 80.160919, -109.437714, 104.369873, 13.727770, 100.772320
1759316053.116972, 0.464176, 9.413103, 2.946664, 0.432611, -2.705130, 0.428496, 81.905899, -109.275635, 102.235489, 13.727770, 100.772320
1759316053.136260, 0.093374, 12.741343, 2.402881, 0.298768, -2.671667, 0.500898, 83.647263, -109.622055, 100.288345, 13.727770, 100.772320
1759316053.157153, -0.488417, 13.046454, 1.471387, -0.306672, -2.194248, 0.823978, 84.995361, -109.954987, 98.046158, 13.727770, 100.772320
1759316053.177158, -1.530344, 11.500099, 0.729334, -0.944701, -1.562667, 1.219799, 85.960144, -111.144028, 97.880127, 13.727770, 100.772320
1759316053.196742, -1.967884, 9.586683, 0.147094, -1.276036, -0.850206, 1.172595, 86.710083, -112.536240, 96.484665, 13.727770, 100.772320
1759316053.216773, -1.995417, 8.317457, 0.069432, -1.264287, -0.366537, 0.985448, 87.104828, -113.835938, 96.941238, 13.727770, 100.772320
1759316053.237140, -1.887080, 7.438336, -0.116119, -0.930246, -0.088003, 0.740518, 87.433090, -114.929260, 99.342300, 13.727770, 100.772320
1759316053.257164, -3.338116, 6.969970, -2.497901, 0.579675, -0.510603, -0.079766, 87.710876, -115.095459, 96.278305, 13.727770, 100.772320
1759316053.277180, -2.471564, 9.261371, -0.908600, -0.549791, -1.716303, -0.171703, 87.842728, -114.999878, 96.670975, 13.727770, 100.772320
1759316053.297179, -1.255160, 9.815030, -0.615459, -0.833725, -1.371492, -0.066085, 88.163727, -114.833694, 94.708481, 13.727770, 100.772320
1759316053.316654, -0.540790, 9.572467, 1.227328, -0.488278, -1.336561, -0.016118, 88.356613, -114.740982, 94.511353, 13.727770, 100.772320
1759316053.336412, -0.166397, 9.319580, 1.429189, -0.248182, -1.569091, -0.055901, 88.818390, -114.964859, 92.587646, 13.727770, 100.772320
1759316053.356633, 0.356137, 9.564087, 0.002095, -0.729710, -1.704200, -0.213690, 89.605927, -114.918381, 91.060364, 13.727770, 100.772320
1759316053.376604, 0.812083, 10.358813, -1.507449, -1.458227, -1.499098, -0.373385, 89.903748, -114.791656, 90.595123, 13.727770, 100.772320
1759316053.396457, 0.676811, 10.718691, -2.407519, -0.444511, -0.815269, -0.182148, 89.791321, -114.588821, 89.658157, 13.727770, 100.772320
1759316053.416492, 0.645088, 9.182212, -2.055572, 0.094022, -0.291723, -0.304029, 89.797531, -114.355453, 88.982635, 13.727770, 100.772320
1759316053.437152, -0.001945, 9.365069, 1.603068, 0.182910, -0.657294, -0.248607, 89.664932, -113.861511, 88.515350, 13.727770, 100.772320
1759316053.457173, -0.692074, 9.582493, 1.385495, 0.302481, -0.701408, -0.247265, 89.704346, -113.500793, 87.770782, 13.727770, 100.772320
1759316053.477177, -1.752705, 10.868329, 1.066168, 0.102036, -0.775889, -0.155736, 89.698700, -113.164505, 88.212341, 13.727770, 100.772320
1759316053.497177, -1.915212, 11.539154, 1.772607, 0.608287, -0.753421, -0.131438, 89.691528, -113.013428, 85.991348, 13.727770, 100.772320
1759316053.516324, -1.070059, 13.212402, 2.997540, 0.985979, -1.092050, 0.059547, 89.855179, -112.685852, 84.975037, 13.727770, 100.772320
1759316053.536876, -0.642095, 11.072434, 0.635810, 1.241678, -1.117422, 0.132326, 90.196838, -112.537399, 84.564255, 13.727770, 100.772320
1759316053.557174, -1.044919, 8.288577, -1.653944, 1.422555, -0.517367, -0.136652, 90.036118, -112.040527, 82.153503, 13.727770, 100.772320
1759316053.577186, -2.045696, 7.654712, -1.080234, 1.515207, -0.078177, -0.530476, 89.824631, -111.237030, 82.168045, 13.727770, 100.772320
1759316053.597176, -2.418144, 6.951565, -0.697760, 1.913908, 0.276781, -1.048354, 89.117310, -110.134888, 81.134979, 13.727770, 100.772320
1759316053.616186, -2.675221, 7.286005, -0.517148, 2.368544, 0.601027, -1.186100, 88.614380, -108.746246, 80.872147, 13.727770, 100.772320
1759316053.637152, -2.681805, 9.317934, -1.203086, 2.581286, 1.056072, -0.688326, 88.089554, -107.632950, 81.230911, 13.727770, 100.772320
1759316053.657183, -1.761684, 12.581829, -2.501941, 2.432448, 1.627325, 0.098477, 87.790390, -107.397491, 80.650558, 13.727770, 100.772320
1759316053.677179, -0.612018, 14.144494, -2.705598, 2.071360, 1.624962, 0.489658, 87.612274, -107.381073, 81.469727, 13.727770, 100.772320
1759316053.697169, 0.801908, 13.372514, -2.775628, 1.707505, 1.026894, 0.821634, 87.764740, -107.647980, 80.926819, 13.727770, 100.772320
1759316053.717230, 0.830788, 9.993996, -0.253486, 1.184325, 0.270479, 0.837149, 87.749405, -108.230774, 80.707764, 13.727770, 100.772320
1759316053.737146, 1.096544, 9.126098, 1.337611, 0.728924, -0.945409, 0.726132, 88.116898, -108.708420, 80.490768, 13.727770, 100.772320
1759316053.757176, 0.887800, 10.145579, 0.355389, 0.755850, -2.018800, 0.658094, 88.290054, -109.058624, 78.298584, 13.727770, 100.772320
1759316053.776255, -0.141258, 10.276063, -1.106271, 0.923353, -2.213143, 0.850250, 88.439728, -109.656174, 76.939453, 13.727770, 100.772320
1759316053.797173, -0.445172, 9.408165, -0.885406, 0.732837, -2.302981, 1.004688, 88.766357, -110.602158, 73.617813, 13.727770, 100.772320
1759316053.817172, -0.492008, 8.117092, -1.042376, 0.532975, -2.330653, 1.051357, 88.812698, -111.387924, 71.792801, 13.727770, 100.772320
1759316053.836739, -0.777517, 6.810456, -1.267580, 0.360512, -2.212732, 0.876572, 89.068222, -112.447617, 69.017990, 13.727770, 100.772320
1759316053.857170, -0.985064, 6.824522, -0.027683, -0.117155, -2.488442, 0.626426, 88.985062, -113.211960, 66.552322, 13.727770, 100.772320
1759316053.877172, -1.521216, 7.820510, -1.090559, -0.415661, -2.373773, 0.515286, 88.602646, -113.821747, 65.727753, 13.727770, 100.772320
1759316053.897172, -2.081758, 8.535479, -0.979378, -0.597630, -2.236971, 0.380585, 88.517365, -113.929810, 62.754822, 13.727770, 100.772320
1759316053.917009, -2.299032, 9.468619, -0.307655, -0.910386, -2.630011, 0.551668, 88.071198, -114.209869, 60.910278, 13.727770, 100.772320
1759316053.936605, -1.829619, 9.444078, 0.007482, -1.456907, -3.374203, 0.767720, 87.258286, -114.288834, 58.354828, 13.727770, 100.772320
1759316053.956625, -1.311574, 8.793304, -0.015113, -1.995411, -3.963401, 0.708239, 86.077057, -114.219879, 55.828491, 13.727770, 100.772320
1759316053.976627, -1.771709, 8.664466, -0.021697, -2.112101, -4.317829, 0.529736, 84.207336, -113.901489, 53.501587, 13.727770, 100.772320
1759316053.997166, -2.465429, 9.043947, -1.040879, -1.536182, -4.189258, 0.254775, 82.583908, -113.283325, 49.950851, 13.727770, 100.772320
1759316054.016892, -3.109320, 10.064176, -1.396867, -0.852594, -3.627655, 0.129652, 80.541016, -113.042267, 46.897202, 13.727770, 100.772320
1759316054.036939, -2.885163, 10.960655, -1.072004, -0.775602, -3.077946, 0.231405, 78.842316, -112.639496, 45.587570, 13.727770, 100.772320
1759316054.057167, -3.185485, 12.204443, -1.227328, -0.517558, -2.874469, 0.340847, 76.993820, -112.450653, 43.240952, 13.727770, 100.772320
1759316054.077165, -4.002956, 11.854441, -2.177227, 0.371016, -2.890242, 0.060091, 75.241043, -112.462219, 42.117249, 13.727770, 100.772320
1759316054.097166, -3.748272, 10.161141, -2.515109, 0.772334, -2.550119, 0.070738, 72.961075, -113.069153, 39.019821, 13.727770, 100.772320
1759316054.116638, -2.075474, 8.259996, -1.551293, 0.158340, -1.828300, 0.216400, 71.447998, -113.350540, 37.688873, 13.727770, 100.772320
1759316054.136603, -1.150115, 8.119486, -0.339977, -0.322354, -1.446004, 0.205229, 70.262054, -113.253601, 37.280853, 13.727770, 100.772320
1759316054.156624, -0.937330, 9.616311, 1.101183, -0.184998, -1.666732, 0.184240, 69.159882, -113.177811, 36.149277, 13.727770, 100.772320
1759316054.176625, -0.928801, 10.218602, 1.934365, 0.305066, -2.085930, 0.031179, 67.356583, -113.300476, 35.844452, 13.727770, 100.772320
1759316054.197153, -1.237503, 9.686790, 1.202338, 0.677099, -1.985313, -0.100977, 65.703323, -113.912476, 33.729645, 13.727770, 100.772320
1759316054.217152, -1.341351, 9.020304, 0.458639, 0.461267, -1.227741, -0.090184, 64.551315, -114.120728, 32.642700, 13.727770, 100.772320
1759316054.237139, -0.812831, 9.283068, 1.113453, 0.001039, -0.704628, 0.092478, 64.358017, -114.432419, 32.457306, 13.727770, 100.772320
1759316054.257168, -0.525827, 9.859023, 1.469441, -0.375286, -0.554921, 0.358008, 63.832993, -114.240479, 32.499878, 13.727770, 100.772320
1759316054.277169, -0.474202, 9.981277, 1.150414, -0.473546, -0.412704, 0.435600, 63.365311, -114.033600, 32.814224, 13.727770, 100.772320
1759316054.297166, -0.369156, 10.021679, 1.510741, -0.303266, -0.508826, 0.280730, 63.340927, -113.898987, 32.322266, 13.727770, 100.772320
1759316054.317183, -0.946757, 10.322900, 0.789937, -0.282974, -0.518707, 0.326329, 63.001038, -113.985794, 33.302811, 13.727770, 100.772320
1759316054.336802, -1.449240, 10.153660, 0.276231, -0.444961, -0.290622, 0.489081, 62.537857, -113.743683, 32.538162, 13.727770, 100.772320
1759316054.357166, -1.727716, 9.771635, 0.285359, -0.673872, -0.052951, 0.451567, 62.659805, -113.439972, 32.193100, 13.727770, 100.772320
1759316054.376618, -1.930475, 9.302970, 0.601394, -0.807115, 0.016132, 0.332813, 62.718658, -112.937714, 33.819031, 13.727770, 100.772320
1759316054.396620, -2.066795, 8.952668, 0.912640, -0.747869, -0.080674, 0.259210, 62.906296, -112.332443, 33.003799, 13.727770, 100.772320
1759316054.416620, -2.213589, 9.502886, 0.875979, -0.424287, -0.252984, 0.238165, 62.882355, -111.894867, 33.271072, 13.727770, 100.772320
1759316054.436599, -2.450914, 10.113557, -0.164003, 0.276435, -0.271374, 0.075484, 62.626480, -111.974411, 32.876450, 13.727770, 100.772320
1759316054.456622, -2.091186, 9.440188, 0.152630, 0.209004, -0.157960, -0.074238, 62.538498, -112.221817, 32.823898, 13.727770, 100.772320
1759316054.476624, -1.866430, 8.755595, 0.377835, -0.117571, -0.081515, -0.062769, 62.332916, -112.148529, 33.661499, 13.727770, 100.772320
1759316054.496622, -1.633294, 8.850166, 0.591817, -0.247213, 0.055633, -0.111642, 62.273819, -112.069473, 33.405609, 13.727770, 100.772320
1759316054.516622, -1.354071, 9.609877, 1.028160, -0.072719, 0.101032, -0.182945, 62.239075, -111.876648, 33.519867, 13.727770, 100.772320
1759316054.536603, -0.998232, 10.151565, 1.138293, 0.215069, 0.032488, -0.226301, 62.373413, -111.908142, 34.023636, 13.727770, 100.772320
1759316054.557166, -0.668581, 9.982025, 1.019631, 0.348776, -0.124605, -0.190610, 62.038849, -112.208542, 32.959473, 13.727770, 100.772320
1759316054.577163, -0.500538, 9.754127, 0.762404, 0.275055, -0.269796, -0.035369, 61.741638, -112.270905, 34.028854, 13.727770, 100.772320
1759316054.596509, -0.406865, 9.695170, 0.646584, 0.088926, -0.314818, 0.089073, 61.523865, -112.232864, 32.489990, 13.727770, 100.772320
1759316054.616388, -0.274435, 9.630676, 0.628179, -0.049188, -0.264854, 0.097184, 61.290909, -112.152298, 32.438980, 13.727770, 100.772320
1759316054.637148, -0.150535, 9.685294, 0.771980, -0.067690, -0.224269, 0.047432, 60.994812, -112.278290, 32.915146, 13.727770, 100.772320
1759316054.657168, -0.270246, 9.679757, 0.824503, -0.013237, -0.177253, 0.047884, 60.802750, -112.234024, 32.501068, 13.727770, 100.772320
1759316054.677165, -0.762404, 9.506028, 0.622044, 0.013356, 0.036245, 0.144691, 60.980804, -112.202133, 33.284912, 13.727770, 100.772320
1759316054.696627, -1.078737, 9.395446, 0.659603, -0.031055, 0.293451, 0.168933, 60.960388, -112.072067, 32.670883, 13.727770, 100.772320
1759316054.716624, -1.281197, 9.442282, 0.897227, -0.074979, 0.414682, 0.171412, 61.558853, -112.246048, 33.363846, 13.727770, 100.772320
1759316054.736593, -1.477671, 9.606734, 1.053748, -0.084796, 0.391014, 0.157970, 61.824005, -112.232590, 32.681824, 13.727770, 100.772320
1759316054.756625, -1.643320, 9.683498, 1.046865, -0.111312, 0.278867, 0.097196, 62.362595, -112.171936, 33.069183, 13.727770, 100.772320
1759316054.777162, -1.683722, 9.635913, 0.968305, -0.145174, 0.122151, 0.054363, 62.349136, -112.105118, 33.824203, 13.727770, 100.772320
1759316054.797158, -1.597681, 9.388413, 0.849493, -0.138993, -0.000841, 0.016891, 62.538513, -111.848541, 32.896317, 13.727770, 100.772320
1759316054.817104, -1.345392, 9.419089, 0.751779, -0.060089, -0.029421, -0.013866, 62.391037, -111.831894, 34.111496, 13.727770, 100.772320
1759316054.836592, -1.117045, 9.734974, 0.602591, 0.038561, 0.068542, -0.019743, 62.462769, -111.874847, 33.359192, 13.727770, 100.772320
1759316054.857158, -0.931943, 10.018836, 0.536152, 0.061000, 0.194854, -0.020727, 62.590240, -111.854721, 33.589111, 13.727770, 100.772320
1759316054.876809, -0.810886, 9.877129, 0.566378, 0.000430, 0.263386, -0.012955, 62.738403, -111.910248, 34.154785, 13.727770, 100.772320
1759316054.897162, -0.798915, 9.374048, 0.658106, -0.073352, 0.311665, 0.011654, 62.926682, -112.055328, 33.884705, 13.727770, 100.772320
1759316054.916953, -0.978630, 9.310452, 0.763750, -0.078009, 0.362626, 0.067198, 63.257462, -111.962692, 34.263290, 13.727770, 100.772320
1759316054.937134, -0.972046, 9.319280, 0.865654, -0.042165, 0.362281, 0.055649, 63.624603, -111.841553, 33.926697, 13.727770, 100.772320
1759316054.957156, -0.999130, 9.740959, 0.717213, -0.033541, 0.330919, 0.043977, 63.793304, -111.934982, 34.356842, 13.727770, 100.772320
1759316054.976545, -0.961571, 10.074501, 0.330400, -0.021956, 0.407293, 0.044975, 64.143173, -111.855255, 34.887543, 13.727770, 100.772320
1759316054.997151, -0.982521, 9.610475, 0.098162, -0.006612, 0.520742, 0.044613, 64.708694, -111.906342, 34.874374, 13.727770, 100.772320
1759316055.016819, -1.086968, 9.153931, 0.513556, -0.110511, 0.370134, 0.026247, 65.075531, -111.957169, 34.977982, 13.727770, 100.772320
1759316055.037130, -1.173308, 9.323321, 0.942567, -0.074039, 0.002940, 0.016472, 65.167923, -111.696960, 35.856049, 13.727770, 100.772320
1759316055.057160, -1.052850, 9.592219, 0.688183, 0.041783, -0.141138, -0.008984, 64.906677, -111.718216, 34.546036, 13.727770, 100.772320
1759316055.076492, -1.017087, 9.959879, 0.262764, -0.023680, -0.059032, 0.009309, 64.877029, -111.696503, 35.544144, 13.727770, 100.772320
1759316055.097150, -0.872687, 9.737517, 0.195277, -0.076536, 0.000475, 0.031093, 64.644287, -111.819016, 34.259735, 13.727770, 100.772320
1759316055.116663, -0.973393, 9.270648, 0.478990, -0.047505, -0.041092, 0.037038, 64.798035, -111.544052, 34.692398, 13.727770, 100.772320
1759316055.137121, -1.226879, 9.286510, 0.633266, -0.076022, -0.080879, 0.028000, 64.815933, -111.530823, 35.659851, 13.727770, 100.772320
1759316055.156312, -1.216254, 9.414001, 0.550816, -0.062921, -0.033056, 0.027209, 64.661819, -111.299500, 35.174484, 13.727770, 100.772320
1759316055.177135, -1.062876, 9.645490, 0.492158, 0.014268, 0.014655, 0.039754, 64.879974, -111.325073, 36.207596, 13.727770, 100.772320
1759316055.197150, -0.976236, 9.976189, 0.439186, 0.011811, -0.006826, 0.036428, 64.873199, -111.455414, 35.020355, 13.727770, 100.772320
1759316055.216569, -0.916381, 9.701305, 0.613664, -0.038472, -0.134559, 0.021832, 64.664017, -111.467148, 36.231262, 13.727770, 100.772320
1759316055.237110, -1.052551, 9.195380, 1.016937, -0.036059, -0.296864, 0.001685, 64.592453, -111.289215, 34.895248, 13.727770, 100.772320
1759316055.257156, -1.318607, 9.333795, 1.247229, -0.046924, -0.357541, 0.006623, 64.082367, -111.268738, 34.745575, 13.727770, 100.772320
1759316055.277133, -1.370232, 9.617807, 1.208623, -0.045603, -0.264605, 0.025174, 64.009827, -111.128799, 34.833466, 13.727770, 100.772320
1759316055.297161, -1.161936, 9.620351, 1.036240, 0.003091, -0.112600, 0.067939, 63.674072, -111.220352, 34.419067, 13.727770, 100.772320
1759316055.316408, -0.921319, 9.567978, 0.913388, 0.021501, -0.036434, 0.068775, 63.841904, -111.245361, 35.279587, 13.727770, 100.772320
1759316055.337132, -0.651223, 9.692925, 0.984615, -0.012991, -0.146947, 0.069648, 63.547501, -111.122772, 33.759232, 13.727770, 100.772320
1759316055.357161, -0.396390, 9.677662, 0.774375, -0.013918, -0.309549, 0.112518, 63.370209, -111.183685, 34.284302, 13.727770, 100.772320
1759316055.377151, -0.104148, 9.080010, -0.194828, 0.080178, -0.280913, 0.130482, 63.309906, -111.223251, 34.726395, 13.727770, 100.772320
1759316055.397012, 0.019453, 9.010578, -1.364994, 0.053898, -0.172752, 0.041999, 63.284714, -111.535141, 33.794617, 13.727770, 100.772320
1759316055.416252, -0.441431, 11.014674, -1.074997, -0.172632, -0.133428, 0.143249, 63.104752, -111.413757, 33.784744, 13.727770, 100.772320
1759316055.437129, -0.211887, 10.696694, -0.003891, -0.206907, -0.119197, 0.163480, 63.082886, -111.183426, 34.712311, 13.727770, 100.772320
1759316055.457152, -0.152780, 9.767894, 0.784700, -0.150138, -0.325513, 0.186187, 62.998611, -111.215851, 34.512177, 13.727770, 100.772320
1759316055.476342, -0.365714, 9.103952, 0.264559, -0.217241, -0.444664, 0.192828, 62.612991, -111.149353, 35.007767, 13.727770, 100.772320
1759316055.496862, -0.618003, 9.020454, -0.414646, -0.112517, -0.378468, 0.167073, 62.325958, -111.285339, 34.105728, 13.727770, 100.772320
1759316055.516909, -0.891541, 9.594763, -0.823456, -0.056029, -0.309158, 0.163237, 62.302353, -111.468933, 33.781937, 13.727770, 100.772320
1759316055.537130, -1.001076, 9.581296, -1.016339, -0.019677, -0.153412, 0.139856, 62.216080, -111.338623, 34.600601, 13.727770, 100.772320
1759316055.557153, -0.983418, 9.148544, -1.095647, -0.002387, 0.017670, 0.079073, 62.303238, -111.366501, 33.645950, 13.727770, 100.772320
1759316055.577149, -0.598550, 9.120562, -0.929848, -0.065710, 0.129367, 0.066662, 62.601334, -111.426270, 34.698196, 13.727770, 100.772320
1759316055.596709, -0.360926, 9.043947, -0.411503, -0.100173, 0.175686, 0.081400, 62.652161, -111.547012, 33.934662, 13.727770, 100.772320
1759316055.616196, -0.528370, 8.814702, -0.361973, -0.090230, 0.259623, 0.088761, 63.138336, -111.436493, 34.148041, 13.727770, 100.772320
1759316055.637123, -0.953341, 8.807819, -1.362899, 0.051469, 0.476901, 0.085571, 63.669952, -111.515305, 35.061951, 13.727770, 100.772320
1759316055.657160, -1.591695, 9.638308, -3.909133, 0.388178, 0.848718, 0.033152, 64.008255, -111.732544, 34.590576, 13.727770, 100.772320
1759316055.677156, -1.337162, 9.562142, -3.778499, 0.595320, 1.398948, -0.148673, 65.112930, -112.028931, 35.943085, 13.727770, 100.772320
1759316055.696551, -1.467197, 8.460809, 1.287931, 0.408136, 1.166894, -0.339800, 66.255783, -112.335648, 35.642960, 13.727770, 100.772320
1759316055.717156, -2.488922, 6.780229, 3.083432, 0.366254, 0.644473, -0.469591, 66.481522, -112.425461, 36.981064, 13.727770, 100.772320
1759316055.737126, -2.133533, 4.617218, 0.403573, 0.746718, 1.036037, -0.431468, 67.028061, -112.536240, 35.985733, 13.727770, 100.772320
1759316055.757149, -1.482011, 4.902278, -2.066046, 0.967660, 2.108851, -0.419262, 68.881454, -113.254898, 36.529984, 13.727770, 100.772320
1759316055.777158, -1.327884, 8.314613, -2.091634, 0.288168, 2.190167, -0.363630, 70.345657, -113.182648, 37.913315, 13.727770, 100.772320
1759316055.796395, -0.365864, 9.082254, -1.207127, 0.184686, 1.683997, -0.528119, 71.918671, -113.164551, 38.580536, 13.727770, 100.772320
1759316055.817177, 0.253935, 8.682572, 0.817171, 0.152384, 1.092925, -0.549350, 72.506073, -112.824738, 39.752747, 13.727770, 100.772320
1759316055.837124, 1.615039, 8.890718, -0.866701, 0.239759, 1.034317, -0.470513, 73.152390, -112.754242, 39.994949, 13.727770, 100.772320
1759316055.857126, 1.926734, 8.519467, -3.430592, 0.270139, 1.721681, -0.497270, 74.298401, -112.365280, 40.335358, 13.727770, 100.772320
1759316055.877138, 1.840543, 8.239645, -4.893449, 0.312897, 1.849940, -0.736363, 75.447510, -112.291931, 42.599579, 13.727770, 100.772320
1759316055.896240, 1.654244, 9.606136, -1.362450, -0.179556, 1.055251, -0.666341, 76.077209, -111.635544, 42.842041, 13.727770, 100.772320
1759316055.917124, 1.986439, 9.773430, -3.295619, 0.802315, 0.877388, -0.649905, 76.500168, -111.635559, 43.204468, 13.727770, 100.772320
1759316055.936841, 1.628955, 9.687389, -3.194912, 1.047397, 0.925675, -0.685313, 76.881287, -111.776886, 44.308823, 13.727770, 100.772320
1759316055.957144, -2.610428, 11.828553, -1.157447, 2.457864, 1.186137, -0.508529, 77.501709, -112.832306, 43.339691, 13.727770, 100.772320
1759316055.977188, -3.910479, 13.773992, -2.396147, 2.954056, 1.919981, -0.487397, 78.860184, -114.332321, 44.084534, 13.727770, 100.772320
1759316055.997138, -4.129848, 13.068151, -1.965340, 2.709339, 2.194449, -0.416473, 80.157974, -116.111893, 43.947372, 13.727770, 100.772320
1759316056.017136, -4.421043, 19.840450, -2.307412, 2.240729, 2.186314, 0.217848, 81.901535, -118.363937, 44.675064, 13.727770, 100.772320
1759316056.037104, -5.254973, 28.071715, -6.466290, 2.085693, 2.148604, 1.086839, 83.853714, -120.516876, 46.916367, 13.727770, 100.772320
1759316056.057132, -3.573645, 17.821689, -3.483115, 1.572928, 0.846178, 0.974157, 84.307617, -122.009399, 47.802307, 13.727770, 100.772320
1759316056.077144, -1.643769, 9.864260, 0.675315, 1.044240, -0.942331, 0.748592, 83.727570, -123.471283, 48.060165, 13.727770, 100.772320
1759316056.097144, -1.424700, 7.209091, -1.644218, 1.714101, -1.565756, 0.544352, 82.727280, -125.061264, 45.863297, 13.727770, 100.772320
1759316056.117129, -2.350059, 6.744915, -1.981052, 2.433784, -1.581696, 0.465024, 81.667953, -127.129669, 44.808060, 13.727770, 100.772320
1759316056.137121, -2.635118, 5.758654, -1.767968, 2.555295, -1.056817, 0.696177, 80.776840, -129.382538, 44.557770, 13.727770, 100.772320
1759316056.157149, -1.832013, 6.088754, 0.289848, 2.325141, -1.314886, 0.964372, 80.295013, -130.377213, 42.868301, 13.727770, 100.772320
1759316056.177150, -0.928052, 6.864625, -0.526874, 2.348887, -1.988150, 1.226608, 79.269821, -133.028641, 42.850693, 13.727770, 100.772320
1759316056.197138, -1.089811, 6.593033, -1.980005, 2.144813, -2.865206, 1.312007, 77.535751, -135.622467, 40.588486, 13.727770, 100.772320
1759316056.217137, -2.517353, 5.611859, -5.433790, 1.581743, -2.567411, 1.043776, 75.493347, -138.126450, 39.706009, 13.727770, 100.772320
1759316056.237114, -4.588637, 4.408473, -7.060201, 0.625475, -0.965394, 0.271404, 73.812820, -139.833435, 37.884674, 13.727770, 100.772320
1759316056.257144, -5.234623, 4.121319, -4.764012, -0.060828, -0.207727, 0.036425, 73.236481, -140.122253, 37.392105, 13.727770, 100.772320
1759316056.277138, -5.048324, 3.684078, -2.866907, -0.459668, -0.263018, 0.051133, 72.885239, -139.970612, 37.443481, 13.727770, 100.772320
1759316056.296387, -2.807650, 3.094506, -2.873641, -0.887437, 0.174585, -0.151610, 72.723541, -139.573517, 37.194672, 13.727770, 100.772320
1759316056.317134, -0.867898, 2.402432, -3.147926, -1.603418, 0.696414, -0.295360, 73.109924, -138.521255, 37.908081, 13.727770, 100.772320
1759316056.337044, -0.225354, 1.929876, -3.326145, -2.372643, 1.061615, -0.424410, 73.695770, -136.772537, 37.767120, 13.727770, 100.772320
1759316056.357137, 0.360776, 1.752256, -3.162441, -2.833251, 1.303933, -0.552813, 74.866226, -134.447647, 38.359406, 13.727770, 100.772320
1759316056.376412, 0.773028, 1.828422, -2.330755, -3.089906, 1.225399, -0.600976, 75.823975, -131.756927, 39.896042, 13.727770, 100.772320
1759316056.397148, 0.541389, 2.648735, -1.527950, -3.293949, 0.835741, -0.511145, 76.670807, -129.079605, 39.753067, 13.727770, 100.772320
1759316056.417131, 0.257975, 4.606294, -1.066467, -3.510820, 0.310878, -0.197566, 77.405380, -126.450424, 40.506470, 13.727770, 100.772320
1759316056.437113, -0.051924, 7.083395, -1.206079, -3.411056, -0.135475, 0.500046, 77.490936, -123.939758, 41.617279, 13.727770, 100.772320
1759316056.457132, -0.470760, 10.339809, -1.471985, -2.548291, -0.862944, 1.295547, 77.515900, -122.550735, 41.158157, 13.727770, 100.772320
1759316056.476414, -1.102829, 12.620436, -3.851073, -0.996774, -0.874765, 1.370846, 77.268356, -122.628647, 41.106339, 13.727770, 100.772320
1759316056.497139, -1.077540, 12.514492, -7.700650, -0.050725, 0.086276, 0.595030, 77.547699, -123.326447, 40.681152, 13.727770, 100.772320
1759316056.516584, -1.185728, 8.910171, -9.002348, -0.158071, -0.194325, 0.132253, 77.502274, -123.412048, 40.298859, 13.727770, 100.772320
1759316056.536573, -1.805827, 9.016414, -4.005200, -0.069069, -0.178521, 0.489396, 77.376587, -123.562317, 40.581680, 13.727770, 100.772320
