SamplingTime, AccelerationX, AccelerationY, AccelerationZ, GyroX, GyroY, GyroZ, MagneticFieldX, MagneticFieldY, MagneticFieldZ, Latitude, Longitude
1759229666.939013, 0.953491, -3.165135, -8.704569, 0.663939, -0.853730, 0.125443, 97.579346, 104.026428, -571.645813, , 
1759229666.958905, 1.145925, -3.465906, -8.728810, 0.958201, -0.938855, 0.181947, 97.417969, 103.933304, -570.850220, , 
1759229666.978998, 1.332972, -2.956240, -8.454225, 1.131705, -1.228840, -0.006216, 97.365158, 104.217926, -570.127930, , 
1759229666.999033, 1.072902, -3.457526, -6.847566, 0.875137, -2.015152, -0.284233, 98.090805, 103.924850, -569.063721, , 
1759229667.019014, 0.445471, -3.268983, -7.936030, 0.683235, -2.290520, -0.569380, 98.944168, 104.455399, -569.047852, , 
1759229667.039027, -0.545728, -3.888483, -8.327931, 0.592908, -2.610847, -0.893232, 99.586029, 104.312866, -568.458679, , 
1759229667.058943, -1.030853, -3.946692, -8.789114, 0.107583, -3.149060, -0.830538, 101.096466, 104.589127, -568.765930, , 
1759229667.079008, -2.168399, -3.596989, -10.549750, -0.027490, -2.117811, -0.767201, 101.734436, 104.736298, -568.139893, , 
1759229667.098998, -2.729839, -3.566463, -10.035596, -0.041970, -1.089796, -0.573308, 102.267776, 104.768097, -568.926453, , 
1759229667.118998, -3.028964, -3.731064, -9.113379, 0.063875, -0.787103, -0.405766, 102.508682, 104.802170, -569.277405, , 
1759229667.139009, -3.072359, -3.864092, -8.821885, 0.182406, -0.523637, -0.367651, 102.595688, 104.790894, -569.167114, , 
1759229667.158938, -2.439991, -3.956867, -8.275408, 0.135832, -0.539765, -0.388957, 103.017685, 104.900040, -568.906372, , 
1759229667.178301, -2.201169, -4.024653, -8.173505, 0.053388, -0.838745, -0.361123, 103.232544, 104.900726, -569.274963, , 
1759229667.198160, -1.820192, -3.818602, -7.892486, -0.049158, -1.325835, -0.433508, 103.577576, 104.891785, -569.611206, , 
1759229667.218568, -2.136825, -3.372832, -8.090905, -0.402249, -1.409157, -0.284728, 104.132965, 105.123093, -569.850525, , 
1759229667.238992, -2.524237, -3.517232, -8.961946, -0.462651, -1.158488, -0.087786, 104.449066, 105.046753, -569.919006, , 
1759229667.259073, -3.190573, -4.623353, -9.044097, 0.413863, 0.886077, -0.077210, 104.420990, 105.089142, -569.519897, , 
1759229667.279010, -3.096900, -5.079448, -7.133524, 0.161771, 1.566320, -0.180168, 104.065277, 105.120026, -569.587402, , 
1759229667.298809, -1.577629, -4.942380, -4.712537, -0.294459, 1.341520, -0.663118, 104.947632, 105.323700, -569.066345, , 
1759229667.319009, -2.206706, -2.305467, -7.327005, -1.283530, 1.205131, -0.293921, 105.222046, 105.237976, -570.151306, , 
1759229667.338989, -0.682048, -3.107823, -8.402750, -1.648996, 1.096294, 0.207770, 104.698944, 105.163284, -571.599487, , 
1759229667.359006, 0.655413, -2.713379, -9.310152, -2.088714, 1.422747, 0.706148, 103.653198, 104.639343, -572.464233, , 
1759229667.379011, -0.883760, -3.248932, -11.962778, -1.489187, 2.514790, 0.245495, 103.745285, 104.671799, -573.144287, , 
1759229667.399003, 0.431704, -3.265093, -11.919084, -0.479169, 2.681127, -0.044886, 103.774933, 104.681305, -572.561401, , 
1759229667.419007, 2.008286, -2.589479, -10.172813, 0.011636, 1.752251, 0.268664, 103.623596, 104.886307, -572.655823, , 
1759229667.438993, 1.686416, -2.992602, -9.047090, 0.160461, 1.176993, 0.700745, 102.896805, 104.804443, -572.197205, , 
1759229667.458988, 0.022146, -3.294571, -9.265112, 0.157975, 1.670906, 0.613389, 102.450745, 104.762650, -572.052002, , 
1759229667.479015, -0.553509, -3.958064, -8.118439, 0.004455, 2.410685, 0.215365, 102.306488, 104.520462, -571.333008, , 
1759229667.498994, 0.795025, -3.955969, -8.004415, -0.186691, 2.521441, 0.086744, 102.235901, 104.570175, -571.307129, , 
1759229667.519003, 1.074548, -2.501641, -5.977573, -0.020340, 2.194329, -0.411476, 102.537491, 104.681107, -570.826660, , 
1759229667.538989, 3.795857, -2.192789, -6.392070, -0.308345, 2.519732, -0.522789, 102.451508, 104.664490, -571.013855, , 
1759229667.558998, 4.522497, -1.322048, -6.158635, -1.492075, 2.743658, -0.276935, 102.460541, 104.836288, -571.513306, , 
1759229667.579007, 4.157830, 0.296282, -9.650578, -2.046461, 2.522874, 0.265314, 102.442001, 104.609177, -572.826538, , 
1759229667.598986, 3.470096, 0.338630, -12.249035, -1.933130, 1.444789, 0.773434, 101.653992, 104.422531, -573.304504, , 
1759229667.619008, 2.926313, -1.318307, -13.183671, -1.227747, 0.777145, 0.853352, 101.109222, 104.520889, -574.418518, , 
1759229667.638318, 3.301754, -1.764377, -11.503092, -0.574923, 0.670281, 0.831329, 100.429230, 104.329620, -574.286926, , 
1759229667.658992, 3.754108, -1.441309, -9.816376, -0.452184, 0.365917, 0.940873, 99.660599, 104.395966, -574.799866, , 
1759229667.679009, 4.189554, -0.395343, -9.319430, -0.315222, -0.042503, 1.091322, 99.032593, 104.239243, -574.973755, , 
1759229667.698988, 4.618565, -0.070330, -8.116793, -0.271526, -0.488534, 1.084243, 98.180710, 104.078308, -575.056580, , 
1759229667.719012, 4.626346, 0.349254, -7.520487, -0.317062, -0.361746, 1.100633, 97.350494, 104.079117, -575.524536, , 
1759229667.739003, 4.094683, 0.736965, -7.665336, -0.381354, -0.138814, 1.315596, 96.572296, 104.137146, -575.267212, , 
1759229667.758990, 1.949179, 0.156371, -6.262932, -0.491470, -0.670740, 1.313617, 95.739029, 104.108963, -575.757263, , 
1759229667.779006, 0.946607, -1.179294, -8.026411, -0.977395, -0.977878, 1.121825, 94.672638, 104.163361, -576.223999, , 
1759229667.798987, 0.523881, 0.096666, -9.987712, -0.923567, -0.446621, 0.631856, 94.515564, 104.178345, -576.103699, , 
1759229667.819016, 0.412401, 1.541417, -9.503035, -0.386856, -1.117291, 0.230523, 94.154266, 104.239517, -576.631470, , 
1759229667.839007, 1.943643, 3.601777, -6.386383, 0.171803, -3.317275, 0.238023, 93.680847, 104.282455, -575.834106, , 
1759229667.858992, 2.345121, 4.826262, -3.510648, -0.109949, -5.788121, 0.574399, 93.280273, 104.479477, -575.624146, , 
1759229667.879003, 3.041833, 3.997569, -3.663129, -0.928298, -6.173588, 1.084397, 92.351608, 104.404953, -575.607910, , 
1759229667.898986, 1.320402, 3.984700, -4.891803, -2.106903, -5.647570, 1.620516, 90.561081, 104.771103, -576.525513, , 
1759229667.919008, -0.813580, 6.410774, -7.876475, -2.874332, -5.288496, 1.544365, 89.185669, 105.095749, -577.967102, , 
1759229667.938075, -1.796699, 9.176825, -10.794408, -2.466854, -4.849687, 1.460424, 88.668762, 105.432800, -578.272095, , 
1759229667.958986, -3.238008, 8.012046, -11.232996, -1.490853, -4.179825, 1.466913, 86.851761, 105.755722, -578.639465, , 
1759229667.979005, -3.582624, 6.140379, -9.504981, -0.721414, -3.480446, 1.637817, 85.600433, 106.046875, -578.322144, , 
1759229667.998992, -3.676297, 6.503699, -7.314735, -0.086757, -2.995935, 2.186838, 84.152893, 106.347748, -577.327209, , 
1759229668.018999, -4.517559, 6.717681, -3.834763, 0.334190, -3.494253, 2.898010, 82.170273, 107.138840, -576.474365, , 
1759229668.038046, -5.053112, 6.858939, -2.655319, 0.380144, -3.831113, 3.328161, 79.615311, 108.013931, -574.614624, , 
1759229668.058981, -7.646332, 7.581838, -1.280000, 0.065208, -3.801849, 4.229393, 76.968948, 109.532974, -573.078186, , 
1759229668.078994, -10.514735, 7.116016, -0.110283, -0.348497, -3.217080, 4.520842, 74.535004, 111.555496, -571.862854, , 
1759229668.098989, -14.478186, 6.445490, 0.654665, -1.114189, -2.944766, 4.321838, 71.997482, 113.531357, -570.343872, , 
1759229668.118990, -14.727183, 7.211635, -1.090708, -1.398850, -2.757726, 3.858530, 70.125916, 115.709259, -570.121033, , 
1759229668.138040, -14.923957, 6.541258, -1.266982, -1.454006, -2.251245, 3.647127, 68.917267, 117.616043, -569.317505, , 
1759229668.158989, -15.766716, 7.384616, -3.555389, -1.508970, -1.292534, 3.478599, 67.268539, 119.533127, -569.198608, , 
1759229668.179006, -19.138650, 6.310218, -5.416881, -1.643603, -0.190334, 2.556505, 66.519043, 120.779312, -569.916687, , 
1759229668.198983, -18.684200, 5.605425, -6.905177, -1.462211, -0.134075, 1.336144, 65.901810, 121.546463, -569.327393, , 
1759229668.219009, -15.402797, 4.475511, -7.814525, -1.215836, -0.596684, 0.676426, 66.037170, 122.083542, -570.080383, , 
1759229668.239010, -12.568661, 4.945822, -7.304410, -0.918660, -1.105776, 0.777486, 65.620605, 122.525513, -569.351562, , 
1759229668.258983, -13.182175, 4.234146, -6.099977, -0.697640, -2.157653, 0.981651, 65.124268, 123.198059, -568.084473, , 
1759229668.279006, -13.782970, 4.393210, -5.014655, -0.519447, -2.873228, 0.766178, 65.342026, 123.574310, -566.753601, , 
1759229668.298982, -13.121273, 3.969287, -3.889680, -0.536739, -3.082227, 0.242673, 65.440231, 123.567520, -564.956299, , 
1759229668.318346, -10.679935, 2.911050, -4.266168, -0.645589, -2.343927, -0.310812, 65.823486, 123.214844, -564.303955, , 
1759229668.338997, -8.021024, 1.310376, -4.625298, -0.416497, -1.217750, -0.711940, 66.212585, 122.890823, -564.178894, , 
1759229668.358984, -6.265775, -0.176872, -4.960935, -0.197854, -0.207025, -1.147118, 66.687439, 121.755386, -563.995911, , 
1759229668.379010, -2.997391, 2.502090, -6.528539, 0.142240, 0.240898, -1.174042, 66.895279, 121.400726, -563.895142, , 
1759229668.398988, -3.311929, 3.637092, -5.643582, 0.756217, 0.343845, -0.703863, 67.142502, 121.103867, -562.860291, , 
1759229668.419010, -3.043180, 5.222053, -3.820398, 1.125071, -0.712054, -0.185968, 67.234039, 121.366882, -562.885742, , 
1759229668.439010, -4.901080, 5.583877, -2.816778, 1.044495, -0.739559, 0.218186, 67.496201, 121.662338, -562.214355, , 
1759229668.458990, -6.725163, 7.330896, -1.593192, 0.750409, -0.912412, 0.165803, 67.776367, 121.807358, -560.949707, , 
1759229668.479006, -6.793697, 8.968829, -1.034594, 0.461064, -0.101908, 0.443205, 67.650009, 122.246674, -561.092041, , 
1759229668.499006, -9.179519, 9.358485, -0.879420, 0.132519, -0.347080, 0.641096, 67.114365, 122.595245, -560.753723, , 
1759229668.518998, -8.701277, 10.264092, -3.249680, -0.412263, 1.172044, 0.061085, 66.730255, 122.586639, -562.608521, , 
1759229668.538998, -9.846154, 10.362554, -4.263924, -1.752917, 5.401827, -0.795175, 67.528198, 121.662857, -565.687073, , 
1759229668.558979, -11.697471, 12.580482, -2.311452, -2.426770, 2.917571, -0.360584, 66.688644, 121.120438, -567.690918, , 
1759229668.579005, -13.225720, 13.412467, -5.860706, -1.707182, -2.683511, 0.370613, 66.738007, 121.536072, -566.314209, , 
1759229668.598980, -15.620669, 13.048698, 0.338630, -0.429117, -6.759020, 1.487390, 67.192535, 122.070099, -562.006958, , 
1759229668.619000, -12.018743, 13.942783, 1.474379, -0.943104, -5.445579, 0.500843, 67.884933, 122.123703, -560.275085, , 
1759229668.638949, -10.858602, 13.686903, 5.493795, -2.127771, -1.839717, -0.318093, 68.474335, 121.073380, -560.474487, , 
1759229668.658525, -11.331906, 13.912407, 6.452972, -4.123383, -0.701467, -1.438692, 69.100540, 119.203384, -560.979492, , 
1759229668.679032, -7.531111, 13.830704, 3.034351, -5.177500, -0.418507, -2.271343, 70.129822, 116.909485, -563.045654, , 
1759229668.698997, -3.553145, 11.202619, 0.096516, -4.791990, -0.686825, -2.367698, 71.190155, 114.721115, -564.001099, , 
1759229668.718995, -1.864036, 8.551939, -1.640926, -4.040029, -0.501618, -2.049719, 72.207504, 113.270081, -566.448181, , 
1759229668.738995, -0.943315, 6.394464, -1.927632, -3.413331, -0.550057, -1.624710, 73.077469, 112.143631, -567.765442, , 
1759229668.758973, 0.835427, 3.930082, -3.280954, -3.463479, -0.627174, -0.671727, 73.538055, 111.539001, -569.340149, , 
1759229668.778348, 1.007360, 1.887080, -8.023119, -2.744577, -0.335225, -0.125635, 73.180023, 111.326630, -571.431885, , 
1759229668.798996, 3.089268, -1.575235, -9.987263, -0.782196, 0.982057, 0.180192, 73.131485, 111.299820, -571.445557, , 
1759229668.818229, 6.321740, -1.349582, -3.595043, -0.163562, 1.865432, 1.508247, 72.577881, 112.121689, -572.977600, , 
1759229668.838998, -0.117017, -1.310676, -2.099116, -0.111294, 1.446403, 2.710038, 70.770523, 113.473633, -573.295715, , 
1759229668.858972, -5.772570, 1.888576, -2.874389, 0.790757, 1.243494, 2.611161, 70.131866, 114.833923, -572.918335, , 
1759229668.878999, 4.691139, 1.651401, 8.423550, 0.771471, 0.445378, 4.984982, 67.002075, 117.441971, -573.704468, , 
1759229668.898450, -16.215629, 5.377676, 1.561917, 0.007147, 1.310961, 3.073098, 66.477051, 119.042007, -573.009338, , 
1759229668.918896, 0.806547, 9.169792, 7.043292, 0.764387, 3.582486, 3.867084, 65.063705, 121.637726, -575.834534, , 
1759229668.938999, -7.365612, 6.639420, 4.294001, -0.631949, 2.599440, 3.888672, 64.034225, 123.934235, -577.899902, , 
1759229668.958793, -13.593529, 10.921301, 0.761655, -0.880047, 3.804043, 2.587780, 64.149002, 125.815796, -579.739136, , 
1759229668.978999, -15.160833, 9.397242, 1.274912, -0.843152, 3.993571, 1.191576, 64.674652, 126.768341, -582.908936, , 
1759229668.998995, -15.736639, 8.800038, -2.471714, -0.735441, 1.921330, 0.009746, 65.171448, 126.815186, -583.233276, , 
1759229669.019002, -16.474651, 8.643667, -6.503998, 0.119316, 1.565888, -1.026065, 65.935837, 126.480103, -584.867126, , 
1759229669.038992, -13.106758, 9.453206, -2.501193, 0.217357, 1.501788, -1.753865, 66.684830, 125.223694, -586.021423, , 
1759229669.058566, -3.361309, 10.893767, 1.442806, -0.223731, 0.415699, -0.964832, 66.606476, 124.504990, -585.899780, , 
1759229669.078697, -4.333505, 7.948600, 2.143708, -0.262424, 0.068439, -0.490498, 66.751129, 124.318680, -587.085815, , 
1759229669.098993, -4.283227, 6.533776, 3.898508, -0.375317, 1.085478, -0.742239, 67.313324, 123.816086, -586.857910, , 
1759229669.118997, -5.391443, 7.909993, 1.837699, -0.492221, 1.358832, -0.869846, 67.956787, 123.682449, -588.693359, , 
1759229669.138100, -5.913678, 7.981520, 1.443704, -0.548010, 0.383555, -0.900054, 68.291519, 123.549423, -589.024780, , 
1759229669.158006, -5.337274, 7.568221, 0.639401, -0.478805, -0.373522, -0.895073, 68.886292, 122.969193, -588.328613, , 
1759229669.178993, -6.738032, 7.202806, 0.383222, 0.257265, -0.928497, -0.628084, 68.859268, 122.465668, -588.310852, , 
1759229669.198990, -8.715942, 7.122900, 0.162806, 0.396897, -1.259628, -0.560628, 68.914551, 121.856369, -586.550110, , 
1759229669.218995, -12.188132, 4.820575, -5.136311, 1.807047, -2.860348, -0.986125, 68.343567, 121.304977, -585.238159, , 
1759229669.238185, -12.046126, 5.745785, 1.606809, 1.912761, -3.625842, -1.324330, 68.314896, 119.947632, -582.705933, , 
1759229669.258021, -9.084798, 8.034193, 5.893926, 1.499249, -2.370869, -1.237210, 68.237656, 118.977417, -579.858337, , 
1759229669.278995, -9.971850, 6.500706, 8.081777, -0.034300, -0.344316, -1.146385, 68.574539, 118.473175, -580.111328, , 
1759229669.298993, -7.944260, 6.429778, 2.575114, -0.310201, 0.134778, -1.184836, 68.889908, 117.690323, -580.017822, , 
1759229669.318993, -3.127127, 4.705504, -1.966388, 0.401768, 0.078462, -0.910961, 69.276123, 117.296600, -580.990479, , 
1759229669.338987, -2.144307, 4.937143, -1.820491, 0.719842, 0.596761, -0.547394, 69.251129, 116.884552, -580.872986, , 
1759229669.358820, -4.803367, 5.515941, -0.943465, 0.633240, 1.324469, -0.746996, 69.989746, 116.694397, -580.959595, , 
1759229669.378998, -7.149834, 4.960636, -0.095918, 0.426658, 1.549887, -0.810292, 71.004120, 116.208878, -581.306274, , 
1759229669.398968, -7.850138, 4.186112, -1.340903, 0.357408, 1.472326, -0.679697, 71.908203, 115.600601, -581.320251, , 
1759229669.418988, -10.072406, 3.309685, -0.279523, 0.380133, 1.104895, -0.426676, 72.285492, 115.501694, -582.561584, , 
1759229669.438990, -11.048941, 2.883666, 1.191265, 0.342932, 0.904831, -0.496642, 72.561508, 115.082275, -582.314697, , 
1759229669.458061, -9.879224, 4.670190, 2.045396, 0.334149, 0.911187, -0.752951, 72.829132, 114.714462, -582.825256, , 
1759229669.478995, -9.840468, 5.576395, 1.071256, 0.307447, 1.149676, -0.978013, 73.930176, 114.321609, -584.122803, , 
1759229669.498989, -8.749311, 3.824588, -0.104746, -0.055669, 1.471035, -1.059602, 74.756516, 113.713470, -583.549072, , 
1759229669.518992, -6.796390, 5.156213, -0.359430, -0.099307, 0.801112, -0.751629, 75.136261, 113.449860, -585.196655, , 
1759229669.538987, -5.374534, 6.381296, -0.965312, -0.545064, 1.497846, -0.566213, 75.770645, 113.396729, -585.525391, , 
1759229669.558071, -1.750461, 8.278401, -0.267552, -0.874870, 1.352727, 0.224168, 76.288864, 113.839142, -586.632202, , 
1759229669.578999, -2.439243, 8.008006, -1.307084, -0.663345, 0.956162, 1.584090, 75.980545, 114.462311, -587.447144, , 
1759229669.598988, -0.464924, 7.995586, -1.359308, -0.442340, 1.461784, 3.302714, 74.810699, 115.872589, -587.903870, , 
1759229669.618425, -4.708946, 9.455899, -1.813159, -0.181784, 1.627916, 3.870164, 73.476639, 117.393463, -589.652893, , 
1759229669.638351, -6.993912, 11.527034, 3.759794, -0.994798, -0.037997, 3.863250, 72.096069, 119.622055, -589.271118, , 
1759229669.658112, -13.146412, 13.336601, -2.295740, -1.627953, 0.251004, 3.037071, 71.126480, 121.914124, -590.668640, , 
1759229669.678992, -17.409138, 11.300931, -4.613776, -0.291822, 0.345359, 0.936979, 70.994202, 122.958527, -590.767273, , 
1759229669.698989, -11.361983, 5.685181, -1.254412, 0.431301, 0.028582, -0.129416, 70.645218, 122.669907, -590.716675, , 
1759229669.718752, -5.906495, 4.849455, -0.534356, 0.171805, -0.580752, 0.035454, 70.552277, 122.587204, -590.006653, , 
1759229669.739005, -5.645378, 9.552416, -2.024298, -0.403315, 0.226293, 0.644773, 70.646942, 123.035721, -590.179565, , 
1759229669.758134, -6.034885, 7.284209, -0.359430, -0.898008, -0.245419, 0.978591, 69.925751, 123.888428, -590.907349, , 
1759229669.778976, -5.282058, 6.272060, -0.814926, -0.740723, -0.582762, 0.750834, 69.413895, 124.548996, -591.115723, , 
1759229669.798820, -5.452645, 7.012617, -1.318307, -0.045550, -0.496068, 0.438803, 69.037140, 124.886368, -590.008606, , 
1759229669.818986, -5.459079, 8.929025, -0.661997, 0.255397, -0.007209, 0.389070, 68.892700, 125.173340, -590.571289, , 
1759229669.838983, -5.283105, 9.067291, -0.707487, 0.096593, -0.001285, 0.143161, 68.533417, 125.029373, -590.511719, , 
1759229669.858146, -4.527585, 8.387936, -0.995988, -0.150060, 0.086683, -0.180955, 68.874313, 125.148300, -590.881653, , 
1759229669.878972, -5.108179, 8.255058, -0.678906, -0.093070, 0.160601, -0.179161, 68.931717, 125.016266, -590.689087, , 
1759229669.898968, -5.695058, 5.825093, -0.211887, -0.040990, 0.067271, -0.195142, 69.112396, 124.903030, -590.593689, , 
1759229669.918985, -4.897938, 3.816657, 1.086818, -0.033483, -1.205250, -0.291102, 69.031677, 124.946243, -590.162903, , 
1759229669.938988, -5.613355, 8.128315, -0.307805, -0.102181, -1.677931, -0.326202, 68.569962, 124.609924, -589.443665, , 
1759229669.958967, -6.279392, 5.058948, -1.885883, 0.624613, -1.386568, -0.410218, 68.748520, 124.251556, -588.564087, , 
1759229669.978985, -6.930915, 9.017312, -0.213234, 0.671136, -0.000729, 0.463897, 68.441833, 124.126419, -587.570557, , 
1759229669.998985, -7.759009, 10.194361, 0.199317, -0.444004, -0.810002, 0.516723, 67.667068, 124.529526, -587.186035, , 
1759229670.018973, -6.336704, 12.101343, -2.991405, -1.832543, -0.591028, -0.332786, 67.162186, 124.945847, -587.850281, , 
1759229670.038973, -3.441665, 8.464700, -1.419911, -2.473974, 1.031938, -0.311634, 67.599899, 125.404190, -588.309875, , 
1759229670.058960, -6.914903, 6.730550, 1.834557, -1.251124, 0.926926, 0.197666, 68.377640, 125.900909, -589.750000, , 
1759229670.078965, -9.011625, 7.687183, 1.947085, -0.367066, 0.449058, 0.374443, 68.320129, 126.306763, -590.176514, , 
1759229670.098964, -6.757485, 10.090064, -0.357035, 0.042187, 0.142645, 0.358398, 68.295074, 126.497650, -589.639587, , 
1759229670.118962, -5.938817, 9.248502, -0.357484, 0.058774, 0.400101, 0.797426, 68.403488, 126.906311, -590.649292, , 
1759229670.138986, -6.257845, 7.945308, 0.324564, 0.223130, 0.689697, 1.153420, 68.379562, 127.532745, -590.485291, , 
1759229670.158194, -5.029320, 7.149685, 0.215329, 0.371586, 0.861250, 1.486001, 68.069473, 128.250229, -592.036255, , 
1759229670.178983, -4.265420, 8.084022, 0.016460, 0.388632, 1.340048, 1.621128, 68.057907, 129.029999, -592.528137, , 
1759229670.198991, -4.015076, 7.470508, 0.766145, 0.350984, 0.475219, 1.331305, 67.936050, 129.359650, -592.127563, , 
1759229670.218982, -4.886266, 7.242759, 0.281468, -0.070054, -0.056142, 0.736660, 67.634277, 129.732697, -592.757629, , 
1759229670.238980, -5.422717, 7.734020, -0.529119, -0.073459, 0.072299, 0.154590, 68.116882, 129.862839, -592.222290, , 
1759229670.258204, -5.540781, 7.742848, -0.219668, 0.058966, 0.258729, -0.190613, 67.960968, 129.901001, -592.304810, , 
1759229670.278983, -4.932205, 8.123377, -0.263961, 0.196085, -0.023476, -0.357526, 68.182266, 129.667892, -592.357056, , 
1759229670.298981, -4.516213, 8.519168, -0.327557, 0.370679, -0.111462, -0.435126, 68.439835, 129.293350, -591.428223, , 
1759229670.318981, -5.129427, 9.386168, -0.315436, 0.252377, -0.107577, -0.212122, 68.197601, 129.113495, -591.817810, , 
1759229670.338982, -4.834192, 9.251494, -0.716016, 0.111445, -0.229310, -0.117698, 68.294128, 128.872070, -591.855469, , 
1759229670.358222, -4.514716, 8.275558, -0.656460, 0.100868, -0.037047, -0.115868, 68.269989, 128.635162, -591.425781, , 
1759229670.378978, -4.081964, 7.414843, -0.141408, 0.078353, 0.137894, -0.277393, 69.238571, 128.868317, -591.481689, , 
1759229670.398963, -5.315427, 5.360468, 1.403750, 0.142768, -0.129536, 0.667974, 68.411682, 129.059906, -591.076355, , 
1759229670.418992, -5.056704, 8.689456, -0.397737, -0.057354, -1.195536, 0.568888, 67.387222, 129.365891, -591.061951, , 
1759229670.438989, -4.593575, 8.063222, -1.642722, 0.524116, -0.648089, 0.491435, 67.216248, 129.472626, -590.258362, , 
1759229670.458963, -3.156306, 7.692420, 0.025887, 1.010176, -0.274086, 0.417157, 67.181229, 129.616074, -590.432129, , 
1759229670.478995, -3.046173, 8.680627, 0.073622, 0.901580, -0.598642, 0.760145, 66.864975, 129.905106, -589.948120, , 
1759229670.498989, -3.515586, 9.186402, -0.749385, 0.846093, -0.854493, 1.137576, 66.361984, 130.231125, -588.771057, , 
1759229670.518990, -3.268385, 9.561693, -0.944812, 0.729449, -1.286173, 1.504847, 65.870377, 130.923401, -588.072205, , 
1759229670.538984, -1.209820, 7.799112, -1.346439, 0.148112, -1.189329, 2.150130, 65.198807, 132.016647, -586.721741, , 
1759229670.558959, 0.813580, 5.125836, -1.721581, -0.417409, -0.462896, 2.982205, 64.419586, 134.272842, -588.025696, , 
1759229670.578992, 1.446846, 2.428918, -0.610671, -0.782324, -0.225170, 3.542366, 63.569107, 136.662567, -588.132751, , 
1759229670.598989, 1.868076, 4.219481, 0.777816, -0.441270, -0.614903, 3.651722, 63.222076, 138.987045, -587.478516, , 
1759229670.618990, 1.059285, 7.152229, 2.708890, -0.281556, -1.250011, 3.071515, 63.183670, 141.181290, -586.603882, , 
1759229670.638982, -0.327108, 8.225729, 1.452383, 0.516625, -1.614919, 3.014412, 63.617844, 143.147064, -584.271423, , 
1759229670.658955, -1.531840, 4.910208, 1.564611, 0.495311, -1.453195, 3.282270, 63.560089, 145.305237, -585.092896, , 
1759229670.678950, -10.073155, 34.164510, -3.635296, 0.443963, 0.002947, 2.583515, 63.562698, 146.660889, -583.384888, , 
1759229670.698984, -5.913229, 32.640600, 1.713051, -0.266820, 0.897054, -0.257914, 64.208176, 146.747696, -584.854492, , 
1759229670.718992, 0.116717, 8.680477, -2.591574, -0.222412, -0.287445, -0.338030, 64.114670, 146.720581, -585.635986, , 
1759229670.738979, -0.199018, 5.133318, -1.475427, -0.197201, -0.436949, 0.044647, 63.915726, 146.691864, -584.877808, , 
1759229670.758950, -0.827795, 8.032995, -1.131260, 0.050486, 0.539417, -0.128583, 64.129745, 146.619644, -585.478333, , 
1759229670.778974, -0.169240, 10.510845, 0.613065, 0.259965, 0.231809, -0.184069, 64.263794, 146.367722, -585.372009, , 
1759229670.798980, 0.373047, 9.699509, -0.043245, 0.082605, 0.187338, -0.065267, 64.028046, 146.164825, -585.487427, , 
1759229670.818993, 0.695516, 9.804555, -0.243909, -0.007993, 0.153624, -0.015432, 63.845093, 146.281113, -586.088318, , 
1759229670.838989, 0.764798, 10.235661, -0.793528, -0.005512, 0.143283, -0.044003, 64.164658, 146.263138, -585.441040, , 
1759229670.858960, 0.780959, 9.946561, -0.575506, 0.003127, 0.254035, -0.060188, 64.259369, 146.437515, -586.413818, , 
1759229670.878343, 0.653318, 9.823409, -0.564583, -0.058597, 0.152136, -0.070209, 64.197693, 146.268784, -586.378906, , 
1759229670.898960, 0.825401, 9.356091, -0.725293, -0.047113, 0.126542, -0.060040, 64.110962, 146.085983, -586.332275, , 
1759229670.918979, 0.739808, 9.597606, -0.739509, -0.031872, -0.004721, -0.042002, 64.237030, 146.023285, -585.544617, , 
1759229670.938949, 0.517297, 9.870994, -0.719907, -0.004483, -0.040772, -0.053999, 64.234421, 145.996902, -585.544800, , 
1759229670.958953, 0.678457, 10.037840, -0.386963, 0.000369, -0.100359, -0.088349, 64.143005, 145.977325, -586.216919, , 
1759229670.978986, 0.986261, 10.115502, -0.159514, -0.016596, -0.255363, -0.115783, 64.156235, 145.881851, -586.752197, , 
1759229670.998988, 1.107767, 9.434352, 0.011223, -0.086076, -0.263423, -0.095384, 64.150131, 145.755402, -585.954834, , 
1759229671.018980, 0.729783, 10.011354, 0.789189, -0.048352, -0.289319, -0.014205, 63.790909, 145.907120, -585.848633, , 
1759229671.038985, 0.114173, 9.209446, -0.088735, -0.145882, -0.625448, -0.032168, 64.086960, 145.720230, -584.784119, , 
1759229671.058957, -0.196325, 9.683947, -0.952743, -0.155271, -0.382901, -0.019293, 63.992828, 145.919647, -585.234009, , 
1759229671.078983, -0.886154, 10.199449, -0.822259, -0.082588, -0.109217, 0.030572, 63.924316, 146.031906, -585.316650, , 
1759229671.098983, -1.247678, 9.937733, -0.388758, -0.045205, 0.119489, 0.026633, 63.793243, 145.975159, -584.577026, , 
1759229671.118982, -1.371279, 9.759365, -0.061651, -0.041325, 0.201113, 0.015414, 63.873917, 145.896683, -585.049194, , 
1759229671.139003, -1.155950, 9.913042, -0.190040, -0.065055, 0.137846, -0.037931, 64.025009, 145.905930, -584.710999, , 
1759229671.158341, -0.691026, 9.686192, -0.320374, -0.072777, 0.058506, -0.087906, 63.975632, 146.074097, -585.479614, , 
1759229671.178983, -0.438588, 9.618705, -0.565331, -0.055881, 0.062883, -0.135532, 63.778915, 145.989883, -585.616638, , 
1759229671.198969, -0.155174, 9.935937, -0.520290, -0.026895, 0.066540, -0.174968, 63.821259, 145.698029, -585.071167, , 
1759229671.218975, 0.305261, 10.119542, -0.505177, -0.017958, 0.105778, -0.181288, 63.921524, 145.686295, -585.887634, , 
1759229671.238305, 0.818667, 9.826402, -0.341473, 0.004024, 0.162379, -0.132812, 63.635208, 145.260895, -585.252502, , 
1759229671.258357, 0.633266, 9.537901, -0.011672, 0.000623, 0.232555, -0.053853, 63.788544, 145.490570, -586.100281, , 
1759229671.278976, 0.173580, 9.706842, 0.322020, -0.025968, 0.256375, 0.010355, 64.124725, 145.410568, -586.161987, , 
1759229671.298972, -0.064195, 9.676615, 0.402675, -0.065932, 0.265702, 0.036149, 64.099854, 145.253433, -585.876831, , 
1759229671.318953, -0.183456, 9.657312, 0.316633, -0.097876, 0.286909, 0.050636, 64.130615, 145.417938, -586.707520, , 
1759229671.339025, -0.355689, 9.760113, 0.140061, -0.117676, 0.286795, 0.047923, 64.106720, 145.345520, -586.059387, , 
1759229671.358372, -0.359579, 9.690082, -0.023643, -0.143582, 0.253290, 0.036206, 64.159760, 145.600998, -587.218750, , 
1759229671.378973, -0.305710, 9.747244, -0.285359, -0.152004, 0.281890, 0.020682, 64.307388, 145.718155, -587.313477, , 
1759229671.398953, -0.297180, 9.878925, -0.518345, -0.115624, 0.377430, 0.023676, 64.363831, 145.690704, -587.416443, , 
1759229671.418982, -0.198569, 9.745149, -0.284910, -0.063415, 0.464510, 0.025907, 64.293808, 145.713776, -587.985229, , 
1759229671.438959, -0.088585, 9.710283, 0.022146, -0.061687, 0.445415, 0.020975, 64.561050, 145.506348, -587.428223, , 
1759229671.458946, -0.015862, 9.873239, 0.119411, -0.079135, 0.406741, 0.007364, 64.607971, 145.665771, -588.451843, , 
1759229671.478969, 0.049680, 9.855133, 0.078560, -0.077602, 0.410697, 0.017374, 64.868164, 145.761902, -588.570435, , 
1759229671.498968, 0.002095, 9.729736, 0.158466, -0.074958, 0.371617, 0.026370, 64.888718, 145.681732, -588.293091, , 
1759229671.517986, -0.055366, 9.597606, 0.300472, -0.095275, 0.240095, 0.008324, 64.926987, 145.705139, -589.032349, , 
1759229671.539011, 0.019303, 9.824607, 0.160860, -0.099762, 0.176037, -0.023372, 65.055923, 145.582596, -588.298035, , 
1759229671.558398, 0.064494, 9.729736, 0.058508, -0.086355, 0.193973, -0.033965, 64.897400, 145.639725, -589.232666, , 
1759229671.578977, 0.034716, 9.652823, 0.179715, -0.074962, 0.197785, -0.040288, 65.125168, 145.616730, -589.717468, , 
1759229671.598798, 0.019453, 10.109816, 0.204555, -0.088992, 0.162094, -0.048054, 65.068924, 145.583755, -589.304504, , 
1759229671.617994, 0.169988, 9.992650, 0.291943, -0.089162, 0.149254, -0.035054, 65.237701, 145.436127, -589.644653, , 
1759229671.638968, 0.162806, 9.606136, 0.475848, -0.094525, 0.148311, 0.006806, 65.073517, 145.395493, -588.834961, , 
1759229671.658943, -0.110881, 9.624242, 0.527921, -0.113935, 0.164835, 0.041018, 65.002518, 145.577087, -590.090149, , 
1759229671.678973, -0.223259, 9.699210, 0.291344, -0.136696, 0.204485, 0.051330, 65.268509, 145.502075, -590.135498, , 
1759229671.698966, -0.385018, 9.716269, 0.049829, -0.123815, 0.252247, 0.053964, 65.441071, 145.627121, -589.593506, , 
1759229671.718011, -0.813430, 9.922918, 0.207248, -0.104970, 0.216279, 0.040577, 65.474426, 145.871689, -590.113281, , 
1759229671.738973, -0.942717, 9.838822, 0.445322, -0.113864, 0.158974, 0.005771, 65.278778, 145.542633, -589.200745, , 
1759229671.758431, -0.668282, 9.492710, 0.536900, -0.129657, 0.189905, -0.015038, 65.464371, 145.820450, -590.571289, , 
1759229671.778965, -0.392948, 9.527576, 0.603189, -0.139621, 0.201316, -0.016752, 65.659576, 145.735977, -590.619690, , 
1759229671.798966, -0.099359, 9.794230, 0.336236, -0.153432, 0.185830, -0.014693, 65.706100, 145.675217, -590.069763, , 
1759229671.818018, -0.012570, 9.862016, -0.072275, -0.147901, 0.210808, 0.003677, 65.813187, 145.779083, -590.867615, , 
1759229671.838964, -0.194379, 9.735123, 0.042048, -0.108790, 0.242556, 0.035793, 65.683975, 145.777649, -590.400452, , 
1759229671.858765, -0.394295, 9.724798, 0.197222, -0.093762, 0.245179, 0.032181, 65.834610, 145.998413, -591.255066, , 
1759229671.878958, -0.324564, 9.813234, 0.180912, -0.096162, 0.216463, 0.015862, 65.856537, 145.820633, -591.158203, , 
1759229671.898949, -0.288202, 9.750835, 0.208744, -0.085290, 0.169257, 0.023695, 65.967270, 145.721680, -590.615234, , 
1759229671.918048, -0.348805, 9.691130, 0.197522, -0.055230, 0.205257, 0.039054, 66.100739, 145.936050, -591.471069, , 
1759229671.938953, -0.501735, 9.669881, 0.267552, -0.023968, 0.307921, 0.039169, 66.152267, 145.839249, -591.913940, , 
1759229671.958274, -0.414945, 9.759365, 0.350302, -0.025126, 0.344875, 0.039181, 66.198929, 145.873245, -591.591675, , 
1759229671.978958, -0.368408, 10.043975, 0.613065, -0.025371, 0.431264, 0.046068, 66.326797, 145.891693, -591.907593, , 
1759229671.998779, -0.353294, 10.089166, 0.984017, -0.008715, 0.449932, 0.052478, 66.611572, 145.892838, -591.888733, , 
1759229672.018082, -0.341323, 10.024223, 1.234211, -0.003531, 0.424949, 0.049698, 66.827759, 146.067108, -592.570862, , 
1759229672.038946, -0.033369, 9.973047, 1.561618, -0.011991, 0.250629, 0.024580, 66.865585, 145.827530, -592.857971, , 
1759229672.058492, 0.047435, 9.854684, 1.373673, -0.017758, 0.160141, 0.012088, 66.984543, 145.991791, -592.555481, , 
1759229672.078984, 0.145897, 9.926210, 0.802806, -0.020604, -0.018914, -0.015825, 66.933212, 145.930542, -592.985352, , 
1759229672.098957, 0.028880, 10.210073, 0.531962, -0.025825, -0.151383, -0.046808, 66.882172, 145.760849, -592.183960, , 
1759229672.118102, 0.072724, 9.885659, 0.556353, -0.005426, -0.267975, -0.013313, 66.930679, 145.810150, -593.001404, , 
1759229672.138962, -0.077812, 9.631574, 0.867300, 0.032909, -0.317108, 0.031159, 66.833923, 145.682068, -591.710266, , 
1759229672.158497, -0.172383, 9.645490, 1.017536, -0.014526, -0.236498, 0.037178, 66.619202, 145.886566, -592.264954, , 
1759229672.178965, -0.194679, 9.647735, 0.761356, -0.092432, -0.128210, 0.038727, 66.691772, 146.021500, -592.606689, , 
1759229672.198960, -0.061651, 9.498546, 0.431854, -0.103543, -0.027289, 0.065891, 66.605347, 145.764542, -591.738342, , 
1759229672.218090, -0.305111, 9.710134, 0.376937, -0.104934, -0.025943, 0.126754, 66.747696, 146.243286, -592.591187, , 
1759229672.238966, -0.763002, 9.685593, 0.307056, -0.110384, -0.107094, 0.146070, 66.734787, 146.182861, -592.358398, , 
1759229672.258507, -0.813430, 9.745299, 0.224007, -0.122261, -0.215780, 0.123404, 66.699860, 146.310760, -592.155457, , 
1759229672.278961, -0.600496, 9.895984, -0.027683, -0.117859, -0.260814, 0.086340, 66.790375, 146.479355, -592.351074, , 
1759229672.298961, -0.226551, 9.955539, -0.162207, -0.094020, -0.223640, 0.106417, 66.816681, 146.503372, -591.553345, , 
1759229672.318100, -0.322020, 9.926210, 0.018854, -0.054617, -0.176426, 0.161166, 66.642288, 146.603500, -592.192322, , 
1759229672.338958, -0.504877, 9.813833, 0.235530, -0.041380, -0.101601, 0.191353, 66.562256, 146.905182, -592.253174, , 
1759229672.358258, -0.563386, 9.767295, 0.387711, -0.072886, -0.105911, 0.199073, 66.858917, 146.955597, -591.956543, , 
1759229672.378968, -0.668581, 9.644892, 0.450110, -0.119380, -0.132353, 0.223436, 66.967529, 147.137573, -592.227905, , 
1759229672.398945, -0.876278, 9.478345, 0.581941, -0.148128, -0.170799, 0.259546, 66.892944, 147.230911, -591.204773, , 
1759229672.418112, -1.146374, 9.582044, 0.684442, -0.144941, -0.210740, 0.311262, 66.980545, 147.515564, -591.901733, , 
1759229672.438967, -1.382053, 9.755474, 0.881665, -0.133989, -0.217960, 0.337094, 66.701706, 147.874161, -591.700623, , 
1759229672.458277, -1.494580, 9.855432, 0.751031, -0.141522, -0.172931, 0.354381, 67.108856, 148.085800, -591.270081, , 
1759229672.479013, -1.631499, 9.971700, 0.461482, -0.153723, -0.016520, 0.376377, 67.050171, 148.274368, -591.298096, , 
1759229672.498969, -1.720084, 9.983372, 0.189890, -0.094909, 0.056610, 0.351651, 67.321518, 148.212509, -591.466431, , 
1759229672.518137, -1.695394, 9.985317, -0.141258, 0.028437, 0.047315, 0.257406, 67.572098, 148.379242, -592.202515, , 
1759229672.538966, -1.834856, 10.487651, -0.015562, 0.201599, 0.098346, 0.153483, 67.501434, 148.457306, -592.612976, , 
1759229672.558294, -1.763778, 10.649708, 0.398036, 0.306242, 0.214653, 0.035379, 67.818237, 148.251999, -592.167908, , 
1759229672.578983, -1.610550, 10.636839, 0.363021, 0.346871, 0.468264, -0.070255, 68.153198, 148.206329, -592.782654, , 
1759229672.598965, -1.532588, 11.194838, -0.068085, 0.373289, 0.511164, -0.190842, 68.199249, 148.041260, -592.658936, , 
1759229672.618164, -1.135151, 11.175684, -1.140239, 0.515213, 0.291877, -0.287370, 68.459229, 147.557098, -593.294861, , 
1759229672.638959, -0.880917, 10.934469, -1.818097, 0.866454, -0.057202, -0.339557, 68.540741, 147.014755, -593.868408, , 
1759229672.658941, -1.246930, 10.710611, -1.401057, 1.189331, -0.435105, -0.541505, 68.177383, 146.300552, -592.969360, , 
1759229672.678965, -1.203236, 10.612598, -1.197101, 1.285443, -0.690115, -0.803199, 68.099884, 145.638138, -593.418091, , 
1759229672.698960, -1.633145, 10.275764, -1.555782, 1.369443, -1.070094, -1.076562, 67.705566, 144.277679, -591.909546, , 
1759229672.718182, -2.180070, 10.023475, -1.267580, 1.214191, -1.208225, -1.449162, 67.544327, 143.156204, -592.341125, , 
1759229672.738978, -0.417040, 11.204864, 0.561889, 0.740793, -0.170231, -1.520251, 67.290726, 142.080780, -592.410217, , 
1759229672.758940, 0.548422, 11.667244, 3.187431, 0.376030, 0.412081, -1.264858, 67.506073, 141.280563, -591.863037, , 
1759229672.778968, -0.333393, 11.375750, 1.962796, 0.278990, 0.125357, -1.175523, 67.566238, 140.655411, -592.241089, , 
1759229672.798963, 0.217872, 11.440842, -1.069161, 0.467796, -0.099211, -1.131242, 67.207672, 139.771683, -591.558594, , 
1759229672.818185, 0.899921, 10.812065, -1.645415, 0.577446, 0.261161, -1.137052, 67.476517, 139.271072, -592.291199, , 
1759229672.838959, 0.685340, 9.577854, -0.399532, 0.484628, 0.201444, -1.244509, 67.646118, 138.607712, -592.636902, , 
1759229672.858594, 0.066888, 8.565705, 0.180463, 0.279010, 0.175297, -1.118124, 68.003159, 137.878265, -591.804199, , 
1759229672.878957, -0.167444, 7.416339, -0.071527, 0.175659, 0.290634, -0.968592, 68.218842, 137.359940, -592.366028, , 
1759229672.898938, 0.089633, 6.951116, 0.015413, 0.168569, 0.393569, -0.721916, 68.315628, 136.796890, -591.827271, , 
1759229672.918203, 0.464625, 6.803723, 0.013318, 0.151940, 0.391128, -0.460029, 68.517654, 136.847916, -592.638672, , 
1759229672.938956, 1.489642, 6.351069, -0.263213, 0.045617, 0.250717, -0.191051, 68.566299, 136.887283, -592.940308, , 
1759229672.958610, 1.914912, 5.552154, -0.897526, -0.042815, 0.130792, 0.127406, 68.474670, 137.023529, -592.519104, , 
1759229672.978960, 1.672799, 5.116110, -1.048211, -0.171591, -0.062322, 0.359431, 68.742310, 137.482269, -593.338501, , 
1759229672.998955, 0.852037, 4.632032, -1.007660, -0.292219, -0.121457, 0.513427, 68.652466, 137.889145, -591.789551, , 
1759229673.018221, -0.992995, 5.032911, -1.106121, -0.372335, -0.022006, 0.568982, 69.052078, 138.551636, -592.902344, , 
1759229673.038956, -3.141641, 5.681889, -1.747019, -0.343236, 0.314013, 0.580507, 69.661041, 139.074768, -592.883179, , 
1759229673.058625, -4.459949, 6.056881, -1.358859, -0.244393, 0.415633, 0.618064, 69.622452, 139.659790, -592.545654, , 
1759229673.078961, -5.150077, 5.185841, -0.703446, -0.210248, -0.070375, 0.557240, 69.895004, 140.164719, -593.164368, , 
1759229673.098952, -4.411765, 4.000262, -0.906205, -0.227394, -0.278614, 0.281394, 69.777908, 140.580048, -592.520386, , 
1759229673.118241, -2.409165, 4.610634, -0.236876, -0.142240, -0.304250, 0.246276, 70.021301, 141.055206, -593.339661, , 
1759229673.138953, -1.593341, 6.330718, -0.836624, -0.054488, -0.327959, 0.366698, 70.242905, 141.752625, -592.943542, , 
1759229673.158640, -1.687164, 9.284714, -1.478868, -0.270918, -0.232286, 0.347453, 69.890488, 142.219559, -592.307251, , 
1759229673.178958, -1.212663, 11.306917, -3.353977, -0.663191, -0.101842, 0.142937, 70.292938, 142.980194, -593.038147, , 
1759229673.198952, -0.147692, 10.276662, -4.339640, -0.556717, -0.058835, 0.193263, 70.301865, 143.334198, -591.800659, , 
1759229673.218255, -1.413028, 13.151799, -5.077054, -0.240826, -0.497346, 0.219890, 70.114441, 143.859192, -592.301331, , 
1759229673.238953, -2.802413, 19.271228, -2.085948, 0.596558, -1.372778, -0.375525, 69.965897, 143.750000, -591.345886, , 
1759229673.258651, -0.889446, 16.447118, 4.012682, 0.166353, -1.010707, -0.388620, 69.510040, 143.762772, -590.801880, , 
1759229673.278956, 0.441281, 17.560122, 1.689259, -0.402076, -0.738115, -0.192907, 69.015701, 144.014069, -590.543945, , 
1759229673.298953, 1.259500, 21.464616, -5.888838, -0.286463, -1.946237, -0.016004, 69.154388, 144.244354, -588.701904, , 
1759229673.318271, -5.585672, 12.677747, -1.162684, 0.044713, 0.862027, -0.077915, 69.439163, 144.452850, -590.122559, , 
1759229673.338955, -6.451326, 10.295965, 0.030376, 0.042180, 0.491092, -0.422500, 69.649811, 144.165787, -590.303040, , 
1759229673.358672, -2.489820, 11.337293, -0.704494, 0.264423, -0.479956, -0.007322, 68.799408, 144.021011, -589.641785, , 
1759229673.378951, 0.092326, 12.181848, 0.912490, 0.389256, 1.019973, 0.050933, 69.182755, 143.907791, -590.354614, , 
1759229673.398935, 1.177798, 11.272051, 3.128024, 0.199953, 1.766025, 0.233304, 69.471146, 143.842529, -590.596741, , 
1759229673.418298, 1.507000, 9.190891, 3.672855, -0.324893, 1.598984, 0.310487, 70.526840, 144.292694, -591.820679, , 
1759229673.438959, 1.638382, 7.067833, 2.745850, -0.795540, 0.559375, 0.432972, 70.614746, 144.938370, -592.071289, , 
1759229673.458934, -0.861613, 7.815722, 0.252888, -0.775123, -0.051061, 0.630841, 70.903198, 145.526047, -591.632385, , 
1759229673.478960, -2.525883, 6.915951, -0.878672, -0.604097, -0.542176, 0.662388, 70.487518, 146.321396, -591.889771, , 
1759229673.498963, -2.592621, 4.344728, -2.290952, -0.425871, -0.820343, 0.335976, 70.098450, 146.733917, -590.473145, , 
1759229673.518304, -1.080832, 3.409194, -4.676774, -0.143211, -0.567415, 0.000207, 69.763000, 147.260834, -590.843811, , 
1759229673.538964, -1.429189, 8.034342, -3.535787, 0.266397, 0.387795, 0.061450, 69.943283, 147.256226, -590.785278, , 
1759229673.557956, -3.474735, 8.467393, -0.120458, 0.486038, 1.111721, 0.069164, 70.488846, 147.319519, -590.997070, , 
1759229673.578956, -3.231424, 6.372317, 1.094449, 0.565905, 1.285194, 0.039204, 70.715805, 147.191605, -591.880737, , 
1759229673.598956, -3.969736, 4.551677, 0.673369, 0.564934, 0.159771, 0.000162, 71.022156, 147.090073, -591.119385, , 
1759229673.618326, -2.570026, 6.914155, -0.533159, 0.456770, -0.635816, -0.151833, 70.387070, 147.507950, -591.425049, , 
1759229673.638995, -1.067814, 7.838018, -1.290774, 0.521446, -0.688687, -0.096631, 70.292603, 147.527817, -591.404480, , 
1759229673.657968, -2.051681, 7.828441, -1.233912, 0.375102, -0.028842, 0.128340, 70.108902, 147.457626, -590.878723, , 
1759229673.678953, -4.498555, 7.111377, -1.798644, 0.472752, 0.577682, 0.113956, 70.370193, 147.894730, -591.059998, , 
1759229673.698956, -4.563947, 8.112154, -1.717690, 0.673958, 0.726110, 0.010945, 70.427826, 147.802536, -590.977295, , 
1759229673.718355, -4.395605, 9.361478, -1.689109, 0.884832, 0.917711, -0.080698, 70.377670, 147.749237, -592.191101, , 
1759229673.738954, -4.845864, 13.997101, -1.579126, 0.962264, 1.000455, -0.657739, 70.433304, 147.579895, -592.578003, , 
1759229673.757984, -3.553444, 15.099332, -0.677858, 1.013921, 0.786929, -1.082621, 70.254791, 146.878891, -592.598022, , 
1759229673.778958, -4.987272, 13.551331, -2.065149, 1.057882, -0.236634, -1.760975, 69.795395, 145.726730, -592.985291, , 
1759229673.798954, -5.201403, 20.064906, -1.707814, 0.535507, -0.351779, -2.549005, 69.298721, 144.285187, -591.501038, , 
1759229673.818334, -2.441637, 26.066871, 0.005537, -0.165339, -0.301644, -2.666553, 68.741959, 143.054611, -591.705627, , 
1759229673.838949, 0.970998, 20.763415, -1.550694, -0.302361, -0.978176, -1.823690, 67.731415, 141.976654, -591.061829, , 
1759229673.857992, 2.595764, 12.083685, -3.949834, -0.292453, -0.223729, -1.183543, 67.035522, 141.149170, -591.294189, , 
1759229673.878944, 1.490989, 8.387786, -2.848053, -0.195375, 0.596281, -0.494196, 67.396057, 141.011993, -591.593750, , 
1759229673.898928, -0.839467, 6.926276, -1.202488, -0.076278, 0.622640, -0.004532, 67.053192, 140.729553, -591.440002, , 
1759229673.918351, -0.999729, 6.713042, -0.541688, -0.054488, 0.177435, -0.061231, 67.102219, 140.649445, -592.146545, , 
1759229673.938951, 0.000150, 5.836166, -1.829619, -0.227500, 0.136965, -0.063580, 67.053772, 140.673218, -592.284668, , 
1759229673.958015, 0.179864, 5.384111, -2.124255, -0.314511, 0.255729, -0.010844, 66.963547, 140.826492, -592.553162, , 
1759229673.978943, 1.642871, 4.655226, -1.583166, -0.472462, 0.719031, 0.448036, 67.096664, 141.170776, -592.717590, , 
1759229673.998930, 2.875137, 3.715053, -0.082899, -0.417342, 0.949109, 0.814242, 67.302917, 141.567398, -592.688538, , 
1759229674.018389, 3.344101, 3.217807, 0.213533, -0.412401, 0.819230, 0.995105, 67.328949, 142.721802, -593.596313, , 
1759229674.038926, 3.798850, 2.346617, 0.260669, -0.585664, 0.165405, 1.550697, 67.660706, 143.572403, -593.825623, , 
1759229674.058022, 3.567510, 2.488324, 0.426318, -0.716485, -0.118456, 1.800510, 67.693069, 145.095612, -593.513977, , 
1759229674.078970, 0.441281, 3.647417, 0.495001, -0.999758, -0.708669, 2.000178, 67.546753, 146.803787, -592.530396, , 
1759229674.098940, -2.481440, 8.751555, -1.765873, -0.534568, -0.466111, 1.996932, 68.224670, 147.963013, -590.742065, , 
1759229674.118410, -5.757456, 12.957868, -1.418714, -0.402033, 0.439879, 1.906737, 68.352814, 149.610443, -591.611145, , 
1759229674.138944, -6.584354, 12.175563, -2.189797, -1.176437, 0.453236, 1.328334, 68.626648, 150.746506, -591.755066, , 
1759229674.158037, -5.629666, 7.652617, -4.001010, -1.143263, 0.338480, 0.831504, 68.784698, 151.474243, -591.821594, , 
1759229674.178949, -6.464045, 4.340388, -4.010587, -0.668318, -0.011003, 0.165118, 68.493576, 151.854706, -591.669678, , 
1759229674.198943, -6.424092, 5.617845, -2.686444, 0.199391, -1.167704, -0.452357, 67.456665, 151.352142, -589.887512, , 
1759229674.218410, -4.118176, 9.215282, -1.289577, 0.618577, -2.663840, -0.859770, 66.087723, 150.733658, -588.923218, , 
1759229674.238943, -1.171513, 14.065187, -2.051980, 0.229813, -3.184319, -0.760577, 64.474716, 150.119843, -586.437134, , 
1759229674.258058, -1.656638, 15.986833, -2.302025, -0.132206, -1.920413, -1.008649, 63.584579, 149.653915, -585.431030, , 
1759229674.278946, 0.341623, 12.331934, 1.217003, -0.349021, 0.124899, -0.766043, 63.398956, 149.134293, -585.952026, , 
1759229674.298942, 1.181838, 15.588048, 0.654665, -0.378196, 1.399315, -0.202816, 63.199402, 148.928131, -585.716736, , 
1759229674.318442, 2.411410, 20.906767, 0.658106, -0.725113, 1.153926, 0.192599, 63.432846, 149.244766, -586.551147, , 
1759229674.338059, -3.260304, 21.305851, -0.664840, -0.355419, -0.405889, 0.467208, 63.881912, 149.777161, -585.124512, , 
1759229674.358066, -12.881254, 19.572000, -6.117933, -0.000740, -2.053153, -0.021491, 63.403351, 149.562790, -584.839905, , 
1759229674.378944, -2.581099, 9.959729, -6.412420, 0.940532, -1.268885, -0.204532, 62.528320, 149.113113, -585.325439, , 
1759229674.398944, -0.794576, 9.956587, -0.579846, 1.256966, 1.844466, -0.199226, 62.705231, 148.619766, -586.113342, , 
1759229674.418496, 0.839617, 10.672154, 5.562928, 0.751257, 3.263987, -0.141021, 63.323318, 148.300278, -589.013306, , 
1759229674.438073, 1.989881, 8.192360, 10.548853, 0.010035, 0.535132, 0.301785, 63.287613, 148.475479, -589.140320, , 
1759229674.458083, 1.269675, 5.350442, 7.133374, -1.476289, -1.767421, 0.736220, 63.285522, 149.510300, -588.006348, , 
1759229674.478942, -1.004368, 6.003610, -1.060332, -1.670212, 0.156331, 0.619015, 63.538254, 150.202011, -587.653564, , 
1759229674.498940, -1.408239, 7.248894, -0.837671, -1.707172, 1.246675, 0.968677, 63.858826, 151.224792, -587.439392, , 
1759229674.518460, -1.227926, 7.115867, -4.092588, -1.286136, 0.553540, 0.619118, 64.136536, 151.802780, -588.631592, , 
1759229674.538938, -0.871789, 5.600936, -7.933187, -0.066255, -1.221150, 0.276716, 63.781860, 152.308441, -587.401306, , 
1759229674.558097, -2.627636, 5.555595, -3.810821, 0.627833, 0.023890, 0.089507, 63.932617, 152.124420, -587.690979, , 
1759229674.578943, -4.600159, 5.281310, -1.237353, 0.825429, 0.544665, -0.188011, 63.810486, 151.782867, -588.184753, , 
1759229674.598940, -5.137209, 5.757157, -1.865083, 1.271364, -0.552666, -0.523372, 63.644547, 151.049713, -587.389954, , 
1759229674.618477, -2.992303, 7.231237, -1.711106, 1.235012, -0.198892, -0.325347, 63.214859, 150.473526, -588.319092, , 
1759229674.638937, -2.189647, 6.135142, -0.305710, 1.245375, 0.864402, -0.267538, 63.492584, 149.640167, -589.280273, , 
1759229674.658113, -1.108216, 5.535993, 0.889446, 1.329814, 1.804275, -0.058315, 63.775986, 149.125427, -590.994812, , 
1759229674.678945, -1.524059, 6.478111, 2.107047, 1.086585, 1.591073, 0.211298, 64.535049, 148.736404, -591.829346, , 
1759229674.698938, -2.657414, 8.335114, 1.673996, 0.677131, 0.642176, 0.123830, 64.788696, 148.500656, -592.227295, , 
1759229674.718505, -4.595520, 8.778340, -0.169390, 0.831737, -0.580581, 0.009819, 64.267426, 148.013611, -592.166138, , 
1759229674.738947, -8.468890, 11.121366, -1.307084, 1.011384, -2.316439, -0.654729, 63.582962, 147.190964, -590.406006, , 
1759229674.758127, -7.066337, 15.685762, -5.856367, 0.783090, -2.133829, -1.467298, 62.432755, 146.175873, -589.518555, , 
1759229674.778941, -5.620388, 18.468423, -8.753800, 1.258321, -0.641448, -2.320209, 61.711823, 144.089005, -589.347961, , 
1759229674.798938, -3.297564, 21.823298, -2.349460, 1.498211, 1.741805, -2.980128, 62.225021, 141.214478, -589.482849, , 
1759229674.818515, 0.713921, 26.859202, 4.326472, 0.635835, 0.324531, -2.643339, 62.492203, 139.193726, -589.914062, , 
1759229674.838939, 1.906982, 17.891570, -1.759289, -0.201701, -1.905401, -1.599276, 61.859482, 138.136765, -589.837830, , 
1759229674.858144, 1.392827, 10.189722, -6.460155, -0.599348, -0.716486, -1.206339, 61.578598, 137.513245, -589.416809, , 
1759229674.878940, -0.698209, 8.668955, -3.532944, -0.290175, 0.596346, -0.476344, 61.745575, 137.231583, -589.902710, , 
1759229674.898191, -3.362058, 6.285079, 0.451008, -0.152308, 0.417667, -0.124040, 61.680786, 136.942322, -589.721191, , 
1759229674.918524, -2.584391, 6.314258, 0.381127, -0.562849, -0.261411, -0.227490, 61.768005, 137.091705, -590.305542, , 
1759229674.938997, -0.727538, 6.473921, -1.888127, -0.551004, -0.158463, -0.189183, 61.366516, 136.998779, -589.917480, , 
1759229674.958157, 1.111658, 7.498041, -3.249231, -0.400241, 0.544899, 0.103064, 61.712433, 137.276047, -591.086487, , 
1759229674.978939, 2.684199, 7.088782, -1.883937, -0.444173, 1.144133, 0.482522, 61.965240, 137.696472, -591.376709, , 
1759229674.998935, 3.828029, 5.481525, -0.052972, -0.481668, 1.010803, 0.891889, 62.202560, 138.195190, -592.092834, , 
1759229675.018542, 4.608389, 3.699640, -0.082001, -0.490578, 0.340304, 1.316757, 62.514481, 139.231506, -592.548279, , 
1759229675.038935, 3.391985, 2.806004, 0.319925, -0.666083, -0.213675, 1.742116, 62.575729, 140.845795, -592.360901, , 
1759229675.058172, 0.338181, 2.775778, -0.352845, -0.793136, -0.681852, 1.997008, 62.583633, 142.474701, -592.197754, , 
1759229675.078941, -2.535460, 5.418378, -1.059734, -0.618512, -0.135344, 2.200553, 62.536194, 144.090012, -591.554199, , 
1759229675.097961, -5.571457, 8.807669, -1.858200, -0.634770, 0.221931, 2.003388, 63.002106, 145.823349, -590.686646, , 
1759229675.118547, -8.122030, 11.427076, -3.115305, -0.934898, 0.819892, 1.301885, 63.574173, 147.011597, -590.995911, , 
1759229675.138927, -6.560262, 9.171438, -2.741660, -0.976347, 0.700709, 0.771345, 63.804749, 147.832169, -591.430542, , 
1759229675.158182, -5.795614, 5.223998, -1.493383, -0.606596, -0.086333, 0.286640, 63.717529, 148.388611, -592.251221, , 
1759229675.178937, -4.786907, 5.852776, -1.118092, -0.298305, -0.732897, -0.255254, 63.560822, 148.423401, -591.722900, , 
1759229675.198930, -4.034679, 9.096769, -1.968932, -0.321017, -1.592709, -0.480969, 62.973984, 148.253235, -589.589478, , 
1759229675.218573, -2.091934, 12.756007, -6.127361, -0.087488, -2.338865, -0.602293, 61.866623, 148.091003, -588.887085, , 
1759229675.238931, -1.869423, 15.658079, -6.111798, 0.350644, -2.255040, -0.647113, 60.807495, 147.406830, -586.844482, , 
1759229675.258202, -1.255011, 11.368717, -0.516100, 0.129026, -0.463835, -0.832602, 60.549698, 146.726425, -586.392761, , 
1759229675.278937, 0.718111, 12.791172, 2.578256, -0.027977, 1.117757, -0.313881, 60.524323, 146.477615, -587.087402, , 
1759229675.298951, 1.290325, 15.742026, 4.159476, -0.902886, 1.431244, 0.116112, 61.204926, 146.339600, -587.479919, , 
1759229675.318614, -0.753425, 22.176293, 1.543961, -0.679693, 1.424353, 0.477969, 61.797653, 147.042130, -587.869690, , 
1759229675.338315, -16.387861, 24.761432, -5.533748, -0.406760, -3.178318, 0.048100, 62.194138, 147.605652, -586.293518, , 
1759229675.358217, -3.429844, 10.716596, -9.286210, 0.427521, -2.234929, -0.403562, 59.960999, 147.266113, -585.781555, , 
1759229675.378372, 1.418265, 9.955240, -2.629432, 1.312501, 1.923069, -0.403579, 60.263535, 146.595428, -586.906799, , 
1759229675.398931, 1.450138, 11.442039, 3.957316, 0.933880, 4.339479, 0.113514, 61.057800, 146.076340, -589.132019, , 
1759229675.418598, 2.707393, 10.406098, 10.376919, 0.428745, 2.423232, 0.311191, 61.882767, 146.086395, -591.459778, , 
1759229675.438952, 0.384569, 6.417358, 9.735423, -1.142744, -1.420280, 0.351233, 62.272171, 146.853378, -590.695190, , 
1759229675.458232, -1.052401, 5.157260, -0.466121, -1.818413, 0.142063, 0.502389, 62.394333, 147.570862, -590.516724, , 
1759229675.478934, -2.966865, 6.149657, -2.392406, -1.575900, 0.031194, 0.877436, 62.477234, 148.615219, -590.254150, , 
1759229675.498926, -3.287987, 7.196970, -7.284807, -0.665255, -0.449926, 0.559450, 62.706345, 149.229202, -589.553101, , 
1759229675.518676, -2.640655, 8.480711, -6.997204, 0.180335, -0.628047, 0.244935, 62.550064, 149.505890, -589.227356, , 
1759229675.538947, -4.054132, 6.792949, -2.480692, 0.367539, -0.571909, 0.160991, 62.321930, 149.417755, -588.962646, , 
1759229675.558247, -2.946514, 6.431574, -0.513706, 0.424193, -0.478451, -0.022722, 62.070496, 149.415909, -589.085449, , 
1759229675.578932, -1.614290, 6.044312, -0.427664, 0.688986, 0.669840, -0.109708, 61.884689, 149.130829, -589.491150, , 
1759229675.598931, -1.615637, 5.778106, 0.493355, 0.704146, 1.771023, 0.073602, 62.562271, 149.044403, -590.009827, , 
1759229675.618685, -3.754707, 6.244826, 1.014842, 0.502919, 1.163369, 0.022526, 62.982819, 148.845215, -591.238770, , 
1759229675.638948, -3.594894, 5.696853, 0.812831, 0.442496, -0.169602, -0.091119, 63.147614, 148.550186, -591.100220, , 
1759229675.658261, -2.409165, 6.759280, -0.461333, 0.368533, -0.493081, -0.107148, 62.787872, 148.413666, -591.732117, , 
1759229675.678936, -2.219425, 8.401553, -1.338508, 0.228798, 0.354281, 0.125885, 62.592270, 148.289658, -591.215637, , 
1759229675.698933, -4.105308, 7.035062, -1.111807, 0.541275, 0.571270, 0.005450, 62.792709, 148.310471, -591.278076, , 
1759229675.718647, -4.089596, 7.351546, -0.179415, 0.800365, -0.011303, -0.549461, 62.569824, 147.800522, -592.078308, , 
1759229675.738929, -3.535338, 9.783007, -1.696442, 0.972002, -0.812559, -1.019949, 62.365280, 146.838364, -591.436096, , 
1759229675.758277, -4.998495, 16.205603, -3.570503, 0.993660, -0.737026, -1.525740, 61.857330, 145.524719, -591.104431, , 
1759229675.778930, -6.458209, 16.427067, -3.948039, 1.212867, 0.007674, -2.105217, 61.646652, 143.930023, -591.049805, , 
1759229675.798934, -7.157616, 18.616863, -0.737863, 1.086418, 0.736713, -2.588385, 61.430374, 141.686356, -590.777649, , 
1759229675.818662, -3.596689, 25.297733, 0.493505, 0.499683, 0.619043, -2.734198, 61.648087, 139.313766, -591.329834, , 
1759229675.838925, 4.542399, 21.523723, 0.685939, 0.414025, -0.738842, -1.746675, 61.277054, 137.529633, -590.968262, , 
1759229675.858292, 3.972878, 10.431088, -5.371391, -0.392110, -0.061134, -0.942952, 61.188629, 136.876205, -591.673340, , 
1759229675.878973, 0.476895, 8.580819, -2.711882, -0.433992, 0.489080, -0.193833, 61.590088, 136.815613, -591.762451, , 
1759229675.898638, -2.240374, 8.167370, -0.540790, -0.185759, -0.155727, 0.148356, 61.685043, 136.702057, -591.514771, , 
1759229675.918670, -3.052009, 8.074295, -1.645415, -0.018978, -0.309889, 0.089016, 61.310486, 136.913269, -592.111816, , 
1759229675.938909, -2.345869, 6.889615, -2.423531, -0.018061, 0.455521, -0.122212, 61.471405, 136.886581, -591.225098, , 
1759229675.958307, -1.309329, 6.597971, -2.357391, -0.074765, 0.708210, -0.127625, 61.496307, 137.026978, -592.617188, , 
1759229675.978919, 4.770596, 6.419453, -1.394922, -0.192620, 0.535975, 0.513588, 61.706223, 137.114120, -593.389648, , 
1759229675.998908, 5.611709, 5.234174, -0.206500, -0.375152, 0.300225, 1.112070, 61.824997, 137.690033, -593.536621, , 
1759229676.018693, 4.994754, 4.460847, 0.047435, -0.426484, 0.147786, 1.279280, 61.750778, 138.899887, -593.921204, , 
1759229676.038918, 3.600879, 3.958663, 0.256928, -0.653563, -0.245686, 1.679636, 61.672943, 140.081650, -592.567627, , 
1759229676.058322, 0.957980, 3.637840, 0.618751, -0.715300, -0.483127, 1.751646, 61.935776, 141.517868, -593.101990, , 
1759229676.078926, -1.815703, 4.527884, -0.145597, -0.639414, -0.871104, 1.855486, 61.619965, 143.130295, -591.897827, , 
1759229676.098927, -4.378097, 7.746739, -1.435324, -0.176753, -0.874803, 1.964209, 61.673462, 144.483826, -590.693176, , 
1759229676.118719, -6.841132, 10.809671, -2.218078, -0.386807, -0.667773, 1.884785, 61.847672, 145.935379, -590.669556, , 
1759229676.138937, -7.496245, 9.880721, -4.583998, -0.731065, 0.393327, 1.351829, 61.771896, 146.798660, -590.388306, , 
1759229676.158344, -6.384288, 6.453720, -2.806004, -0.698885, 0.455948, 0.464592, 61.754135, 147.512421, -591.525024, , 
1759229676.178925, -4.920234, 5.243152, -1.363797, -0.423539, -0.172118, -0.181772, 61.807953, 147.663834, -591.145081, , 
1759229676.198683, -5.179257, 6.314707, 0.012719, -0.183002, -1.432725, -0.445415, 61.174530, 147.539108, -589.244141, , 
1759229676.218730, -6.083068, 8.307132, -2.689886, -0.262329, -2.350051, -0.483176, 60.344330, 147.194214, -588.186829, , 
1759229676.238933, -3.837756, 8.281544, -6.299294, -0.001789, -2.552577, -0.449768, 59.210846, 146.924713, -585.465149, , 
1759229676.258359, -1.713799, 11.818079, -7.779210, 0.188501, -1.063555, -0.448506, 58.572800, 146.258514, -585.621094, , 
1759229676.278919, -2.270751, 14.032566, -2.195184, 0.567528, 0.097302, -0.723959, 58.593918, 145.630920, -585.589905, , 
1759229676.298922, 0.551714, 11.627590, 4.009390, 0.231539, 1.253730, -0.534476, 58.895203, 144.934753, -585.881836, , 
1759229676.318743, 1.110461, 17.593941, 5.425261, -0.550385, 0.780292, -0.083032, 58.861130, 144.900421, -586.620911, , 
1759229676.338936, -1.039981, 32.372599, 2.562544, -1.050355, -1.597136, 0.283977, 58.767120, 145.283890, -584.260498, , 
1759229676.358372, -12.690466, 16.984467, -6.807613, -0.530009, -2.976644, -0.058056, 58.515717, 145.628418, -583.052612, , 
1759229676.378924, -7.384316, 7.637354, -7.743297, 0.297139, -1.431272, -0.544531, 57.785934, 145.028961, -582.580750, , 
1759229676.398922, -0.770334, 10.278308, -2.374300, 1.091027, 1.535477, -0.360467, 57.816269, 144.353668, -583.010803, , 
1759229676.418752, 1.001973, 12.315923, 2.994697, 0.945017, 3.657709, -0.134010, 58.307693, 143.926453, -585.957153, , 
1759229676.438917, 2.455403, 13.241132, 8.269423, 0.149697, 3.035517, 0.168950, 59.123947, 143.710709, -587.787720, , 
1759229676.458373, 2.732233, 11.049989, 8.932467, -0.783364, -0.241789, 0.320427, 59.306839, 144.175491, -588.859924, , 
1759229676.478915, 0.330549, 8.665065, 1.311424, -1.820320, -1.479588, 0.283760, 59.822128, 145.148193, -587.012390, , 
1759229676.498754, -1.725022, 8.108712, -2.577807, -1.864160, -0.871311, 0.842443, 59.415970, 146.023315, -585.823975, , 
1759229676.518775, -2.071433, 5.590760, -8.616881, -0.568413, -0.838544, 0.824306, 58.915680, 146.889740, -585.861084, , 
1759229676.538921, -0.217124, 6.335806, -5.894076, 0.448409, 0.388481, 0.591076, 59.280075, 146.921417, -585.079468, , 
1759229676.558397, -1.058536, 6.632238, 0.251242, 0.435848, 0.638945, 0.612863, 59.583267, 147.390427, -586.377441, , 
1759229676.578921, -2.478597, 5.830779, 2.786551, 0.063519, 0.416977, 0.494411, 59.913147, 147.973282, -587.090515, , 
1759229676.598924, -4.478953, 6.234800, -0.248099, -0.127061, 0.059952, 0.222954, 60.072556, 147.933105, -586.315735, , 
1759229676.618790, -6.800281, 7.562086, -2.816778, 0.101787, -1.246052, -0.140508, 59.686020, 148.055344, -585.609497, , 
1759229676.638918, -4.453215, 5.210381, -3.406799, 0.538647, -0.656803, -0.427076, 59.509949, 147.364609, -584.632263, , 
1759229676.658412, -1.764826, 4.669142, -1.006612, 0.701043, 0.290771, -0.183571, 59.294373, 147.162231, -585.917480, , 
1759229676.678921, -1.933318, 6.166865, 0.073622, 0.595853, 0.591639, 0.096538, 59.634552, 146.869568, -586.435791, , 
1759229676.698916, -3.572897, 7.933786, 0.070629, 0.575651, 0.329301, 0.097951, 59.604370, 146.803268, -585.933350, , 
1759229676.718804, -3.502268, 7.558345, -0.489465, 0.530405, -0.190580, 0.061273, 59.582642, 146.538467, -586.652466, , 
1759229676.738923, -1.724124, 7.981520, -1.418415, 0.429611, 0.211017, -0.055572, 59.678680, 146.240128, -585.674866, , 
1759229676.758434, -1.764676, 7.846397, -0.533009, 0.559327, 0.668806, 0.027071, 59.649765, 146.138504, -587.291382, , 
1759229676.778919, -4.308964, 7.155521, -1.345691, 0.980352, -0.320747, -0.327721, 59.404083, 145.551453, -587.633301, , 
1759229676.798918, -4.308964, 13.014880, -4.032434, 1.060978, -0.879969, -0.895238, 59.337997, 144.740326, -585.841431, , 
1759229676.818838, -3.646369, 14.728979, -4.036175, 1.328446, -0.046378, -1.101212, 58.812424, 143.478714, -586.457703, , 
1759229676.838951, -6.381894, 15.239842, -1.612944, 1.481228, 0.569260, -1.737485, 59.031326, 141.605392, -585.534485, , 
1759229676.858449, -8.797045, 21.580586, 1.442207, 0.890601, 0.558089, -2.748471, 59.087173, 139.633102, -586.271729, , 
1759229676.878936, -2.667290, 27.886913, 3.077746, -0.099326, -0.906138, -2.644707, 59.265518, 137.518204, -586.169495, , 
1759229676.898921, 2.222118, 17.679982, -4.023606, -0.337963, -1.479034, -1.532670, 58.977585, 136.019226, -585.304199, , 
1759229676.918859, 1.821389, 10.820295, -6.086061, -0.432576, 0.341562, -0.907321, 59.122131, 135.474060, -585.561951, , 
1759229676.938917, -0.460585, 7.779210, -1.789516, -0.236564, 0.646475, -0.298380, 59.433670, 135.217499, -585.518860, , 
1759229676.958462, -1.950077, 4.674080, 0.025887, -0.182082, 0.057546, -0.092663, 59.249191, 135.286621, -586.511169, , 
1759229676.978912, -1.588553, 4.751892, -1.073799, -0.130029, -0.339293, -0.273442, 59.131180, 135.176285, -586.366211, , 
1759229676.998926, -2.128296, 5.712864, -3.341258, -0.226659, 0.200904, -0.361997, 60.114456, 134.544876, -586.241211, , 
1759229677.018849, -0.947954, 6.597522, -2.873192, -0.199324, 0.946230, -0.111190, 60.059814, 134.508774, -587.274414, , 
1759229677.038898, 1.229572, 6.896648, -0.869095, -0.227960, 1.333374, 0.357561, 60.033813, 134.813751, -588.477417, , 
1759229677.058471, 2.939481, 5.545121, 1.118990, -0.198637, 1.138363, 0.856281, 59.834488, 135.638718, -588.864258, , 
1759229677.078895, 3.522469, 3.945495, 1.203386, -0.307016, 0.171937, 1.163603, 60.203094, 136.369675, -589.149475, , 
1759229677.098895, 3.309086, 3.062633, 0.464026, -0.531491, -0.657705, 1.420775, 60.078018, 137.229904, -588.649719, , 
1759229677.118871, 1.981202, 2.968361, -0.472406, -0.706784, -1.268663, 1.695114, 59.623703, 138.759552, -588.180176, , 
1759229677.138934, 0.798766, 3.202544, -1.070059, -0.790269, -1.422599, 2.018609, 59.298981, 140.675522, -586.508545, , 
1759229677.158491, -1.868824, 5.384859, -2.608333, -0.620779, -0.737036, 2.233194, 59.266693, 141.894836, -585.957275, , 
1759229677.178898, -3.568258, 8.854356, -3.029114, -0.369162, 0.620389, 2.251991, 59.525177, 144.155136, -586.467529, , 
1759229677.198613, -5.710620, 9.060407, -2.896086, -0.913613, 1.115313, 1.808491, 60.254456, 145.319870, -585.682251, , 
1759229677.218886, -7.558345, 9.970802, -4.009240, -0.828619, 0.694320, 1.248009, 60.608582, 146.446457, -587.127136, , 
1759229677.238904, -9.892093, 8.825626, -3.317915, -0.379970, -0.237966, 0.260506, 60.710480, 146.421021, -586.569702, , 
1759229677.258510, -7.042395, 7.504475, -1.931522, -0.023631, -1.291730, -0.370501, 60.201660, 145.927017, -585.062500, , 
1759229677.278902, -6.676381, 10.136451, -0.970549, -0.143770, -2.032621, -0.839544, 59.515091, 145.334518, -583.384338, , 
1759229677.298912, -8.804826, 15.407137, -1.236007, 0.481363, -3.023979, -1.295912, 58.631485, 144.271317, -580.620056, , 
1759229677.318901, 0.144251, 11.015273, 3.142539, -0.137187, -1.604959, -1.248544, 57.861176, 143.264435, -580.866638, , 
1759229677.338912, 0.867898, 18.293197, 0.562488, -2.064933, 0.824485, -0.833103, 58.394592, 142.783020, -580.100830, , 
1759229677.358516, 1.215207, 43.775134, -3.601927, -0.473099, 0.074498, 0.074290, 58.353760, 142.891586, -579.436157, , 
1759229677.378088, -8.588450, 15.660922, -8.299949, 0.813520, -2.382552, -0.413715, 58.877121, 142.843491, -579.329712, , 
1759229677.397884, -1.276858, 8.125023, -5.617695, 1.182276, -0.310439, -0.315464, 58.154922, 142.126358, -579.372559, , 
1759229677.418348, 1.403900, 11.147403, 1.032051, 1.747590, 2.601464, -0.295393, 58.442108, 141.621658, -582.159180, , 
1759229677.438914, 1.596933, 11.515362, 6.410924, 1.105859, 3.850625, -0.176435, 59.182846, 140.951080, -584.619751, , 
1759229677.458563, 4.372411, 8.980351, 12.524967, 0.008927, 0.763858, 0.351198, 58.931931, 141.257187, -584.572632, , 
1759229677.478910, 0.339827, 5.730222, 6.051794, -2.102147, -2.770399, 0.423337, 59.004395, 142.230713, -582.664673, , 
1759229677.498908, -0.234931, 10.219500, -1.608904, -2.159435, -0.086347, 0.670696, 59.693451, 142.994736, -581.255371, , 
1759229677.518957, -4.553622, 9.211691, -4.529381, -1.814071, 0.275807, 1.076525, 59.590500, 144.221161, -582.556763, , 
1759229677.538921, -4.548684, 6.528389, -9.575011, -0.143861, -0.829839, 0.662442, 59.114838, 144.836136, -582.224426, , 
1759229677.558579, -1.579724, 5.206042, -5.373037, 0.842800, 0.530502, 0.364490, 59.570190, 144.665115, -582.250366, , 
1759229677.578914, 0.220566, 4.283676, -0.248249, 0.748381, 0.899078, 0.246689, 59.740891, 144.917511, -583.644165, , 
1759229677.598889, -0.486621, 5.756409, 1.997363, 0.249865, 0.503015, 0.262221, 59.891174, 144.804184, -582.638916, , 
1759229677.618918, -1.767968, 9.093178, 1.640477, 0.027475, 0.560984, 0.288694, 60.389984, 145.221680, -583.930420, , 
1759229677.638922, -3.073407, 7.234230, 0.820762, 0.059080, 0.353058, 0.317877, 60.686066, 145.176956, -584.263611, , 
1759229677.658593, -5.528661, 4.011335, -0.850839, 0.255765, -1.234728, 0.025341, 60.654404, 145.052399, -582.728760, , 
1759229677.678911, -5.163395, 1.930774, -3.311480, 0.481679, -2.099957, -0.180886, 60.348785, 145.051910, -582.197144, , 
1759229677.698911, -3.035698, 4.630236, -4.784513, 0.640681, 0.052605, -0.190379, 60.202271, 144.561600, -581.317017, , 
1759229677.718915, -2.505831, 7.747188, -1.392079, 0.837552, 0.708201, -0.110829, 60.305420, 144.334671, -582.682556, , 
1759229677.738909, -3.746327, 8.588001, -0.428263, 0.757043, 0.693060, -0.206226, 60.500687, 144.045197, -583.010559, , 
1759229677.758609, -3.140444, 7.190087, -0.667982, 0.849470, 0.483053, -0.206641, 60.360733, 143.577133, -583.585999, , 
1759229677.778943, -3.879804, 6.393566, -1.829020, 1.323542, -0.138559, -0.650926, 60.610840, 142.838287, -583.443970, , 
1759229677.798909, -4.992060, 14.834922, -4.046201, 1.529551, -1.454731, -1.413358, 60.158447, 141.331100, -581.184448, , 
1759229677.818902, -5.368997, 19.091364, -5.509058, 1.295049, -1.174134, -2.192827, 60.172440, 139.499756, -581.199951, , 
1759229677.838892, -5.417031, 20.723611, -2.123956, 1.103305, 0.875729, -2.878320, 60.531601, 137.291168, -581.436951, , 
1759229677.858626, -5.563077, 28.324453, 3.284096, 1.076218, 0.554437, -3.157148, 61.115463, 134.778275, -580.793274, , 
1759229677.878098, -3.249381, 29.466038, 3.548656, 0.790475, -0.873903, -2.975396, 61.209259, 133.287064, -580.823242, , 
1759229677.898904, 2.078017, 11.770793, -6.685958, 0.168661, -0.247073, -1.185141, 60.887726, 132.096024, -580.228638, , 
1759229677.918894, 1.233463, 8.865429, -1.348833, 0.133677, 0.712069, -0.529436, 61.069855, 131.913025, -581.464600, , 
1759229677.938887, -2.149095, 7.109432, 0.537648, 0.038277, 0.171605, -0.328130, 61.539780, 131.643021, -581.804688, , 
1759229677.958646, -3.458125, 6.077831, 0.709881, -0.156085, -0.388921, -0.404974, 61.560608, 131.515884, -581.164673, , 
1759229677.978890, -0.353145, 3.717148, -0.792630, -0.333965, -0.640760, -0.078946, 61.195587, 131.579865, -581.550720, , 
1759229677.998919, 0.529867, 3.144036, -1.918354, -0.648103, -0.425686, 0.177960, 61.007187, 131.666031, -580.440918, , 
1759229678.018898, 1.817349, 3.483863, -3.377770, -0.728218, -0.102574, 0.342609, 61.267288, 132.241425, -581.475220, , 
1759229678.038944, 2.339285, 4.081515, -1.517475, -0.826074, 0.535832, 0.823935, 61.301514, 132.958130, -582.378235, , 
1759229678.058654, 2.737321, 3.752911, -0.171784, -0.900346, 0.390459, 1.295518, 61.142609, 134.273880, -581.735352, , 
1759229678.078786, 3.547758, 3.555838, -0.325163, -0.762776, -0.050307, 1.805535, 60.981125, 135.892731, -581.929993, , 
1759229678.098904, 1.585560, 3.866636, -0.218621, -0.741260, -0.425331, 2.304941, 61.126907, 137.319672, -580.582397, , 
1759229678.118912, -1.697190, 4.115483, -0.765247, -0.732754, -0.345024, 2.462937, 61.153534, 139.114349, -581.202026, , 
1759229678.138926, -3.707122, 6.893056, -1.342100, -0.688000, 0.477953, 2.391804, 61.266983, 140.910233, -581.210876, , 
1759229678.158670, -5.410746, 11.074978, -3.549404, -0.721699, 1.209177, 2.087083, 61.724411, 142.309967, -581.565735, , 
1759229678.178784, -6.795343, 11.043405, -3.989638, -0.918598, 0.929016, 1.356082, 62.014435, 143.280258, -582.483765, , 
1759229678.198775, -6.016928, 9.994744, -3.536834, -0.669705, 0.154548, 0.400807, 62.064880, 143.317795, -582.036987, , 
1759229678.218900, -2.670133, 8.305186, -3.938013, -0.096131, -1.065667, -0.193632, 61.798767, 143.159103, -581.652771, , 
1759229678.238909, -2.734328, 8.234408, -4.265270, 0.255572, -2.441207, -0.370815, 61.525558, 142.948730, -579.256836, , 
1759229678.258685, -4.030489, 14.371495, -5.745934, 0.485562, -3.042550, -0.464005, 61.149658, 142.261536, -576.280334, , 
1759229678.278909, -6.092944, 15.814151, -3.987244, 1.621478, -4.167264, -1.046531, 61.223785, 141.611664, -574.560913, , 
1759229678.298902, -2.256385, 6.608445, 4.140173, 0.411915, -0.352677, -1.130422, 61.214142, 140.594452, -573.793518, , 
1759229678.318904, 1.503858, 13.527688, 4.951808, -0.919280, 1.034937, -0.225629, 61.247986, 140.834152, -574.272583, , 
1759229678.338921, -1.537975, 31.613787, 2.551022, -0.601636, 0.451732, 0.641114, 61.815338, 141.254623, -573.247803, , 
1759229678.358698, -17.514034, 21.645379, -5.972037, -0.415353, -4.367925, -0.350986, 61.913376, 141.065460, -571.340454, , 
1759229678.378818, -5.243451, 7.338827, -11.003152, 0.431274, -2.013802, -0.338455, 61.384964, 140.745270, -571.773315, , 
1759229678.398880, 0.430807, 10.116699, -0.831087, 1.044691, 2.066818, -0.449050, 61.232117, 140.474243, -572.469910, , 
1759229678.418903, 1.446098, 12.679991, 3.327641, 0.963375, 3.889543, -0.142947, 61.293900, 140.421494, -575.970886, , 
1759229678.438915, 1.761384, 11.759720, 6.866570, 0.112760, 2.851300, 0.196766, 61.611435, 140.574005, -577.789856, , 
1759229678.458713, 2.435801, 9.486725, 6.724864, -0.769352, -0.111207, 0.365303, 61.462616, 141.061920, -576.896362, , 
1759229678.478905, 0.164452, 7.922713, 1.393725, -1.268508, -1.667704, 0.395814, 61.602921, 141.673721, -575.858459, , 
1759229678.498904, -1.342249, 7.441628, -1.174506, -1.391043, -0.858309, 0.747269, 61.766098, 142.005844, -574.263062, , 
1759229678.518922, -1.201440, 6.180183, -3.898957, -0.780979, -0.251419, 0.775707, 61.766052, 142.952255, -575.189636, , 
1759229678.538964, -0.524181, 6.185121, -4.438700, -0.147349, -0.170372, 0.718517, 61.959747, 143.338806, -575.182556, , 
1759229678.558729, -2.381782, 8.239795, -2.434753, 0.063256, 0.050686, 0.625108, 62.101028, 143.696854, -574.653320, , 
1759229678.578893, -2.949656, 9.983821, -0.020650, 0.240565, 0.546578, 0.493577, 62.147446, 144.171249, -575.334534, , 
1759229678.598896, -2.889652, 9.118317, 1.580323, 0.132098, 0.643506, 0.292272, 62.322922, 144.313034, -575.026855, , 
1759229678.618920, -3.693355, 6.931214, 0.237026, -0.112697, 0.216529, 0.225153, 62.460464, 144.669647, -575.899597, , 
1759229678.638954, -3.390489, 4.260033, -2.120365, 0.268046, -1.123313, 0.127185, 62.426331, 144.763596, -575.333801, , 
1759229678.658744, -2.540697, 4.722712, -2.973299, 0.417559, -0.558136, 0.100817, 62.418381, 144.831909, -574.627319, , 
1759229678.678378, -2.713828, 8.708011, -1.554735, 0.472727, 0.991687, 0.173872, 62.458282, 144.864548, -575.277771, , 
1759229678.698899, -3.257162, 7.941417, 0.364068, 0.575743, 1.066168, 0.205178, 62.632568, 144.956253, -575.487488, , 
1759229678.718476, -3.229778, 6.517017, 0.741454, 0.439908, 0.571915, 0.257778, 62.763535, 145.293549, -576.792236, , 
1759229678.738032, -2.857031, 6.865972, 0.218920, 0.255175, 0.385140, 0.102129, 62.494171, 145.409515, -577.193420, , 
1759229678.758760, -1.808670, 7.701698, -0.500089, 0.333294, -0.021323, -0.052966, 62.790192, 145.302658, -576.770996, , 
1759229678.778911, -0.805200, 8.958504, -1.899500, 0.381478, -0.650111, -0.126732, 62.437714, 145.342178, -576.529785, , 
1759229678.798507, -0.475249, 8.917204, -3.216760, 0.481733, -0.554353, -0.092730, 62.579102, 145.142715, -575.260864, , 
1759229678.818931, -2.072780, 7.832631, -4.555268, 0.988107, 0.313270, -0.095358, 62.625168, 145.226151, -576.195801, , 
1759229678.838648, -5.160702, 7.546374, -2.309058, 1.449977, 0.547319, -0.428725, 62.630569, 144.668457, -575.949829, , 
1759229678.858781, -6.953061, 14.002937, -0.784700, 1.207350, -0.062018, -1.127899, 62.344696, 143.859512, -575.399780, , 
1759229678.878893, -4.640262, 14.994586, 0.375740, 1.003987, -1.071544, -1.702013, 62.241150, 142.792831, -575.246521, , 
1759229678.898896, -3.607912, 14.720450, 0.540790, 0.505124, -1.672021, -2.012296, 61.790619, 141.259613, -573.274536, , 
1759229678.918900, -3.094955, 21.817013, 2.750040, -0.959202, -1.140658, -2.579784, 61.945953, 139.808990, -572.260498, , 
1759229678.938088, 0.255581, 28.812571, -1.265784, -1.603989, -1.202896, -2.212994, 62.032410, 138.291306, -571.495422, , 
1759229678.958789, 3.429395, 16.733973, -6.931513, -0.551087, -0.346734, -0.864648, 61.649124, 137.775757, -571.669128, , 
1759229678.978897, 2.199673, 10.120141, -4.531476, -0.251357, 1.180029, -0.029618, 61.762878, 137.740128, -573.411072, , 
1759229678.998898, 0.624737, 6.437410, -1.052701, 0.270569, 1.653062, 0.579827, 61.545120, 137.976883, -574.265747, , 
1759229679.018926, 0.085443, 3.667618, 1.024718, 0.406904, 1.211548, 0.666313, 61.421188, 138.498215, -575.858948, , 
1759229679.038898, 0.417639, 4.249259, 1.355717, -0.070720, 0.818159, 0.419493, 61.583939, 138.680115, -576.004272, , 
1759229679.058805, 1.517176, 7.969549, -0.403722, -0.838151, -0.074324, 0.672941, 61.501221, 139.402939, -575.338257, , 
1759229679.078895, 1.882142, 10.124181, -2.642750, -1.024945, -0.215644, 1.222764, 61.412186, 140.237717, -575.456970, , 
1759229679.098894, 1.913266, 10.046070, -1.499967, -0.948446, 0.709678, 1.611800, 61.224075, 141.292526, -575.478333, , 
1759229679.118920, 3.018639, 6.013486, 0.439635, -0.890226, 0.835521, 1.857705, 61.419144, 142.784897, -577.035583, , 
1759229679.138893, 3.121889, 5.240758, 2.558204, -1.048181, 0.563861, 2.154257, 61.661514, 144.153946, -576.628479, , 
1759229679.158819, 0.119411, 7.896077, 0.033668, -0.793537, 0.709355, 2.284715, 62.159531, 145.798691, -576.891785, , 
1759229679.178898, -1.638083, 12.878111, -3.874716, -0.772935, 2.752348, 2.167351, 62.871796, 147.430069, -578.328735, , 
1759229679.198869, -4.594473, 17.809868, -10.313921, -1.430221, 2.378500, 1.588536, 63.332184, 148.407013, -579.031006, , 
1759229679.218912, -7.527520, 13.761273, -5.839458, -0.323018, -0.499357, 0.200902, 63.470367, 148.714600, -579.497681, , 
1759229679.238946, -8.359804, 12.019940, 1.019930, 0.515660, -3.342883, -0.773568, 63.434830, 148.409363, -576.786987, , 
1759229679.258837, -6.420501, 10.725575, 0.129287, 0.523490, -3.647262, -0.711950, 62.886948, 147.927887, -574.545288, , 
1759229679.278025, -2.691980, 8.803928, -0.735020, 0.261764, -2.569803, -0.693830, 62.286972, 147.477203, -573.672302, , 
1759229679.298802, 2.265813, 9.862016, -1.778892, -0.202834, 0.068877, -0.318187, 62.073532, 147.066635, -573.167114, , 
1759229679.318895, 2.262969, 7.357232, -1.251419, -0.122567, 2.096452, 0.068530, 62.191666, 147.055237, -574.990051, , 
1759229679.338950, 0.909647, 7.939622, 0.689680, -0.071942, 2.618340, 0.409339, 62.468536, 147.506439, -576.399414, , 
1759229679.358849, -0.708833, 9.361927, 1.414225, -0.265783, 2.001631, 0.648348, 62.706848, 148.093414, -577.415649, , 
1759229679.378040, -2.096124, 10.509647, 1.473033, -0.473511, 1.235051, 0.580085, 62.868652, 148.511993, -578.844238, , 
1759229679.398890, -1.910274, 11.153688, 0.078859, -0.757564, -0.063195, 0.019217, 62.876755, 148.526154, -578.347290, , 
1759229679.417981, 0.358382, 11.236886, -3.402460, -0.399193, -0.698446, -0.230047, 62.492584, 148.687958, -578.165649, , 
1759229679.437967, 1.554136, 10.434978, -2.876484, 0.084441, 0.205830, -0.027724, 62.272354, 148.577087, -577.858459, , 
1759229679.458865, 0.747440, 9.309255, 0.533458, 0.320572, 0.831931, 0.035495, 62.329300, 148.788712, -578.878784, , 
1759229679.478890, -0.412401, 8.805724, 1.832761, 0.229507, 0.783797, 0.033474, 62.758759, 148.646713, -579.430054, , 
1759229679.498893, 0.067337, 9.063400, 1.908777, -0.066384, 0.250140, -0.048722, 62.755203, 148.506683, -579.054199, , 
1759229679.518459, 0.584335, 9.381081, 0.882114, -0.389300, -0.222409, -0.112059, 62.502823, 148.639618, -579.202881, , 
1759229679.538531, 1.274763, 9.531167, 0.008978, -0.465884, -0.081366, -0.052042, 62.288300, 148.648361, -578.928162, , 
1759229679.558425, 1.505953, 9.431209, 0.079308, -0.462121, 0.080583, 0.130338, 62.462662, 148.867538, -579.039734, , 
1759229679.578895, 1.042525, 9.756521, -0.170587, -0.467112, 0.282348, 0.216862, 62.553467, 148.997650, -579.576904, , 
1759229679.598886, 0.476745, 9.881469, -0.171634, -0.417628, 0.066402, 0.220417, 62.578384, 148.968048, -578.670105, , 
1759229679.618893, 0.383671, 9.783905, -0.482132, -0.333794, -0.519190, 0.171491, 62.520294, 149.381104, -578.952209, , 
1759229679.638944, 0.137966, 10.080337, -1.000926, -0.231064, -0.646548, 0.140215, 62.620392, 149.530167, -577.810303, , 
1759229679.658413, -0.105195, 10.270227, -0.635661, -0.130945, -0.411321, 0.165270, 62.440155, 149.863525, -577.665833, , 
1759229679.678898, -0.424672, 9.900473, 0.238223, -0.122638, -0.138013, 0.199546, 62.494049, 149.858749, -577.506775, , 
1759229679.698892, -0.796222, 9.417892, 0.657059, -0.247367, 0.075812, 0.159007, 62.450378, 149.969437, -576.623535, , 
1759229679.718887, -0.976834, 9.346365, 0.372598, -0.402299, -0.034258, 0.111731, 62.611191, 150.170761, -577.029297, , 
1759229679.738889, -1.403750, 10.084527, 0.317082, -0.340662, -0.352955, 0.033170, 62.650757, 150.320816, -577.027466, , 
1759229679.758863, -1.094300, 10.049063, 1.370980, -0.311118, -0.717722, -0.130646, 62.503860, 150.204468, -576.734741, , 
1759229679.778888, -0.187346, 9.206005, 0.411503, -0.358748, -1.067059, -0.254184, 62.327652, 150.337265, -575.971252, , 
1759229679.798890, 0.848894, 9.571120, -0.339827, -0.388105, -0.791106, -0.282405, 61.846390, 150.115005, -574.826599, , 
1759229679.818887, 1.544859, 10.142886, -0.373196, -0.415491, -0.615527, -0.135532, 62.137314, 149.902695, -574.350342, , 
1759229679.838890, 1.552939, 9.728838, -0.559196, -0.283231, -0.545595, 0.074126, 61.926285, 150.101944, -573.790527, , 
1759229679.858416, 0.343718, 9.807697, -0.011821, -0.201375, -0.413792, 0.209342, 61.892746, 150.284744, -573.646851, , 
1759229679.878875, -0.611120, 9.654020, 1.019780, -0.196117, -0.480244, 0.200079, 62.259537, 150.412704, -573.073608, , 
1759229679.898873, -0.977732, 9.640403, 1.470788, -0.216937, -0.550153, 0.157161, 62.292908, 150.400253, -572.195801, , 
1759229679.918868, -0.866551, 9.868450, 1.892018, -0.240765, -0.545286, 0.109148, 62.341476, 150.714157, -572.203247, , 
1759229679.938864, -1.019032, 10.359711, 1.740285, -0.280360, -0.579460, 0.076929, 62.470535, 150.628296, -571.202698, , 
1759229679.958868, -1.341800, 10.457873, 1.263690, -0.291080, -0.555456, 0.082917, 62.290070, 150.962372, -570.986206, , 
1759229679.978891, -1.428141, 10.330232, 1.151910, -0.274052, -0.547882, 0.071559, 62.306946, 150.992691, -570.700195, , 
1759229679.998889, -1.287033, 9.950601, 0.900818, -0.182789, -0.614537, -0.014611, 62.247437, 150.745712, -569.477661, , 
1759229680.018888, -0.674267, 10.535086, 0.968006, -0.091726, -0.654313, -0.102042, 62.078018, 150.824631, -569.511292, , 
1759229680.038951, 0.267552, 10.533141, 1.077840, -0.050039, -0.715668, -0.133796, 62.006577, 150.738144, -568.585693, , 
1759229680.058403, 0.901118, 10.320057, 1.099088, 0.001691, -0.811796, -0.150089, 62.086121, 150.754227, -568.384216, , 
1759229680.078883, 1.197101, 10.231172, 1.218499, -0.008880, -0.927373, -0.142747, 61.979614, 150.819962, -567.567322, , 
1759229680.098889, 0.950648, 9.627085, 1.014094, -0.030912, -0.987791, -0.099116, 62.150162, 150.806473, -566.369629, , 
1759229680.118888, 0.336535, 9.011027, 1.060033, 0.024631, -0.931623, -0.044295, 62.204910, 150.904083, -566.151245, , 
1759229680.138884, -0.121955, 9.025392, 1.530344, 0.039909, -0.843688, 0.000739, 62.640533, 150.779633, -565.420471, , 
1759229680.158859, -0.512359, 9.256433, 1.723376, -0.014498, -0.836336, 0.019304, 62.505646, 151.002075, -564.898926, , 
1759229680.178884, -0.842909, 9.530120, 1.745373, -0.091655, -0.897255, -0.001439, 62.585129, 150.993729, -564.388977, , 
1759229680.198862, -0.773477, 9.389311, 1.663970, -0.188970, -0.935175, -0.051466, 62.823685, 150.940796, -563.018250, , 
1759229680.218946, -0.434548, 8.924237, 1.231218, -0.228242, -0.872158, -0.027693, 62.954926, 150.972656, -562.689819, , 
1759229680.238882, -0.428412, 8.624363, 1.053449, -0.242801, -0.741725, 0.036346, 63.120941, 150.801590, -561.858948, , 
1759229680.258856, -0.617554, 8.783428, 1.073201, -0.253133, -0.629109, 0.101472, 63.080597, 151.264099, -561.209778, , 
1759229680.278888, -0.453701, 9.318083, 1.156399, -0.269090, -0.640170, 0.166113, 63.326279, 151.247925, -560.914124, , 
1759229680.298885, -0.337732, 9.916035, 1.014244, -0.298368, -0.616827, 0.264894, 63.471176, 151.510895, -559.671265, , 
1759229680.318879, -0.390554, 9.927557, 0.928501, -0.271054, -0.553021, 0.360148, 63.449188, 151.627029, -559.361389, , 
1759229680.338881, -0.515502, 9.340679, 0.882563, -0.210469, -0.478138, 0.401239, 63.994049, 151.791824, -558.767700, , 
1759229680.358415, -0.970699, 9.593267, 0.874632, -0.166913, -0.476606, 0.424487, 63.748169, 152.278015, -558.711975, , 
1759229680.378884, -1.253065, 10.562619, 1.067664, -0.193671, -0.606965, 0.396390, 63.918304, 152.480453, -558.023560, , 
1759229680.398719, -1.116297, 10.868628, 0.789638, -0.273452, -0.728029, 0.350104, 64.396133, 152.762177, -556.588257, , 
1759229680.418886, -1.102829, 10.878654, 0.047285, -0.264750, -0.708992, 0.374990, 64.333221, 153.169693, -556.739136, , 
1759229680.438891, -1.944840, 9.952846, -0.839317, -0.077543, -0.538355, 0.384466, 64.620865, 153.272217, -555.248840, , 
1759229680.458856, -2.801066, 8.926631, -0.672771, 0.057994, 0.179170, 0.318928, 64.517593, 153.888046, -556.155518, , 
1759229680.478888, -3.922151, 9.267057, -0.130035, 0.044186, 0.357011, 0.139433, 64.232651, 153.976944, -556.086792, , 
1759229680.498879, -5.071817, 10.109068, -0.881365, 0.313824, 0.145956, -0.187894, 63.745346, 154.070465, -555.525452, , 
1759229680.518883, -5.413589, 11.246463, -0.646883, 0.742559, 0.022773, -0.752665, 62.621872, 154.236359, -556.423889, , 
1759229680.538882, -3.648015, 10.700435, -0.951845, 1.023941, -0.419319, -1.506351, 62.055374, 153.565125, -556.137573, , 
1759229680.558859, -0.563834, 11.922675, -2.167052, 1.603890, -1.421232, -2.036994, 61.285294, 152.971786, -556.163513, , 
1759229680.578877, 0.803105, 13.131448, -2.835633, 1.972368, -2.480319, -2.251635, 61.089233, 152.038483, -555.589722, , 
1759229680.598882, 3.252523, 15.924883, -2.070984, 1.908192, -3.069384, -2.188297, 61.235855, 151.218750, -553.078979, , 
1759229680.618876, 4.782268, 16.991051, 0.171485, 1.470013, -3.012194, -1.605599, 61.666168, 150.839355, -552.102539, , 
1759229680.638878, 4.471621, 13.815292, 1.908029, 0.898605, -1.881679, -0.983788, 61.726135, 150.514679, -551.408936, , 
1759229680.658858, 0.882862, 10.148273, 0.339528, 0.748648, -0.710014, -1.277599, 62.016159, 150.139755, -551.887085, , 
1759229680.678881, -0.505476, 9.556606, -0.205153, 1.029508, -0.885303, -1.510854, 61.744965, 149.376648, -551.935120, , 
1759229680.698879, -0.737264, 10.440066, -0.722600, 0.690044, -1.164026, -1.384939, 62.027847, 148.931030, -551.337036, , 
1759229680.718911, -1.518971, 10.314520, -1.372027, 0.449707, -0.669550, -1.363326, 61.578674, 147.979218, -551.537781, , 
1759229680.738877, -0.601693, 9.746795, -0.996287, 0.645393, 0.084357, -1.281365, 61.354263, 146.980316, -551.559998, , 
1759229680.758855, 0.568324, 8.221838, 0.043245, 1.028621, 0.639000, -1.047110, 61.074127, 146.517197, -553.243652, , 
1759229680.778877, 1.799542, 6.276400, 0.815824, 1.044937, 0.444103, -0.809426, 60.517212, 146.291412, -554.662170, , 
1759229680.798877, 2.491167, 4.856488, 0.557699, 0.689145, -0.380667, -0.597778, 60.496994, 145.866165, -553.978394, , 
1759229680.818883, 2.524237, 4.811747, 0.051176, 0.289982, -1.226937, -0.285767, 60.873550, 145.814667, -553.748413, , 
1759229680.838898, 2.331354, 6.136638, -0.383072, -0.007999, -1.518715, 0.154751, 61.484741, 145.719696, -551.708252, , 
1759229680.858855, 1.637784, 7.403320, -0.708235, -0.113031, -1.136960, 0.551221, 61.839828, 146.058090, -552.487793, , 
1759229680.878876, 1.042974, 6.979846, 0.082301, -0.090789, -0.845059, 0.937154, 62.150284, 146.791412, -551.452881, , 
1759229680.898874, 0.601543, 5.902605, 0.612167, -0.201750, -1.041255, 1.191408, 62.753036, 147.229538, -550.676819, , 
1759229680.918879, 0.699257, 5.576096, 0.685640, -0.523076, -1.277934, 1.372536, 63.260834, 148.092743, -550.073181, , 
1759229680.938887, 0.765396, 7.391649, 0.034267, -1.047234, -1.410474, 1.634997, 64.094955, 148.458069, -548.118286, , 
1759229680.958856, -3.305345, 11.784709, -1.032200, -1.513221, -1.757837, 1.970301, 64.997406, 149.052292, -547.047424, , 
1759229680.978874, -16.266954, 16.713323, -1.138593, -1.211584, -2.567025, 0.751933, 66.515991, 149.153259, -545.076233, , 
1759229680.998857, -18.492814, 15.882236, -0.487519, -0.688626, -2.360250, -1.214769, 68.051422, 147.931808, -542.670288, , 
1759229681.018873, -10.628460, 20.475063, -4.822072, 0.270031, -2.835488, -1.481494, 69.706024, 147.264191, -541.269775, , 
1759229681.038870, -3.420566, 16.963068, -5.230283, 0.639116, -3.295259, 0.048067, 71.036499, 146.829025, -540.280151, , 
1759229681.058843, 1.070657, 10.994623, -5.199308, 0.800745, -3.297548, 0.080032, 72.164124, 147.522263, -540.732178, , 
1759229681.078892, 6.610540, 6.768109, -3.306243, 0.379803, -1.223982, -0.456895, 73.334274, 147.441162, -541.313599, , 
1759229681.098877, 9.427169, 5.262006, 3.268085, 0.039687, -0.737647, -0.252624, 74.020676, 147.242889, -540.799927, , 
1759229681.118872, 8.012794, 4.132392, 2.629432, -0.469299, -1.066889, 0.532760, 74.974075, 147.276260, -540.577087, , 
1759229681.138870, 4.784962, 5.532401, 0.920271, -0.314006, -1.120624, 1.414516, 76.037888, 147.430878, -539.214722, , 
1759229681.158847, 0.643442, 10.236708, -0.020351, 0.639830, -0.019227, 1.959880, 76.819382, 148.399979, -539.538452, , 
1759229681.178872, -2.013823, 14.536545, 2.956689, 1.220394, 1.425768, 2.130997, 76.443726, 149.871979, -540.230347, , 
1759229681.198868, -4.139575, 14.974684, 4.945074, -0.125276, 2.341544, 1.622559, 75.220352, 150.694336, -540.486328, , 
1759229681.218868, -3.774459, 11.283872, 3.509301, -1.562486, 1.522759, 0.853915, 74.462845, 150.300171, -541.940063, , 
1759229681.238869, -2.729240, 8.402301, 1.769315, -1.431223, -0.084751, 0.300186, 74.405243, 149.411896, -541.297974, , 
1759229681.258843, -2.167650, 7.111078, 0.640000, -0.807395, -1.648978, -0.101938, 75.128571, 148.937454, -541.473511, , 
1759229681.278868, -1.351078, 8.451233, -0.382623, -0.225761, -2.819043, -0.318408, 76.629471, 148.550919, -540.445679, , 
1759229681.298868, -0.450559, 9.603592, -1.446846, -0.267246, -3.099359, -0.556760, 78.736649, 148.051132, -538.443176, , 
1759229681.318869, 0.616357, 10.683227, -1.776498, 0.058137, -1.870236, -0.507933, 80.274445, 147.770813, -538.593567, , 
1759229681.338867, 1.646612, 10.422558, 1.852962, 0.151246, -0.731029, -0.250478, 81.016663, 147.616150, -537.677490, , 
1759229681.358842, 1.497124, 9.450513, 3.218555, -0.022472, -1.012061, 0.059718, 81.494598, 147.758224, -538.510498, , 
1759229681.378868, -0.038607, 8.238149, 2.573318, -0.188352, -1.663406, 0.255930, 82.839111, 147.592834, -537.987671, , 
1759229681.398848, -0.628328, 8.956559, 1.204283, -0.448819, -1.746703, 0.317935, 84.224655, 147.258331, -537.048706, , 
1759229681.418868, -0.325611, 9.990704, -0.250194, -0.504525, -1.425802, 0.427131, 85.368240, 147.257874, -537.269043, , 
1759229681.438866, -0.372448, 10.458322, -0.866102, -0.322414, -0.788876, 0.606204, 86.279221, 146.958359, -536.487671, , 
1759229681.458085, -1.011550, 10.025121, -0.201711, -0.161597, -0.634633, 0.768260, 86.812042, 146.928558, -536.667053, , 
1759229681.478871, -2.383727, 10.028563, 0.205452, -0.198135, -0.346000, 0.793033, 87.406784, 146.925430, -536.612915, , 
1759229681.498860, -2.939780, 9.679608, 0.559944, -0.078425, 0.227931, 0.738229, 87.552521, 146.880630, -536.300293, , 
1759229681.518864, -2.975244, 9.858275, 1.675492, 0.093491, 0.241258, 0.607716, 87.311905, 146.979614, -537.075317, , 
1759229681.538900, -2.366519, 9.747992, 1.199794, 0.102582, -0.698270, 0.093276, 87.461487, 146.803345, -536.501038, , 
1759229681.558427, 0.330101, 9.990704, -0.569072, 0.269195, -1.005710, -0.292192, 88.287567, 147.002075, -537.410034, , 
1759229681.578183, 0.314688, 11.680711, -1.384896, 0.631607, -0.938334, -0.258745, 88.655945, 147.063629, -536.970337, , 
1759229681.598859, -0.685490, 12.696152, -0.849193, 1.019319, -0.806952, -0.677070, 89.351578, 147.556122, -536.812378, , 
1759229681.618861, 0.002993, 13.079075, -1.186626, 1.437631, -1.320373, -1.065388, 90.210281, 148.319031, -537.545044, , 
1759229681.638901, 1.141436, 11.967118, -2.168399, 2.281364, -2.497533, -1.311514, 91.356461, 149.315613, -537.484253, , 
1759229681.658423, 1.622221, 11.065102, -1.590947, 2.793985, -3.523633, -1.648283, 93.310654, 151.242569, -538.778748, , 
1759229681.678857, 3.281403, 11.926267, 0.911443, 2.631767, -4.656731, -1.827714, 95.690979, 152.943985, -539.308594, , 
1759229681.698555, 4.892551, 13.066206, 2.040758, 1.708400, -5.398385, -1.551118, 98.894440, 154.343292, -539.278687, , 
1759229681.718860, 4.219481, 11.951555, 0.606332, 0.553886, -3.395087, -1.106659, 101.717102, 155.357544, -540.921570, , 
1759229681.738857, -0.956035, 8.716690, -3.155408, 0.404221, -1.387479, -1.056650, 102.882935, 155.520355, -540.391602, , 
1759229681.758835, -3.498976, 9.691279, -1.171064, 0.773448, -0.380829, -1.179728, 103.308655, 156.203247, -541.381714, , 
1759229681.778857, -2.061707, 10.719140, 0.256329, 1.017984, -0.312151, -0.797649, 103.252396, 156.838531, -541.608887, , 
1759229681.798856, -0.396689, 9.541791, 0.047136, 1.063850, -0.514750, -0.516909, 103.192474, 157.405457, -542.048279, , 
1759229681.818858, 1.550694, 7.490709, -0.398186, 0.821190, -0.434233, -0.369556, 103.086960, 158.192230, -543.263916, , 
1759229681.838859, 3.147627, 6.174796, 0.377985, 0.425521, -0.538528, -0.224764, 103.087021, 158.523926, -542.786316, , 
1759229681.858837, 3.434033, 5.245247, 0.371101, 0.144764, -0.849451, -0.030785, 103.544037, 158.960464, -544.126831, , 
1759229681.878842, 2.499995, 5.419724, 0.202310, -0.146419, -1.310676, 0.172666, 104.307556, 159.026184, -544.097717, , 
1759229681.898840, 1.224036, 6.754641, 0.031424, -0.374747, -1.715198, 0.396819, 105.714554, 158.699997, -543.512573, , 
1759229681.918848, 0.337582, 8.262540, -0.119112, -0.432447, -1.924579, 0.669738, 106.983719, 158.549240, -544.126587, , 
1759229681.938840, 0.250194, 8.524405, -0.377685, -0.444812, -1.929226, 0.969560, 108.560989, 157.920349, -543.869141, , 
1759229681.958836, 0.286706, 8.066215, -0.444274, -0.460675, -1.599776, 1.217028, 109.867050, 157.495911, -544.886719, , 
1759229681.978863, 0.400281, 7.126192, -0.063147, -0.504605, -1.393113, 1.311044, 111.144928, 156.786972, -544.880554, , 
1759229681.998861, 0.122404, 7.588123, 1.366790, -0.776927, -1.105340, 1.508727, 112.150253, 155.940094, -544.420776, , 
1759229682.018862, -0.457442, 9.889250, -0.689530, -0.687410, -0.799236, 1.728881, 113.333115, 155.199478, -544.428467, , 
1759229682.038860, -3.189376, 12.338818, 0.180014, -0.457221, -0.554790, 1.907882, 114.322311, 154.049072, -543.359375, , 
1759229682.058835, -10.381109, 14.213477, -0.388908, -1.135092, -2.171943, 0.935099, 115.718140, 153.283798, -544.965454, , 
1759229682.078860, -14.714314, 13.302035, -2.018013, -1.226261, -3.196361, -1.002693, 117.876785, 152.885727, -544.684143, , 
1759229682.098841, -15.922040, 13.894151, -5.890784, -0.667753, -2.887288, -2.368122, 119.396683, 153.476944, -545.234009, , 
1759229682.118851, -3.422362, 7.928997, -4.430021, 0.056583, -2.774341, -0.890470, 119.898544, 154.141815, -549.168091, , 
1759229682.138858, 0.901118, 9.428665, -6.335656, 0.744705, -2.565912, 0.033012, 120.344299, 154.354630, -550.609741, , 
1759229682.158849, 2.392406, 14.118009, -2.553416, 0.874682, -0.850609, 0.498782, 120.487259, 154.461075, -550.285034, , 
1759229682.178857, 3.566463, 14.788834, -1.690755, 0.803891, 0.842976, 0.577642, 120.078964, 154.194290, -550.810913, , 
1759229682.198856, 5.497087, 13.658920, -1.230620, 0.078593, 2.232872, 1.073546, 119.129822, 153.610641, -548.854065, , 
1759229682.218849, 4.782867, 8.146122, 0.749984, -0.155888, 1.690943, 1.231710, 119.006180, 153.113647, -549.684265, , 
1759229682.238848, 2.362329, 5.153669, 2.026841, -0.222841, 0.002609, 0.774071, 119.668716, 152.773605, -549.528198, , 
1759229682.258838, 0.803105, 5.927295, 0.482581, 0.019488, -1.128694, 0.557944, 120.629654, 152.444382, -549.598999, , 
1759229682.278882, -0.451307, 7.274333, 1.766472, 0.670978, -0.921802, 0.458119, 120.964005, 152.761719, -550.469849, , 
1759229682.298861, -0.890344, 10.084677, 4.921880, 0.517169, -0.608595, 0.239205, 121.453110, 152.666687, -549.756653, , 
1759229682.318861, -1.042525, 12.248287, 3.114258, -0.155235, 0.008559, 0.374065, 121.281784, 152.380203, -550.418335, , 
1759229682.338863, -2.145803, 11.361385, 2.236334, -0.857692, -0.007726, 0.264999, 121.572815, 151.790970, -550.224365, , 
1759229682.358838, -3.058144, 10.011205, 0.662895, -1.191968, -0.669733, 0.116605, 121.978622, 151.241745, -549.979126, , 
1759229682.378859, -3.351134, 9.851841, -0.141258, -0.682682, -1.492566, -0.327793, 122.658783, 151.301453, -551.050903, , 
1759229682.398860, -1.907131, 10.897957, -0.604386, -0.251715, -1.885743, -0.606789, 123.017075, 151.321747, -551.443909, , 
1759229682.418863, 0.263362, 10.826879, -1.549048, -0.196156, -1.582509, -0.494094, 123.595505, 151.636215, -552.999329, , 
1759229682.438871, 1.717690, 9.679308, -2.158971, -0.118342, -0.658846, -0.337184, 123.759384, 151.696854, -553.167297, , 
1759229682.458844, 2.913743, 9.437494, -1.417367, 0.141965, -0.123434, 0.042804, 123.611481, 151.702164, -553.161194, , 
1759229682.478874, 1.438466, 9.365818, 0.259172, 0.260685, -0.029670, 0.273999, 123.958313, 151.658142, -553.482361, , 
1759229682.498872, 0.117615, 9.257031, 1.719635, 0.132045, -0.164659, 0.324851, 123.908432, 151.472549, -552.745605, , 
1759229682.518866, -0.315735, 9.200917, 2.391807, -0.081287, -0.579610, 0.316574, 124.288559, 151.338913, -554.080872, , 
1759229682.538867, -0.410456, 9.326762, 1.407192, -0.311398, -0.914363, 0.319311, 125.182404, 150.983490, -554.397217, , 
1759229682.558842, -0.783054, 9.887005, 0.640299, -0.518811, -0.685230, 0.327233, 125.324722, 150.560059, -554.607178, , 
1759229682.578871, -1.044919, 10.187927, 0.213084, -0.576041, -0.416832, 0.275925, 125.806168, 150.307693, -554.805664, , 
1759229682.598868, -1.206079, 10.567856, -0.845004, -0.430166, -0.621403, 0.234800, 125.879623, 149.884613, -554.235413, , 
1759229682.618893, -0.857274, 10.670957, -2.019060, 0.036379, -0.671824, 0.307309, 125.958405, 150.056305, -555.642334, , 
1759229682.638868, -1.203984, 10.033800, -0.210091, 0.266552, -0.077271, 0.344659, 126.224030, 149.851364, -555.687439, , 
1759229682.658844, -1.214908, 9.166500, 2.108095, 0.099751, 0.191825, 0.300454, 125.975922, 149.658463, -555.080627, , 
1759229682.678866, -0.932093, 9.379734, 1.806425, -0.013955, 0.225556, 0.216416, 126.366379, 149.494705, -555.715881, , 
1759229682.698869, -1.144728, 10.270227, 1.113154, -0.017245, 0.297409, 0.207010, 126.074631, 149.121414, -554.789124, , 
1759229682.718869, -0.041300, 10.273070, 0.910096, -0.064360, 0.152734, 0.004244, 126.046646, 149.313461, -555.520996, , 
1759229682.738865, 1.165527, 10.143484, 0.889147, 0.008986, -0.260452, -0.026347, 126.250427, 149.283249, -555.886597, , 
1759229682.758842, 0.480786, 9.806800, 0.229694, 0.105280, -0.520505, 0.055041, 126.482254, 149.195038, -555.264832, , 
1759229682.778871, -0.355689, 9.619004, 0.036063, 0.134629, -0.536903, 0.046417, 126.847397, 149.394165, -555.880615, , 
1759229682.798865, -0.495749, 9.666140, -0.024241, 0.147316, -0.734485, 0.020296, 126.906876, 149.258820, -555.839478, , 
1759229682.818910, -0.401029, 9.705645, 0.443077, 0.223322, -0.533793, 0.009504, 127.035889, 149.534561, -557.307373, , 
1759229682.838870, -0.064943, 9.728689, 1.559673, 0.261460, -0.327601, -0.007678, 127.129486, 149.721008, -557.463745, , 
1759229682.858839, 0.439336, 9.895984, 2.201917, 0.159762, -0.354893, -0.048010, 127.152695, 149.595535, -557.287109, , 
1759229682.878868, 0.653318, 10.194211, 1.247229, 0.025595, -0.324741, -0.043304, 127.216141, 149.712372, -557.943420, , 
1759229682.898865, 1.090559, 10.017040, 0.518045, -0.065077, 0.066740, 0.022773, 127.456207, 149.507904, -557.189087, , 
1759229682.918843, 1.503259, 9.513809, 0.371700, -0.044199, 0.135698, 0.141085, 127.312164, 149.498978, -557.789551, , 
1759229682.938868, 1.515230, 9.084499, 0.125696, 0.044573, 0.006132, 0.212089, 127.439682, 149.367065, -557.279297, , 
1759229682.958836, 1.287183, 9.183559, 0.065392, 0.112086, -0.134090, 0.257803, 127.382568, 149.354675, -557.238647, , 
1759229682.978866, 0.487819, 9.538051, 0.217872, 0.128294, -0.103430, 0.308334, 127.674988, 149.152695, -558.001770, , 
1759229682.998867, -0.256778, 9.783755, 0.718709, 0.113523, 0.083234, 0.322748, 127.712982, 148.790314, -556.996216, , 
1759229683.018868, -0.437989, 9.748591, 1.148169, 0.057015, 0.094012, 0.306912, 127.749313, 148.705704, -557.887329, , 
1759229683.038868, -0.077363, 9.795128, 0.779612, -0.035320, 0.015516, 0.261343, 127.816132, 148.618057, -557.914673, , 
1759229683.058840, 0.521786, 10.017040, -0.019004, -0.067216, -0.012480, 0.234474, 127.869843, 148.360611, -557.400024, , 
1759229683.078865, 0.672172, 10.215610, -0.537349, -0.027630, 0.058245, 0.228051, 127.771072, 148.278915, -557.725769, , 
1759229683.098867, 0.209792, 10.373777, -0.632069, 0.039379, 0.154974, 0.204930, 127.801117, 148.048218, -557.026855, , 
1759229683.118867, -0.105644, 10.246136, -0.702549, 0.136210, 0.135748, 0.161793, 127.987823, 148.078827, -557.769226, , 
1759229683.138869, -0.101305, 9.904812, -0.819715, 0.264444, 0.121369, 0.124321, 127.789001, 148.132507, -557.593567, , 
1759229683.158838, -0.069133, 9.897779, -0.850839, 0.342866, 0.150098, 0.083059, 127.784164, 147.988586, -557.131470, , 
1759229683.178856, -0.271143, 10.232668, -0.969652, 0.416375, 0.182487, 0.054669, 127.913742, 148.399536, -557.575562, , 
1759229683.198862, -0.895581, 10.616638, -1.465102, 0.482396, 0.155956, -0.009528, 127.668396, 148.427567, -556.261597, , 
1759229683.218856, -1.331176, 10.434080, -1.799542, 0.687212, -0.045156, -0.182116, 127.704269, 148.798813, -557.717896, , 
1759229683.238907, -1.602918, 10.015394, -1.470788, 0.922921, -0.437120, -0.391585, 127.650864, 149.400070, -558.198730, , 
1759229683.258831, -1.900248, 9.724798, -1.106121, 1.104167, -0.846508, -0.627641, 127.775314, 149.940918, -558.297974, , 
1759229683.278861, -2.258331, 9.778967, -0.563685, 1.063348, -1.117454, -1.056231, 127.785660, 151.118149, -559.796875, , 
1759229683.298853, -2.655319, 9.814730, -0.879420, 0.833474, -1.437554, -1.494159, 127.838654, 152.035736, -560.173767, , 
1759229683.318853, -1.018134, 10.545112, -2.960430, 0.604260, -1.516208, -1.826045, 127.813156, 153.433441, -562.027588, , 
1759229683.337842, 0.587028, 11.691186, -2.446874, 0.453616, -0.007343, -1.802957, 127.105148, 154.478241, -562.335388, , 
1759229683.358833, 1.666215, 11.902774, 1.109413, 0.528949, 1.272906, -1.521673, 126.225708, 155.767059, -561.391296, , 
1759229683.378876, 1.490839, 10.937162, 2.728492, 0.687212, 0.980475, -1.189070, 125.792938, 156.575317, -561.333984, , 
1759229683.398861, 0.838419, 9.921422, 0.563535, 0.695722, 0.135426, -1.044474, 125.352036, 157.364273, -561.037231, , 
1759229683.418784, 0.601394, 9.287408, -0.938228, 0.410254, -0.302036, -0.952527, 125.150314, 158.099274, -561.626831, , 
1759229683.438852, 0.766893, 8.162282, -1.398812, 0.205357, -0.113083, -0.804896, 124.783569, 158.525253, -561.522461, , 
1759229683.458840, 0.656311, 7.008277, -0.737414, 0.052218, -0.044941, -0.523950, 124.984772, 158.824936, -562.273804, , 
1759229683.478862, 0.278924, 6.533327, -0.386963, -0.103917, -0.171229, -0.255198, 124.833206, 159.280869, -562.308594, , 
1759229683.498377, 0.129137, 6.594679, -0.226701, -0.184037, -0.330350, -0.027299, 124.971588, 158.849548, -561.632935, , 
1759229683.518856, 0.050129, 6.527342, -0.654964, -0.240883, -0.461650, 0.189038, 124.985748, 159.019501, -562.592896, , 
1759229683.538856, 0.265906, 6.532280, -1.026364, -0.311650, -0.482706, 0.413735, 125.096130, 158.603302, -562.809509, , 
1759229683.558827, 0.709731, 6.515521, -1.065569, -0.448363, -0.416298, 0.661243, 125.404053, 158.098587, -562.436523, , 
1759229683.578855, 1.233612, 6.836643, -1.906084, -0.541127, -0.201206, 0.973042, 125.732666, 157.616013, -562.369263, , 
1759229683.598689, -1.137246, 8.119336, -2.231246, -0.465869, 0.206128, 1.222272, 126.374756, 156.733154, -561.750671, , 
1759229683.618562, -5.131073, 10.027066, -2.134281, -0.125528, 0.430876, 1.017940, 126.732849, 156.245697, -561.965149, , 
1759229683.638853, -7.814076, 9.532514, -0.737115, -0.104510, -0.106992, 0.389466, 127.063049, 155.725174, -561.049011, , 
1759229683.658826, -7.431602, 7.953837, -0.871340, -0.119174, -0.666998, -0.150032, 127.055817, 156.034241, -561.454102, , 
1759229683.678217, -4.665102, 5.523274, -2.273145, -0.036577, -0.423744, -0.259482, 126.967133, 155.987091, -562.610107, , 
1759229683.698849, -1.965490, 3.595193, -2.070536, 0.168673, -0.385483, -0.226847, 126.859497, 156.072311, -562.156860, , 
1759229683.718846, -0.318728, 2.850447, -2.298434, 0.115363, -0.165023, -0.269004, 126.667358, 156.466873, -563.598999, , 
1759229683.738848, 0.878971, 4.679766, -2.715923, -0.077226, 0.562416, -0.282932, 126.207809, 156.523941, -562.996338, , 
1759229683.758825, 1.372326, 7.224055, -2.864513, -0.042267, 0.933070, -0.017698, 126.133560, 156.498123, -561.849915, , 
1759229683.778850, 0.711976, 10.121637, -2.320730, -0.037276, 1.167458, 0.187784, 125.702713, 156.566086, -561.479919, , 
1759229683.798846, 0.439486, 12.148927, -1.337910, -0.132877, 0.999234, 0.204374, 125.577911, 156.129715, -560.171021, , 
1759229683.818897, -0.408062, 10.714052, -1.538125, -0.074731, 0.347023, 0.308223, 125.546646, 156.127640, -560.156494, , 
1759229683.838836, -2.530522, 11.971308, -1.356914, 0.053947, -0.711680, 0.261355, 125.652008, 155.978394, -560.180298, , 
1759229683.858378, -3.428497, 12.262203, -0.317082, 0.064585, -0.928790, 0.093220, 126.279694, 156.076416, -560.418579, , 
1759229683.878825, -0.768090, 12.190078, 2.288258, -0.588466, 0.092182, 0.034552, 126.151886, 155.761703, -561.237000, , 
1759229683.898683, 0.455647, 19.540127, 2.161216, -1.378527, -0.003622, 0.093930, 125.983841, 155.282471, -559.356873, , 
1759229683.918608, -0.081104, 24.030303, 0.398934, -1.418247, -0.080712, 0.148074, 126.051712, 155.014694, -559.327148, , 
1759229683.938828, -6.012289, 27.948713, -0.934636, 0.060831, -1.739471, 0.003602, 127.520416, 155.415970, -560.762451, , 
1759229683.958824, -10.957064, 10.052505, -10.182839, -0.266761, -4.908299, -0.858333, 127.623520, 155.907990, -563.681030, , 
1759229683.978856, 1.178546, 10.477176, -8.068460, 1.282665, 0.908411, -0.631539, 126.868164, 156.478943, -563.940674, , 
1759229683.998856, 0.256479, 12.138602, 1.963545, 1.554278, 4.386982, -0.342181, 125.590836, 156.768219, -560.954041, , 
1759229684.018854, 3.145382, 11.413010, 9.274389, 0.462410, 4.026192, -0.078281, 124.777435, 156.382446, -559.869324, , 
1759229684.038847, 2.450316, 10.022727, 19.042881, -1.470123, -2.784504, 0.433143, 125.870300, 156.278046, -561.061951, , 
1759229684.058374, -0.166846, 5.317223, -0.532261, -1.920191, -2.223139, 0.323179, 126.571976, 155.674164, -561.271545, , 
1759229684.078363, -0.807295, 7.641843, -4.895693, -1.820671, 0.035385, 0.359997, 126.745987, 154.806641, -560.524841, , 
1759229684.098848, -2.418593, 7.787440, -6.724415, -0.574023, -0.005098, 0.622303, 126.960602, 154.369339, -560.313721, , 
1759229684.118866, -1.263690, 6.708852, -4.256292, 0.063208, 0.337574, 0.401330, 126.943283, 154.054703, -560.649841, , 
1759229684.138863, -0.339977, 5.650017, -0.601394, 0.138579, 0.362642, 0.285740, 126.665619, 153.883057, -560.076416, , 
1759229684.158388, -1.029656, 6.923732, 0.914884, -0.027230, 0.598027, 0.193214, 126.675446, 153.810791, -559.894531, , 
1759229684.178318, -1.702577, 8.541165, 0.174777, 0.014427, 0.164394, 0.114557, 127.012527, 153.886444, -560.024536, , 
1759229684.198843, -2.848053, 7.973739, -0.221613, 0.043755, 0.062658, -0.006098, 126.976379, 153.794464, -559.729492, , 
1759229684.218843, -3.294272, 5.170278, -1.028010, -0.050227, -0.222636, -0.068639, 127.289124, 153.859924, -560.570801, , 
1759229684.238901, -3.121740, 4.293252, -4.472069, 0.299360, -1.182587, -0.035240, 127.362259, 154.044617, -560.481079, , 
1759229684.258820, -2.480543, 8.620622, -4.245967, 0.630958, 0.313917, 0.137084, 127.330521, 153.959808, -560.398071, , 
1759229684.278842, -3.718943, 8.520216, -1.084424, 0.875316, 0.794872, 0.209327, 127.201294, 154.219223, -560.630127, , 
1759229684.298400, -3.681534, 8.491485, -0.421529, 0.751982, 0.632147, 0.219163, 126.969238, 154.053009, -559.933899, , 
1759229684.318882, -2.948310, 8.093748, 0.155623, 0.663440, 0.870962, 0.372245, 127.072174, 153.981430, -560.260498, , 
1759229684.338844, -3.387197, 6.781875, 0.075268, 0.714592, 1.282835, 0.310112, 126.827667, 153.944901, -559.548462, , 
1759229684.358384, -4.891504, 6.844574, -0.709582, 0.846477, 0.960390, -0.022130, 126.581116, 154.329010, -559.009644, , 
1759229684.378327, -4.571429, 6.669348, -1.517026, 0.920477, 0.279101, -0.523739, 126.114792, 154.761124, -559.498291, , 
1759229684.398843, -2.325069, 9.758018, -3.229179, 1.129526, 0.149073, -0.887793, 125.562302, 155.574539, -558.919861, , 
1759229684.418480, -1.478719, 14.146141, -5.210980, 1.278582, 0.094921, -1.136346, 125.086853, 156.590912, -559.607605, , 
1759229684.438851, -0.793528, 14.468161, -4.327071, 1.762315, 0.432947, -1.415320, 124.388947, 158.005234, -559.229004, , 
1759229684.458825, -1.493982, 17.889176, -0.278326, 1.629586, 0.904870, -1.782556, 123.561005, 159.418350, -559.563232, , 
1759229684.478851, -0.460734, 24.369831, 5.338022, 0.827978, 0.223373, -1.835534, 122.782288, 160.570862, -559.476929, , 
1759229684.498855, -0.797568, 27.990013, 1.709909, -0.322834, -2.280517, -1.617440, 122.656082, 161.409729, -560.596863, , 
1759229684.518875, 1.799093, 15.191359, -8.951321, -0.336980, -2.251885, -1.299076, 122.663879, 161.860001, -562.406006, , 
1759229684.538843, 1.589750, 11.007941, -6.420351, -0.088280, -0.464687, -1.102809, 122.549835, 162.532272, -561.925659, , 
1759229684.558848, 0.240767, 8.225579, -1.269226, 0.183817, 0.042353, -0.633073, 121.982986, 163.044449, -562.740845, , 
1759229684.578840, -0.871040, 5.280412, -0.173131, 0.241100, -0.820755, -0.502878, 121.850830, 163.452652, -563.779724, , 
1759229684.598840, -1.006014, 4.802769, -2.062006, 0.075009, -1.077810, -0.716619, 122.010956, 163.678818, -563.356384, , 
1759229684.618844, -1.117793, 6.331017, -3.478775, -0.145732, -0.598580, -0.560425, 121.921539, 164.128113, -563.744507, , 
1759229684.638840, -0.369755, 6.981043, -2.588431, -0.018655, 0.340682, 0.003651, 121.783142, 164.189697, -564.088135, , 
1759229684.658815, 1.037886, 5.687875, 1.332672, 0.170858, 1.190747, 0.479180, 121.466248, 164.018707, -563.829163, , 
1759229684.677852, 2.913594, 3.625570, 2.198476, 0.298023, 0.662181, 1.017508, 121.942657, 163.268799, -563.868652, , 
1759229684.698839, 4.599261, 1.616685, 1.601721, 0.167855, -0.402678, 1.428462, 122.697250, 162.507004, -564.323853, , 
1759229684.718841, 3.881899, 0.163105, 0.150087, -0.272090, -1.232995, 1.648152, 123.525391, 161.776749, -564.442383, , 
1759229684.738841, 1.584812, 0.119112, -0.734272, -0.673265, -1.554181, 1.614111, 124.630051, 160.939926, -564.345703, , 
1759229684.758816, -1.509843, 2.914791, -1.205181, -0.721663, -0.716800, 1.689274, 125.887970, 159.792511, -564.218384, , 
1759229684.777865, -5.901557, 8.921992, -1.344494, -0.526147, 0.669697, 1.560344, 126.562729, 158.751740, -563.042847, , 
1759229684.798838, -8.294113, 12.717401, -2.340931, -1.384803, 0.860516, 1.333340, 127.282959, 157.448914, -561.200134, , 
1759229684.818871, -9.052028, 13.926921, -4.274697, -1.140590, 0.533919, 1.060624, 127.102356, 156.509491, -561.407471, , 
1759229684.838899, -7.565528, 8.161534, -2.984672, -0.660942, -0.047333, 0.481199, 127.163696, 156.009598, -560.881714, , 
1759229684.858814, -5.909488, 5.734861, -2.351854, -0.279728, -0.475905, -0.258054, 127.157776, 155.964325, -561.213867, , 
1759229684.878839, -5.029769, 8.797644, -1.648857, -0.063629, -1.749488, -0.665132, 127.161682, 156.302094, -561.970398, , 
1759229684.898837, -4.438700, 17.240497, -3.855712, 0.410944, -3.589447, -1.031039, 127.491470, 157.028275, -563.066406, , 
1759229684.918330, 0.925808, 14.965706, -0.277428, -1.026665, -0.417855, -0.943577, 126.913681, 157.183533, -564.208801, , 
1759229684.938849, 5.060744, 15.136442, -1.082179, -1.513813, 0.857637, -0.658305, 126.305511, 157.211975, -562.091309, , 
1759229684.958820, 1.680580, 22.486043, -1.931073, 0.111682, -0.342137, 0.318744, 126.772934, 157.087509, -562.264160, , 
1759229684.978848, -6.448932, 21.990892, 0.602591, 0.275934, 0.960658, 0.513726, 127.107925, 156.811600, -562.240845, , 
1759229684.998842, -13.915399, 10.004471, -7.812879, 0.061179, -3.657955, -1.054923, 127.887558, 157.333252, -563.320374, , 
1759229685.018848, -0.609923, 11.413159, -4.617218, 1.127619, 0.298700, 0.048475, 127.072556, 157.439606, -564.959534, , 
1759229685.038847, -0.002394, 11.663054, 1.582867, 1.373206, 4.201905, 0.277628, 126.260254, 157.527481, -562.932495, , 
1759229685.058820, 1.035343, 13.135189, 7.724892, 0.391127, 4.144329, 0.665231, 125.118118, 157.142654, -560.916870, , 
1759229685.078838, 1.811363, 11.922825, 13.323433, -1.305503, -0.960761, 0.672281, 125.480133, 156.563232, -560.596375, , 
1759229685.098841, -0.761206, 9.266159, -0.431405, -1.895131, -0.299000, 0.625880, 126.319046, 155.640717, -559.190796, , 
1759229685.118847, -2.741511, 7.092972, -2.347066, -1.735253, -0.674101, 1.126902, 126.558395, 154.525970, -559.681274, , 
1759229685.138849, -3.275118, 5.199159, -7.315034, -0.628330, -0.887187, 0.945201, 126.799271, 153.613556, -560.116333, , 
1759229685.158817, -0.114323, 6.016329, -6.154894, 0.162485, 1.153121, 0.497759, 126.735046, 153.581406, -559.659790, , 
1759229685.178844, -1.159093, 7.224204, -0.855478, 0.369288, 1.280261, 0.534425, 126.765152, 153.269257, -559.152649, , 
1759229685.198844, -2.728941, 6.726510, 1.937358, 0.239161, 0.558249, 0.316421, 126.539902, 153.008728, -558.136108, , 
1759229685.218837, -3.110517, 6.527342, 0.218621, 0.043405, -0.343017, 0.096415, 126.824036, 152.991058, -559.390076, , 
1759229685.238905, -3.554043, 5.869535, -2.623596, 0.327729, -0.741784, -0.145643, 126.900543, 153.082855, -559.193726, , 
1759229685.258809, -2.648286, 4.787356, -2.883217, 0.822554, -0.338775, -0.227840, 126.704712, 153.499023, -559.860718, , 
1759229685.278832, -1.826327, 4.694880, -1.994669, 0.882833, 0.381605, -0.138561, 126.780991, 153.763687, -559.972534, , 
1759229685.298832, -1.141136, 5.949591, -1.332822, 0.798684, 1.052678, 0.001497, 126.210602, 153.877075, -559.320679, , 
1759229685.318840, -0.906804, 6.692243, -0.158167, 0.862663, 1.466055, 0.024465, 125.845352, 154.094467, -559.116333, , 
1759229685.338888, -2.256984, 7.718158, 0.892139, 0.865230, 0.983241, 0.042264, 125.548599, 154.268188, -558.552429, , 
1759229685.358808, -2.958036, 8.749011, 0.630573, 0.667880, 0.089470, 0.050404, 125.630035, 154.466431, -558.845947, , 
1759229685.378833, -3.747375, 9.195680, -0.784999, 0.478329, -0.279421, 0.068322, 125.556168, 154.378265, -559.189819, , 
1759229685.398834, -4.903026, 9.283367, -2.734926, 0.823749, -0.830851, -0.250255, 125.750259, 154.438004, -559.470093, , 
1759229685.418081, -6.175993, 13.675530, -4.785710, 1.071440, -0.687922, -0.997088, 125.479904, 155.302216, -560.584534, , 
1759229685.438844, -4.139874, 15.195399, -6.667852, 1.538813, -0.519391, -1.605012, 125.257004, 156.517456, -561.259033, , 
1759229685.458817, -3.129820, 17.323396, -5.022885, 1.681289, 0.095664, -2.265281, 124.427750, 158.078415, -562.823364, , 
1759229685.478841, -0.454749, 21.367801, 0.735469, 1.303505, 0.306230, -2.547041, 123.355194, 159.553116, -562.493530, , 
1759229685.498845, 2.100313, 26.544514, 4.241478, 0.087377, -1.454229, -1.991501, 122.820572, 160.693222, -562.699463, , 
1759229685.518839, 0.413598, 15.327679, -7.757962, -0.628175, -1.925213, -1.597239, 122.312180, 161.673309, -564.318604, , 
1759229685.538860, 0.425719, 10.940753, -5.513098, -0.398220, -0.227825, -1.084044, 122.127548, 162.362411, -564.170532, , 
1759229685.558813, -1.578677, 7.870639, -1.730559, -0.086283, -0.028742, -0.212647, 122.152588, 162.554153, -564.712769, , 
1759229685.578839, -1.963245, 6.351817, -0.628328, -0.157750, -0.358579, 0.087460, 121.743011, 162.572906, -565.180725, , 
1759229685.598841, -1.663821, 5.407304, -1.551892, -0.191234, -0.228258, 0.014939, 121.799942, 162.533508, -564.967163, , 
1759229685.618836, -1.154753, 4.793790, -2.235586, -0.238812, 0.433559, -0.078431, 121.651520, 162.374603, -565.000732, , 
1759229685.638857, 0.375740, 4.348020, -1.776348, -0.309920, 0.665217, 0.061480, 121.475815, 162.377502, -564.090393, , 
1759229685.658812, 2.791789, 3.998766, -0.865205, -0.464806, 0.382213, 0.451327, 121.405197, 162.275848, -564.333252, , 
1759229685.678841, 3.939659, 4.088399, -0.352995, -0.567178, 0.224013, 0.865558, 121.574112, 161.716476, -564.151611, , 
1759229685.698832, 3.464111, 4.802020, 0.008829, -0.570274, 0.216418, 1.192037, 121.983673, 160.929626, -563.476624, , 
1759229685.718836, 2.520346, 5.333383, 0.238822, -0.585603, 0.144094, 1.493903, 122.596817, 160.402527, -563.450928, , 
1759229685.738835, -0.138714, 5.609614, -0.410157, -0.527816, 0.179367, 1.771376, 123.387451, 159.081619, -562.178101, , 
1759229685.758812, -1.344344, 6.277746, -1.226579, -0.583314, 0.765436, 2.004128, 124.394043, 158.065430, -562.903809, , 
1759229685.778824, -2.819172, 6.833949, -1.326088, -1.161102, 1.076079, 1.891245, 124.711319, 156.814316, -562.062134, , 
1759229685.798836, -4.832696, 6.990171, -2.571821, -1.471483, 0.332992, 1.648154, 125.566605, 155.312546, -560.314331, , 
1759229685.818822, -9.696068, 7.490709, -5.603330, -1.060781, -0.374144, 0.947701, 125.919037, 154.285278, -560.484314, , 
1759229685.838815, -8.662521, 7.878569, -3.892822, -0.458904, -0.450195, -0.228188, 126.125488, 153.812576, -559.555786, , 
1759229685.858811, -4.976797, 6.962787, -1.794305, -0.075546, -0.867409, -0.660443, 126.302185, 154.091858, -561.074951, , 
1759229685.878820, -3.281852, 7.121852, -0.111929, -0.083968, -1.737411, -0.997790, 126.225113, 154.821732, -562.424683, , 
1759229685.898835, -2.501342, 9.423578, -1.148618, -0.297399, -2.153940, -1.205423, 126.429810, 155.307678, -562.997864, , 
1759229685.918831, 1.464803, 17.620426, -6.460903, -0.173666, -2.807496, -1.340887, 126.050919, 156.215302, -564.992432, , 
1759229685.938854, 4.540753, 14.516643, -1.234959, -0.221632, -1.036199, -0.832158, 126.382507, 156.265350, -564.639893, , 
1759229685.958801, 5.817162, 22.639571, 0.285509, -0.209595, 0.784581, 0.412013, 126.357803, 156.367813, -564.064087, , 
1759229685.978825, -5.158307, 28.935872, 2.115277, 0.302295, 1.054533, 0.753389, 127.274902, 156.111252, -563.442383, , 
1759229685.998825, -16.413449, 14.550611, -1.989881, -0.770110, -2.162550, -0.372969, 127.778305, 156.270599, -564.421265, , 
1759229686.018823, -7.005434, 10.583269, -6.149657, 0.019987, -2.129158, -0.587471, 127.237976, 156.545456, -566.253540, , 
1759229686.038828, -1.091906, 12.754062, -1.829170, 0.968919, 1.137152, -0.043282, 126.579208, 156.499222, -565.373535, , 
1759229686.058802, 0.848744, 12.358869, 2.089839, 0.990293, 3.366395, 0.148592, 126.120148, 156.937363, -564.638672, , 
1759229686.078069, 2.629282, 11.065551, 6.630592, 0.164320, 3.158031, 0.372050, 125.240250, 156.397186, -563.328857, , 
1759229686.097974, 3.034950, 9.666290, 9.180866, -0.724093, -0.199324, 0.374493, 125.651779, 156.138626, -562.647400, , 
1759229686.118833, 0.336535, 7.829937, 0.191087, -1.906559, -1.245783, 0.547205, 126.712540, 155.674088, -562.600220, , 
1759229686.138838, -2.808099, 7.243208, -4.403835, -1.476119, -0.688456, 1.127386, 126.908066, 154.282166, -562.239258, , 
1759229686.158365, -1.282394, 5.870433, -7.514651, -0.308961, 0.323260, 0.719380, 126.798340, 153.874359, -561.943542, , 
1759229686.178825, 0.360178, 6.319645, -3.923498, 0.354911, 0.803588, 0.754890, 127.061081, 153.569977, -562.355652, , 
1759229686.198802, -1.881543, 6.204274, 0.406565, 0.422002, 0.893653, 0.760208, 126.677673, 153.178314, -560.504028, , 
1759229686.218828, -3.316119, 5.808184, 3.079243, 0.063204, 0.716741, 0.380147, 127.154419, 153.122253, -561.356750, , 
1759229686.238832, -3.474735, 8.334366, 0.944662, -0.297382, 0.531383, 0.314093, 127.131821, 152.604904, -560.049622, , 
1759229686.258354, -5.016601, 8.838944, -0.449212, -0.479082, -0.787064, 0.256591, 127.203064, 152.528824, -561.050537, , 
1759229686.278119, -5.625775, 5.361665, -3.284096, -0.193335, -1.740016, -0.112079, 127.781754, 152.788422, -562.465576, , 
1759229686.298826, -4.436605, 3.330185, -6.420351, 0.374961, -0.780800, -0.257575, 127.905029, 153.099808, -562.643066, , 
1759229686.318825, -1.750161, 6.256498, -5.098901, 1.017581, 0.907344, -0.171742, 127.512177, 153.401428, -562.760559, , 
1759229686.338833, -1.274912, 7.540089, -0.588974, 1.148875, 1.375783, -0.046169, 127.130615, 153.590195, -561.538269, , 
1759229686.358798, -2.731186, 7.067683, -0.354940, 1.037964, 1.328104, 0.131064, 126.966675, 154.169968, -562.392822, , 
1759229686.378823, -2.893842, 7.378630, -0.264260, 0.966690, 1.895472, 0.198711, 126.701324, 154.246841, -560.866577, , 
1759229686.398823, -2.858677, 7.354688, 0.360178, 0.929582, 2.309984, 0.102162, 125.955521, 154.365891, -559.720764, , 
1759229686.418818, -4.170999, 7.906851, 0.866851, 1.133638, 0.997316, -0.332491, 125.246826, 154.986130, -559.775269, , 
1759229686.438820, -3.773112, 10.253318, 0.222511, 1.200237, -1.410439, -0.986664, 125.595520, 156.024841, -559.710815, , 
1759229686.458799, -2.402282, 15.454272, -2.870199, 0.751669, -2.189386, -1.192364, 125.477448, 157.309235, -562.367737, , 
1759229686.478132, -1.871817, 17.097742, -5.833772, 0.960946, -1.659696, -1.456355, 125.104202, 158.337662, -563.538696, , 
1759229686.498821, -2.703353, 19.699940, -3.338265, 1.055502, -0.119370, -2.131986, 124.238052, 159.542099, -563.923706, , 
1759229686.518821, -1.201740, 23.890541, 1.218798, 0.623707, 0.093099, -2.372560, 123.255066, 161.115143, -564.126526, , 
1759229686.538853, 2.706196, 23.070677, 0.010624, 0.169046, -1.450279, -1.905431, 122.360291, 161.964706, -564.478271, , 
1759229686.558797, 3.353229, 13.440150, -4.396951, -0.304344, -1.789856, -1.430581, 122.064209, 163.029449, -566.409668, , 
1759229686.578552, 0.267103, 10.093505, -3.666421, -0.275795, -0.559747, -0.845527, 122.100830, 163.310394, -566.138184, , 
1759229686.598020, -2.723853, 8.044518, -1.377265, 0.002798, -0.156709, -0.454516, 121.776077, 163.417374, -565.898071, , 
1759229686.618825, -3.363704, 5.994632, -0.765845, 0.109359, -0.141234, -0.278768, 121.687912, 163.861908, -566.825439, , 
