SamplingTime, AccelerationX, AccelerationY, AccelerationZ, GyroX, GyroY, GyroZ, MagneticFieldX, MagneticFieldY, MagneticFieldZ, Latitude, Longitude
1759228711.487779, 0.636409, -2.676418, -8.886828, 0.145249, -0.044878, -0.167995, 26.401169, 23.680130, -274.780701, 13.727791, 100.772458
1759228711.507807, 0.497246, -3.180996, -8.442105, 0.069497, -0.039548, -0.103796, 26.406784, 23.616852, -275.064392, 13.727791, 100.772458
1759228711.527047, 0.450559, -3.626467, -8.672547, -0.029504, -0.079918, -0.126508, 26.416565, 23.635315, -274.525635, 13.727791, 100.772458
1759228711.547781, 0.253785, -3.579331, -9.026589, -0.041339, -0.043924, -0.204399, 26.545349, 23.200027, -274.534912, 13.727791, 100.772458
1759228711.567680, 0.416142, -3.388394, -9.358336, 0.049402, -0.035784, -0.263339, 25.882202, 23.259033, -274.386780, 13.727791, 100.772458
1759228711.587798, 0.602441, -3.147926, -9.415497, 0.213374, -0.205540, -0.286272, 25.921631, 23.052170, -274.590759, 13.727791, 100.772458
1759228711.607855, 0.651971, -2.894889, -9.103653, 0.289198, -0.289735, -0.288754, 25.639038, 23.120300, -274.831055, 13.727791, 100.772458
1759228711.627317, 0.740856, -3.161543, -8.812607, 0.184849, -0.227061, -0.249397, 25.239777, 23.133850, -274.876312, 13.727791, 100.772458
1759228711.647857, 0.638803, -3.321506, -8.879046, 0.007618, -0.096295, -0.209005, 25.334396, 23.120758, -274.801025, 13.727791, 100.772458
1759228711.667997, 0.496647, -3.322703, -9.312098, -0.092263, 0.018638, -0.211088, 25.576523, 23.120758, -275.250580, 13.727791, 100.772458
1759228711.687856, 0.488118, -3.309086, -9.712977, -0.061050, 0.018162, -0.218694, 24.968094, 23.335907, -274.685883, 13.727791, 100.772458
1759228711.707823, 0.580444, -3.114707, -9.536554, 0.019603, -0.018234, -0.214046, 25.140228, 23.420456, -275.417175, 13.727791, 100.772458
1759228711.727451, 0.566827, -3.069815, -9.104850, 0.012892, -0.061125, -0.223087, 24.854904, 23.250778, -274.966125, 13.727791, 100.772458
1759228711.747483, 0.715268, -3.473238, -9.047090, -0.034234, -0.075575, -0.241368, 24.558167, 23.268204, -274.973999, 13.727791, 100.772458
1759228711.767868, 0.624438, -3.646219, -9.161263, -0.052017, -0.224920, -0.250155, 24.901901, 23.057709, -275.084137, 13.727791, 100.772458
1759228711.787805, 0.509815, -3.413832, -9.059210, -0.052193, -0.305325, -0.245480, 24.183884, 22.922180, -274.873718, 13.727791, 100.772458
1759228711.807797, 0.535403, -3.179799, -8.980052, -0.021105, -0.230663, -0.224875, 24.541214, 23.287430, -274.928955, 13.727791, 100.772458
1759228711.827566, 0.495600, -3.016844, -8.969428, 0.024722, -0.167401, -0.184379, 23.795456, 23.045593, -274.850220, 13.727791, 100.772458
1759228711.847874, 0.231938, -2.994099, -8.954763, 0.098749, -0.038463, -0.122329, 23.831512, 22.851227, -274.554260, 13.727791, 100.772458
1759228711.867883, -0.009427, -3.427599, -8.691850, 0.169594, -0.113176, -0.060144, 24.034790, 23.235153, -274.839661, 13.727791, 100.772458
1759228711.887865, -0.012121, -3.818153, -9.239523, 0.416427, -0.279418, -0.191744, 23.706680, 22.944092, -275.335815, 13.727791, 100.772458
1759228711.907807, -0.417639, -2.660856, -8.497620, 0.798990, -0.500590, -0.209099, 23.424820, 22.257858, -275.258301, 13.727791, 100.772458
1759228711.927761, -0.982221, -2.790442, -6.293159, 0.771841, -0.705516, -0.358749, 23.001846, 22.148209, -275.246704, 13.727791, 100.772458
1759228711.947814, -1.531242, -3.592350, -3.683629, 0.334914, -1.439745, -0.511541, 22.767609, 21.813965, -275.455994, 13.727791, 100.772458
1759228711.967444, -0.623241, -3.935918, -2.972252, -0.219795, -2.516632, -0.584908, 21.668030, 21.669510, -274.941376, 13.727791, 100.772458
1759228711.987881, 1.416619, -2.738219, -5.850381, -0.496239, -1.336968, 0.545133, 20.636261, 21.821030, -274.068024, 13.727791, 100.772458
1759228712.007799, 4.315100, -2.950854, -8.112902, -0.161865, -0.481214, 1.984239, 20.459320, 22.307281, -273.682861, 13.727791, 100.772458
1759228712.027795, -2.179472, -1.429039, -6.223278, -0.121946, -0.878114, 2.132905, 21.367416, 22.882706, -273.619568, 13.727791, 100.772458
1759228712.047862, -4.909610, -0.787842, -4.731391, -0.329244, -1.312480, 1.960678, 22.023239, 23.179077, -272.984985, 13.727791, 100.772458
1759228712.067862, -2.276587, -2.072331, -5.763143, -0.375114, -0.810571, 1.915674, 22.589783, 23.610428, -272.668518, 13.727791, 100.772458
1759228712.087864, -3.945195, -1.615188, -6.228665, -0.795161, 0.344340, 1.382935, 23.146164, 24.533096, -271.988403, 13.727791, 100.772458
1759228712.107795, -4.479551, -0.480037, -6.769007, -1.201013, 1.160255, 1.078486, 23.974930, 25.218475, -271.373230, 13.727791, 100.772458
1759228712.127801, -4.880730, 0.415244, -7.060650, -1.400365, 1.131331, 0.884531, 25.044373, 25.351730, -271.154938, 13.727791, 100.772458
1759228712.146990, -4.093187, 0.137816, -7.654562, -1.563774, 1.073810, 0.709232, 25.578568, 25.933121, -270.347595, 13.727791, 100.772458
1759228712.167801, -3.069217, 1.192911, -8.663718, -1.618768, 1.132330, 0.884197, 25.991760, 26.307648, -269.771667, 13.727791, 100.772458
1759228712.187831, -2.730437, 1.481263, -7.915380, -1.921715, 0.629390, 0.767752, 26.860077, 27.372604, -269.018372, 13.727791, 100.772458
1759228712.207824, -3.431938, 0.813879, -8.004564, -2.253267, 0.026241, 0.246719, 27.394928, 27.606110, -266.970154, 13.727791, 100.772458
1759228712.227868, -2.513463, 1.786074, -10.636091, -2.252423, -0.235655, 0.030015, 27.386871, 27.977844, -266.297729, 13.727791, 100.772458
1759228712.247217, -1.055244, 2.695273, -13.549535, -1.905882, -0.265578, 0.279693, 27.262817, 28.576767, -264.216003, 13.727791, 100.772458
1759228712.267809, -0.797568, 2.260276, -14.608371, -1.457257, -0.378054, 0.435912, 27.535233, 28.444656, -262.891571, 13.727791, 100.772458
1759228712.287847, -0.957830, 1.326238, -14.421474, -1.115858, -0.606009, 0.452761, 27.530136, 28.929703, -262.419739, 13.727791, 100.772458
1759228712.308001, -1.569848, 0.711527, -13.680468, -0.973832, -0.769620, 0.353144, 27.971359, 29.137466, -261.412720, 13.727791, 100.772458
1759228712.327853, -1.523460, 0.378433, -13.072790, -0.926682, -0.839628, 0.350254, 28.263412, 29.011826, -260.075806, 13.727791, 100.772458
1759228712.347461, -1.551592, 0.486621, -12.622830, -0.860213, -0.796816, 0.415648, 28.258865, 29.825363, -259.645508, 13.727791, 100.772458
1759228712.367884, -1.955913, 0.406266, -12.821698, -0.704957, -0.773852, 0.454261, 28.764297, 29.393814, -259.332184, 13.727791, 100.772458
1759228712.387884, -2.036119, 0.238223, -13.158083, -0.457729, -0.836643, 0.448990, 28.868912, 29.348953, -258.173523, 13.727791, 100.772458
1759228712.407806, -2.364873, -0.363021, -12.583325, -0.409300, -0.877844, 0.388416, 29.208435, 29.437057, -258.072998, 13.727791, 100.772458
1759228712.427889, -2.746149, -0.159663, -11.857433, -0.475414, -0.607978, 0.312207, 29.326508, 29.658478, -257.307892, 13.727791, 100.772458
1759228712.447644, -2.723255, 0.261567, -11.880029, -0.500232, -0.358845, 0.302709, 29.629150, 29.682587, -257.414612, 13.727791, 100.772458
1759228712.467828, -2.826056, -0.075118, -11.923723, -0.403921, -0.312153, 0.232209, 29.990265, 29.486237, -256.327545, 13.727791, 100.772458
1759228712.487826, -3.172168, -0.262464, -11.682507, -0.355924, -0.303310, 0.094832, 30.196213, 29.746216, -256.051025, 13.727791, 100.772458
1759228712.507879, -3.233220, -0.311396, -10.950779, -0.423023, -0.152829, -0.043251, 30.025146, 29.375290, -255.821320, 13.727791, 100.772458
1759228712.527903, -3.080589, -0.010924, -10.345645, -0.496760, -0.009230, -0.133148, 29.930298, 29.535797, -255.910828, 13.727791, 100.772458
1759228712.547778, -2.870947, 0.591218, -10.803536, -0.397860, 0.149656, -0.169647, 30.316147, 29.313660, -255.345779, 13.727791, 100.772458
1759228712.567804, -2.635417, 0.347010, -10.923545, -0.251169, 0.134861, -0.201825, 29.623901, 28.966553, -255.057877, 13.727791, 100.772458
1759228712.587814, -2.480692, 0.311695, -10.805930, -0.110441, 0.105290, -0.222215, 29.592560, 29.395721, -254.675415, 13.727791, 100.772458
1759228712.607827, -2.527978, 0.565780, -10.458471, -0.015087, -0.003490, -0.262367, 29.520340, 29.080490, -254.500015, 13.727791, 100.772458
1759228712.627824, -2.569577, 0.552911, -10.487501, 0.117612, -0.226489, -0.262872, 29.411896, 29.264389, -255.216370, 13.727791, 100.772458
1759228712.647873, -2.511667, 0.559046, -10.916662, 0.366192, -0.329958, -0.276468, 29.211075, 28.971298, -254.478897, 13.727791, 100.772458
1759228712.667803, -2.892345, 0.249296, -11.152940, 0.515913, 0.011851, -0.422656, 29.437683, 29.270630, -255.185455, 13.727791, 100.772458
1759228712.687867, -2.940529, 0.285808, -9.665093, 0.180295, 0.578554, -0.541224, 28.855255, 29.567719, -255.547180, 13.727791, 100.772458
1759228712.707812, -3.110517, 0.104746, -8.703821, -0.137411, 0.788986, -0.688055, 28.255875, 28.984024, -255.219879, 13.727791, 100.772458
1759228712.727882, -2.878728, 0.208595, -9.218275, -0.200116, 0.828977, -0.787963, 27.929413, 28.611893, -255.126633, 13.727791, 100.772458
1759228712.747949, -2.647688, 0.626233, -9.448717, -0.180693, 0.784781, -0.780362, 27.173965, 28.687225, -255.000168, 13.727791, 100.772458
1759228712.767873, -2.079813, 1.021726, -9.140912, -0.188321, 0.619576, -0.676746, 27.124084, 29.206360, -255.238419, 13.727791, 100.772458
1759228712.787890, -1.880645, 1.059135, -9.175479, -0.135672, 0.334652, -0.549418, 26.427383, 28.850571, -254.875641, 13.727791, 100.772458
1759228712.807874, -1.827674, 1.130362, -9.171438, -0.049206, 0.074668, -0.421169, 26.016922, 28.870773, -255.585236, 13.727791, 100.772458
1759228712.827862, -1.761085, 1.445350, -9.522638, 0.068907, -0.030138, -0.278808, 26.357285, 28.644608, -255.564972, 13.727791, 100.772458
1759228712.847882, -1.811962, 1.634940, -9.824008, 0.214201, -0.046635, -0.140400, 25.791672, 28.666153, -255.668442, 13.727791, 100.772458
1759228712.867843, -2.012775, 1.757643, -9.498247, 0.279345, -0.026042, -0.032992, 25.908218, 28.616074, -255.054947, 13.727791, 100.772458
1759228712.887868, -2.266710, 1.720533, -9.213487, 0.276723, 0.034318, 0.026829, 25.875183, 28.681747, -255.772629, 13.727791, 100.772458
1759228712.907841, -2.627936, 1.692850, -8.588899, 0.152051, 0.030892, 0.022934, 25.998367, 29.123535, -256.058594, 13.727791, 100.772458
1759228712.927828, -2.976741, 1.699434, -7.877073, -0.115076, 0.169178, 0.016249, 25.918259, 28.842850, -256.398621, 13.727791, 100.772458
1759228712.947846, -2.958036, 1.792658, -7.212084, -0.424499, 0.230821, -0.005400, 25.667572, 29.120071, -256.297241, 13.727791, 100.772458
1759228712.967832, -3.173365, 1.913416, -7.845350, -0.485413, 0.348898, -0.052554, 25.759567, 28.577499, -256.181152, 13.727791, 100.772458
1759228712.987829, -3.166781, 2.428169, -8.093150, -0.776841, 1.320043, 0.003744, 25.549698, 28.569824, -255.357788, 13.727791, 100.772458
1759228713.007864, -2.752135, 3.056198, -6.914604, -1.347879, 2.002391, 0.027572, 25.444611, 28.594727, -255.266953, 13.727791, 100.772458
1759228713.027825, -2.468871, 3.601627, -7.178116, -1.587504, 2.380548, 0.099134, 25.665314, 28.234467, -254.147003, 13.727791, 100.772458
1759228713.047822, -1.021426, 4.084957, -6.713042, -1.961521, 3.080197, 0.392573, 25.695023, 28.755157, -253.463364, 13.727791, 100.772458
1759228713.066938, -0.140809, 5.452794, -6.481403, -2.255820, 2.917506, 0.847472, 25.642456, 28.276566, -253.294464, 13.727791, 100.772458
1759228713.087807, -0.951246, 6.165069, -7.812879, -1.989069, 2.004807, 0.959313, 25.976028, 28.208542, -251.897385, 13.727791, 100.772458
1759228713.107924, -1.516577, 5.327398, -8.253412, -1.491191, 1.201415, 0.702252, 26.475784, 27.754242, -251.160461, 13.727791, 100.772458
1759228713.127879, -0.688483, 5.821501, -8.209418, -1.138029, 0.641147, 0.542625, 26.345001, 28.162689, -250.660736, 13.727791, 100.772458
1759228713.147841, 0.692373, 6.083666, -7.699004, -0.823630, 0.274380, 0.668174, 26.744339, 27.780365, -249.399857, 13.727791, 100.772458
1759228713.167880, -0.272191, 6.051794, -7.482030, 0.187614, 0.292375, 0.136807, 26.533447, 28.017258, -249.516418, 13.727791, 100.772458
1759228713.187891, -1.868076, 5.652112, -9.693374, 1.559732, 0.025708, -0.379811, 26.666183, 27.566910, -250.577713, 13.727791, 100.772458
1759228713.207872, -0.938976, 5.301960, -9.452607, 0.994995, -1.195686, 0.011127, 26.830231, 28.162064, -250.549973, 13.727791, 100.772458
1759228713.227897, 1.618480, 6.010194, -5.873725, -0.566710, -0.328320, 0.925362, 27.511536, 27.802399, -250.444427, 13.727791, 100.772458
1759228713.247006, 0.149189, 7.883059, -6.748506, -1.588962, 1.559286, 1.239393, 27.803940, 27.945358, -250.177338, 13.727791, 100.772458
1759228713.267839, 0.546925, 6.043863, -8.155100, -2.391865, 1.971437, 1.641745, 28.403397, 27.554688, -247.990158, 13.727791, 100.772458
1759228713.287875, 2.660407, 4.305373, -9.547627, -2.502075, 2.703969, 1.183922, 28.584244, 27.250992, -247.324341, 13.727791, 100.772458
1759228713.307994, 3.071910, 5.163844, -9.728838, -2.462742, 3.128910, 1.141691, 28.574799, 26.136795, -246.205612, 13.727791, 100.772458
1759228713.327839, 5.516241, 5.614104, -8.538471, -2.295418, 2.845465, 1.424752, 28.316101, 25.670135, -245.279358, 13.727791, 100.772458
1759228713.347169, 6.227019, 5.199458, -7.719804, -2.121567, 1.599569, 1.622618, 28.952805, 25.413177, -244.486450, 13.727791, 100.772458
1759228713.367832, 5.882853, 4.616619, -7.043592, -1.963091, 0.220373, 1.542056, 29.351669, 24.951752, -244.146637, 13.727791, 100.772458
1759228713.387832, 7.056012, 5.161001, -9.718065, -1.444493, -0.911898, 1.530292, 31.009766, 24.226486, -241.952469, 13.727791, 100.772458
1759228713.407829, 9.103802, 4.475212, -10.922797, -0.909762, -0.221545, 2.077533, 31.624191, 23.855087, -241.353989, 13.727791, 100.772458
1759228713.427879, 6.573131, 4.435707, -9.512762, -1.413281, 1.552401, 2.171492, 32.408569, 23.210358, -241.343521, 13.727791, 100.772458
1759228713.447375, 4.745457, 3.083881, -8.677185, -2.332478, 3.076052, 1.533595, 32.495682, 23.329468, -240.548538, 13.727791, 100.772458
1759228713.467820, 6.436362, 1.596933, -9.006238, -2.428933, 3.199778, 0.995231, 31.356628, 21.991592, -239.457306, 13.727791, 100.772458
1759228713.487884, 8.173056, 0.849493, -9.917083, -1.163748, 2.114112, 0.748887, 30.989212, 21.392853, -239.000626, 13.727791, 100.772458
1759228713.508003, 7.501483, 1.704223, -9.287408, -0.290671, 1.791678, 0.576488, 30.478363, 21.443176, -238.438461, 13.727791, 100.772458
1759228713.527886, 6.946926, 2.727594, -8.438214, -0.001967, 2.591787, 0.657771, 29.846298, 21.706711, -238.948364, 13.727791, 100.772458
1759228713.547571, 7.825298, 2.845060, -7.310545, 0.149122, 3.213177, 0.878732, 29.102417, 21.964798, -238.962982, 13.727791, 100.772458
1759228713.567884, 8.052897, 2.705448, -6.095488, 0.231601, 2.742615, 1.034124, 28.965179, 21.938553, -239.548019, 13.727791, 100.772458
1759228713.587863, 8.448240, 2.579902, -6.014085, 0.437064, 1.543731, 1.171684, 28.428162, 22.121109, -239.821884, 13.727791, 100.772458
1759228713.607861, 7.888745, 2.623596, -6.148011, 0.718112, 0.724932, 1.269668, 28.957291, 22.857254, -240.675323, 13.727791, 100.772458
1759228713.627892, 6.995708, 2.912097, -5.758055, 0.866738, 0.465538, 1.177140, 29.578354, 23.297516, -240.464111, 13.727791, 100.772458
1759228713.647763, 6.279093, 3.711910, -4.143316, 0.597500, 0.506844, 0.981724, 30.005783, 23.618851, -241.280075, 13.727791, 100.772458
1759228713.667840, 7.518242, 4.718223, -2.230348, 0.019334, 0.107612, 0.990595, 30.732742, 23.484695, -240.971710, 13.727791, 100.772458
1759228713.687889, 6.445341, 6.149058, -4.244920, -0.073142, 0.498353, 0.990589, 31.138229, 23.443878, -241.044586, 13.727791, 100.772458
1759228713.707843, 5.783194, 6.652738, -4.424036, 0.009938, 1.272191, 1.163723, 30.946198, 23.890060, -240.928299, 13.727791, 100.772458
1759228713.727892, 6.085911, 6.502502, -3.767127, -0.335078, 1.112461, 1.013226, 31.003220, 23.564774, -240.812607, 13.727791, 100.772458
1759228713.747833, 7.543531, 7.606379, -2.109741, -0.564909, 0.438024, 0.735557, 31.895889, 23.648041, -240.816711, 13.727791, 100.772458
1759228713.767891, 8.968679, 8.247426, 1.364096, -1.058813, 0.003085, 0.896453, 32.040421, 22.934021, -240.798035, 13.727791, 100.772458
1759228713.787859, 8.034043, 5.234623, -2.462586, -0.848130, 0.090711, 0.660938, 31.944839, 22.709625, -240.296265, 13.727791, 100.772458
1759228713.807885, 8.335563, 4.593575, -2.304269, -0.950086, 0.428717, 0.404323, 32.099609, 22.778641, -239.383575, 13.727791, 100.772458
1759228713.827912, 8.777742, 4.451270, -4.287716, -0.882004, 0.024730, 0.185302, 32.257202, 22.350800, -239.015564, 13.727791, 100.772458
1759228713.847901, 8.287679, 4.771644, -5.210681, -0.344952, -0.522884, 0.063530, 32.474014, 21.998230, -239.188217, 13.727791, 100.772458
1759228713.867989, 7.625083, 5.039495, -3.784185, -0.121111, -0.257034, 0.087970, 32.648819, 21.964523, -238.880386, 13.727791, 100.772458
1759228713.887828, 7.968951, 3.345598, -4.592827, 0.178969, 0.139568, 0.019047, 32.561264, 22.146729, -239.317612, 13.727791, 100.772458
1759228713.907818, 8.749909, 1.387290, -3.969137, 0.383161, 0.578400, -0.231883, 32.271957, 21.989639, -239.053040, 13.727791, 100.772458
1759228713.927900, 10.830470, 0.958878, -2.868553, 0.398539, 1.094773, -0.303660, 31.411072, 22.512039, -238.975601, 13.727791, 100.772458
1759228713.948026, 11.923723, 1.015142, -1.635539, 0.199364, 1.476898, 0.042210, 31.051086, 22.249435, -239.415848, 13.727791, 100.772458
1759228713.967895, 11.359439, 0.953042, -0.101903, -0.059001, 1.735229, 0.343964, 30.591934, 22.514908, -239.228821, 13.727791, 100.772458
1759228713.987951, 11.825112, 1.376965, 1.248277, -0.552102, 1.983272, 0.639664, 30.251938, 22.028549, -239.438721, 13.727791, 100.772458
1759228714.007890, 10.252271, 1.776797, 1.373374, -0.950173, 1.892125, 0.895692, 29.751312, 22.115509, -239.298828, 13.727791, 100.772458
1759228714.027827, 7.798214, 1.478270, 1.379359, -1.223901, 1.451022, 0.818394, 29.605194, 21.532379, -238.910721, 13.727791, 100.772458
1759228714.047906, 6.835745, 1.822586, 0.753575, -1.337795, 0.467538, 0.526427, 29.612183, 21.140381, -238.292526, 13.727791, 100.772458
1759228714.067298, 7.936928, 2.292897, -0.887052, -0.954299, -1.004239, 0.463545, 30.132553, 20.375839, -237.857819, 13.727791, 100.772458
1759228714.087897, 8.460510, 2.477550, -1.489044, -0.391169, -2.553552, 0.516225, 31.709900, 20.564590, -237.941620, 13.727791, 100.772458
1759228714.107882, 9.188198, 3.967791, -3.465757, -0.054727, -2.824168, 0.481032, 33.199478, 20.430923, -237.692963, 13.727791, 100.772458
1759228714.127695, 9.119813, 5.033061, -6.349273, 0.412064, -1.163887, 0.852855, 33.943253, 20.662079, -238.036285, 13.727791, 100.772458
1759228714.147987, 8.520066, 3.470994, -3.514089, -0.145181, 0.714174, 0.863809, 34.125549, 20.654205, -237.567154, 13.727791, 100.772458
1759228714.167849, 8.436269, 2.321179, -2.146252, -0.661057, 1.719008, 0.411643, 33.469971, 20.523529, -236.846542, 13.727791, 100.772458
1759228714.187859, 9.274389, 1.475876, -1.688511, -0.223935, 0.953692, 0.011337, 32.890015, 20.123749, -236.891907, 13.727791, 100.772458
1759228714.207847, 9.131934, 2.199374, -0.528969, 0.048744, 0.388657, -0.145907, 32.409195, 20.486115, -237.154190, 13.727791, 100.772458
1759228714.227837, 9.169643, 2.879327, 0.251391, 0.164459, -0.001943, -0.087447, 32.656326, 20.428406, -237.473999, 13.727791, 100.772458
1759228714.247921, 9.446173, 2.967613, 0.935534, 0.185377, -0.298633, -0.142864, 32.613129, 20.411072, -236.851807, 13.727791, 100.772458
1759228714.267660, 9.769989, 2.994847, 0.598251, 0.074347, -0.118281, -0.142852, 32.375107, 21.118546, -237.038498, 13.727791, 100.772458
1759228714.287865, 10.528801, 4.525789, -0.201263, -0.127843, 0.235003, 0.094493, 32.422684, 21.028641, -237.058289, 13.727791, 100.772458
1759228714.307824, 8.944139, 3.107524, -1.285237, -0.185835, 0.452448, -0.085701, 32.194214, 20.468155, -236.787277, 13.727791, 100.772458
1759228714.327843, 8.238598, 1.221641, -1.846678, -0.200115, 0.191578, -0.339090, 32.208420, 20.761566, -237.280914, 13.727791, 100.772458
1759228714.347896, 8.534431, 2.822764, -2.740912, 0.150986, -0.384202, -0.681889, 32.234650, 20.874878, -236.866638, 13.727791, 100.772458
1759228714.367404, 8.400954, 2.642002, -2.269105, 0.485258, -0.725242, -1.388375, 32.020660, 20.674149, -237.259048, 13.727791, 100.772458
1759228714.387837, 1.840991, -2.820968, -1.351228, 0.044057, -2.121874, -3.056433, 31.349854, 20.785049, -236.782791, 13.727791, 100.772458
1759228714.407914, 10.304644, 6.702717, -1.873014, -0.201213, -0.156925, -2.226053, 30.644226, 20.995728, -237.056046, 13.727791, 100.772458
1759228714.427838, 13.394960, 9.940576, 1.298106, -0.295512, 0.418702, -0.349207, 29.471252, 20.674759, -236.657211, 13.727791, 100.772458
1759228714.447917, 11.648240, 6.978050, 1.011401, 0.130412, -0.410014, 0.092550, 29.723587, 20.561218, -236.610611, 13.727791, 100.772458
1759228714.467069, 7.038354, -1.105223, 1.147421, -0.385154, -0.773485, -1.221925, 29.529297, 20.330139, -236.420212, 13.727791, 100.772458
1759228714.487909, 7.271939, 0.516699, -2.607435, -0.513945, -0.127186, -2.063406, 29.026672, 19.989578, -236.066406, 13.727791, 100.772458
1759228714.507830, 11.636419, 3.980510, -4.754286, -0.154481, 0.263340, -1.966682, 28.347183, 19.753494, -236.001923, 13.727791, 100.772458
1759228714.527877, 10.509049, 5.225794, -1.507748, -0.272060, 0.178914, -1.816911, 27.023849, 19.487854, -236.169571, 13.727791, 100.772458
1759228714.547848, 7.399131, 5.133767, -1.078139, -0.474992, 0.380614, -2.146502, 26.026428, 19.096619, -236.068253, 13.727791, 100.772458
1759228714.567907, 5.126734, 5.337573, -0.693870, -0.535354, 0.345435, -2.762890, 24.858185, 18.122452, -236.198898, 13.727791, 100.772458
1759228714.588031, 3.315820, 4.216039, -0.609025, -0.651274, 0.000994, -3.743002, 23.520737, 17.524063, -235.834808, 13.727791, 100.772458
1759228714.607917, 0.614412, 1.273715, -0.898275, -0.732641, 0.169339, -5.063878, 21.821808, 16.080490, -235.916077, 13.727791, 100.772458
1759228714.628032, 0.908899, 2.018911, -0.310797, -0.614098, -0.077387, -5.722376, 19.457520, 14.396378, -235.355591, 13.727791, 100.772458
1759228714.647918, 1.858200, 8.399458, -0.563834, 0.022353, -0.712651, -5.446129, 17.657928, 12.786652, -235.064438, 13.727791, 100.772458
1759228714.667882, 0.051775, 10.280702, -1.278504, -0.822209, 0.105706, -5.900257, 16.050476, 10.572449, -234.923874, 13.727791, 100.772458
1759228714.687920, 1.594239, 13.495067, 0.535254, -1.976365, 1.515899, -5.893975, 14.202194, 7.980408, -235.070099, 13.727791, 100.772458
1759228714.707882, 1.426645, 13.123517, 1.758092, -1.693742, 0.581836, -5.640824, 12.606247, 4.327621, -235.547592, 13.727791, 100.772458
1759228714.727867, 2.974796, 11.502044, -2.110938, -0.447474, -0.954806, -4.568766, 12.265869, 1.644318, -234.954971, 13.727791, 100.772458
1759228714.747870, 4.086004, 11.871799, -3.220650, 0.339446, -0.886286, -2.823149, 12.723450, 0.538116, -234.033463, 13.727791, 100.772458
1759228714.767908, 3.566014, 12.412290, 1.627010, 0.064395, -0.985509, -1.331661, 12.535782, -0.409454, -233.821609, 13.727791, 100.772458
1759228714.787977, -0.285509, 12.440421, 1.756446, -0.382920, -0.958722, -0.844085, 13.081482, -0.787628, -233.849426, 13.727791, 100.772458
1759228714.807837, -0.327557, 10.569802, -0.261417, -0.322997, 0.465242, -0.568813, 13.263474, -1.320114, -233.619110, 13.727791, 100.772458
1759228714.827839, 0.703596, 7.534253, 1.238102, -0.402806, 1.995048, -0.212730, 12.647293, -1.768188, -234.540573, 13.727791, 100.772458
1759228714.847922, -0.137517, 5.229236, 1.128716, -0.226521, 2.718212, -0.081769, 11.044464, -1.646149, -235.475342, 13.727791, 100.772458
1759228714.867626, -2.250250, 6.716933, 1.944241, -0.299041, 3.123904, -0.353719, 9.508118, -2.479736, -237.103592, 13.727791, 100.772458
1759228714.887915, -1.814057, 6.557120, 2.062156, -0.677780, 3.270185, 0.140298, 8.373199, -2.902451, -238.293076, 13.727791, 100.772458
1759228714.907955, -2.260126, 10.267683, 1.527201, -0.965607, 3.161734, 0.003596, 7.629364, -2.996048, -240.036804, 13.727791, 100.772458
1759228714.927842, -2.504036, 17.743877, 0.168492, -0.712852, 3.265292, -0.943652, 6.217941, -3.969177, -241.276550, 13.727791, 100.772458
1759228714.947868, -1.692401, 27.991210, -1.227627, -0.541445, 2.418718, -1.055853, 5.376907, -4.388489, -243.434998, 13.727791, 100.772458
1759228714.966909, 3.207781, 12.616246, -1.429638, -0.338495, 0.165566, -0.238120, 5.510651, -5.109680, -243.686142, 13.727791, 100.772458
1759228714.987850, 2.970157, 7.506720, -2.331504, 0.099840, -0.741643, 0.192529, 6.050415, -4.775803, -243.382538, 13.727791, 100.772458
1759228715.007923, 1.474080, 8.038981, -2.315792, 0.666556, -0.846592, 0.326126, 5.996017, -4.400131, -242.928986, 13.727791, 100.772458
1759228715.027924, -0.068833, 10.049063, -0.988207, 0.915225, -0.702166, 0.351367, 6.338394, -4.248154, -242.553391, 13.727791, 100.772458
1759228715.047926, -1.123030, 10.780342, 0.561440, 0.920877, -0.642895, 0.241463, 6.369019, -3.655899, -241.937653, 13.727791, 100.772458
1759228715.067051, -1.597681, 10.044574, 1.741931, 0.709800, -0.352400, 0.117248, 6.312607, -3.406479, -241.443375, 13.727791, 100.772458
1759228715.087849, -1.413477, 9.233239, 2.744952, 0.329904, 0.128093, 0.094894, 6.232819, -3.167160, -241.587463, 13.727791, 100.772458
1759228715.107854, -1.510891, 9.597756, 2.241422, 0.029749, 0.426039, 0.061800, 6.260880, -3.141525, -242.059280, 13.727791, 100.772458
1759228715.127850, -1.375319, 9.756222, 1.177947, -0.166643, 0.483724, -0.001083, 5.665817, -2.923767, -242.231400, 13.727791, 100.772458
1759228715.147912, -0.928052, 9.855581, 0.428861, -0.361528, 0.322212, -0.031817, 6.095444, -3.403244, -242.546722, 13.727791, 100.772458
1759228715.167290, -0.687585, 9.936685, 0.074819, -0.475834, 0.245594, -0.003042, 6.205124, -3.397919, -242.677551, 13.727791, 100.772458
1759228715.187861, -0.241216, 9.951649, -1.001375, -0.388882, 0.518160, 0.054223, 5.795029, -3.371429, -243.593933, 13.727791, 100.772458
1759228715.207874, -0.015413, 9.792584, -1.247080, -0.114172, 0.865936, 0.131424, 5.961868, -3.462936, -243.613159, 13.727791, 100.772458
1759228715.227850, -0.093075, 9.681403, -0.722001, 0.082870, 0.837046, 0.201835, 5.051865, -3.290085, -243.880478, 13.727791, 100.772458
1759228715.247866, -0.810737, 9.709685, -0.161010, 0.062698, 0.587093, 0.213907, 5.123581, -3.232391, -244.911621, 13.727791, 100.772458
1759228715.267430, -1.597082, 9.669732, 0.013168, -0.004924, 0.636948, 0.127183, 4.813965, -3.145493, -244.764679, 13.727791, 100.772458
1759228715.287854, -1.274912, 9.697265, 0.023643, 0.022295, 0.591428, 0.073331, 4.939407, -3.071167, -245.174011, 13.727791, 100.772458
1759228715.307844, -1.103428, 9.690082, 0.141856, 0.026420, 0.474074, 0.017247, 4.951401, -2.925537, -245.095352, 13.727791, 100.772458
1759228715.327851, -0.690877, 9.580996, 0.241665, 0.026082, 0.359821, -0.031725, 4.643326, -2.927307, -244.808426, 13.727791, 100.772458
1759228715.347879, -0.095319, 9.561544, 0.249147, -0.017671, 0.272600, -0.030061, 4.844086, -2.881653, -245.776428, 13.727791, 100.772458
1759228715.367689, 0.333093, 9.831789, 0.044891, -0.064629, 0.186806, -0.023366, 4.535355, -3.076782, -245.117203, 13.727791, 100.772458
1759228715.387921, 0.614113, 10.034847, -0.212186, -0.041829, 0.131732, -0.015336, 4.324020, -2.964203, -245.205139, 13.727791, 100.772458
1759228715.407930, 0.824503, 9.877429, -0.330250, 0.009444, 0.054392, 0.002191, 4.474640, -2.978867, -245.545288, 13.727791, 100.772458
1759228715.427853, 0.916830, 9.682301, -0.322619, 0.058881, 0.017764, 0.054089, 4.712479, -2.775955, -246.261047, 13.727791, 100.772458
1759228715.447209, 0.432453, 9.814431, -0.146794, 0.067903, 0.065427, 0.083618, 4.732849, -2.777451, -245.619980, 13.727791, 100.772458
1759228715.467814, -0.117466, 9.969156, 0.169090, -0.030930, 0.055537, 0.087401, 4.458145, -3.020905, -245.709854, 13.727791, 100.772458
1759228715.487939, -0.355539, 9.679458, 0.069581, -0.128677, -0.013019, 0.047447, 4.499146, -3.082916, -245.614975, 13.727791, 100.772458
1759228715.507850, -0.212635, 9.550022, -0.208894, -0.148546, -0.020627, -0.012381, 4.173813, -2.450531, -245.432770, 13.727791, 100.772458
1759228715.527928, -0.095319, 9.526229, -0.354940, -0.129751, 0.007213, -0.047803, 4.566116, -2.901123, -245.332901, 13.727791, 100.772458
1759228715.547870, -0.140061, 9.646238, -0.347010, -0.141548, 0.005866, -0.074599, 4.090027, -3.196182, -246.118683, 13.727791, 100.772458
1759228715.567885, -0.208595, 9.805453, -0.381127, -0.139444, -0.083524, -0.121852, 4.506989, -3.278168, -245.423752, 13.727791, 100.772458
1759228715.587869, -0.122553, 9.837924, -0.295085, -0.120472, -0.242040, -0.146230, 4.346313, -3.238892, -246.074738, 13.727791, 100.772458
1759228715.607889, -0.189591, 9.855881, -0.129437, -0.110274, -0.327117, -0.138818, 4.470856, -3.294388, -245.280838, 13.727791, 100.772458
1759228715.627873, -0.137068, 9.955988, 0.101903, -0.067182, -0.463999, -0.123468, 4.577881, -3.576065, -244.887482, 13.727791, 100.772458
1759228715.647881, 0.076914, 10.102484, 0.277877, 0.052747, -0.633307, -0.094191, 4.393799, -3.385284, -244.306381, 13.727791, 100.772458
1759228715.667878, 0.044742, 9.941324, 0.692523, 0.214489, -0.729651, -0.028043, 4.672043, -3.662872, -244.452347, 13.727791, 100.772458
1759228715.687049, -0.407014, 9.659407, 1.354669, 0.248090, -0.552254, 0.030313, 4.702576, -3.408112, -243.932007, 13.727791, 100.772458
1759228715.707859, -0.940173, 9.603442, 1.949628, 0.105929, -0.300063, 0.036777, 5.028091, -3.623840, -243.668793, 13.727791, 100.772458
1759228715.727931, -1.191864, 9.375544, 1.896357, -0.123798, -0.184224, 0.016619, 4.934174, -3.294724, -243.258743, 13.727792, 100.772453
1759228715.747887, -1.314117, 9.125500, 1.147870, -0.269966, -0.023533, -0.029004, 4.677399, -3.139114, -243.836517, 13.727792, 100.772453
1759228715.767931, -1.116895, 9.069984, 0.512509, -0.299072, 0.136663, -0.093965, 4.844513, -3.544952, -243.725052, 13.727792, 100.772453
1759228715.787215, -0.750582, 9.330204, 0.085742, -0.287488, 0.131244, -0.107970, 5.248413, -3.291382, -243.423737, 13.727792, 100.772453
1759228715.807875, -0.738761, 9.743503, -0.184952, -0.243984, 0.006974, -0.068032, 4.636734, -3.599304, -244.099487, 13.727792, 100.772453
1759228715.827889, -1.000926, 10.223840, -0.246752, -0.131237, -0.108370, -0.032699, 4.635498, -3.514374, -243.508301, 13.727792, 100.772453
1759228715.847874, -1.130362, 10.753557, -0.073173, -0.004676, -0.189696, -0.056251, 4.779144, -3.797592, -243.379761, 13.727792, 100.772453
1759228715.867536, -0.647033, 10.424653, 0.258125, 0.017565, -0.264264, -0.103645, 4.575272, -3.397629, -243.291885, 13.727792, 100.772453
1759228715.887456, -0.059406, 9.604041, 0.482731, -0.005945, -0.337735, -0.117614, 5.017822, -3.817871, -243.569016, 13.727792, 100.772453
1759228715.907857, 0.164003, 9.277681, 0.574608, 0.029045, -0.253527, -0.071931, 5.038025, -3.655701, -243.559464, 13.727792, 100.772453
1759228715.927864, -0.323816, 9.326313, 0.780210, 0.086000, -0.004600, -0.025214, 5.030518, -3.933197, -243.205780, 13.727792, 100.772453
1759228715.947891, -0.990302, 9.411457, 1.009605, 0.047369, 0.145830, -0.010007, 4.538757, -3.483871, -243.007324, 13.727792, 100.772453
1759228715.967857, -1.275062, 9.488969, 0.953042, -0.113867, 0.080294, -0.050040, 4.610367, -3.621094, -242.860580, 13.727792, 100.772453
1759228715.987593, -1.260996, 9.653421, 0.557849, -0.136937, 0.005444, -0.069707, 4.694763, -3.781128, -243.337753, 13.727792, 100.772453
1759228716.007943, -0.944662, 9.827749, 0.157868, -0.075863, -0.185460, -0.103598, 4.627701, -3.544418, -243.009277, 13.727792, 100.772453
1759228716.027562, -0.789638, 9.800664, -0.156970, -0.061158, -0.258701, -0.073323, 4.860352, -3.658310, -243.350616, 13.727792, 100.772453
1759228716.047943, -0.659154, 9.703849, -0.202310, -0.129094, -0.331224, -0.028902, 4.891678, -3.743439, -242.880920, 13.727792, 100.772453
1759228716.067274, -0.234183, 9.772982, -0.600496, -0.151777, -0.317893, 0.001439, 5.287582, -4.253311, -242.918991, 13.727792, 100.772453
1759228716.087839, 0.609025, 10.062381, -1.675343, -0.107914, 0.017029, 0.121377, 5.034927, -4.378937, -242.303558, 13.727792, 100.772453
1759228716.107861, 2.466926, 10.464008, -4.534019, 0.383336, 0.512374, 0.444426, 5.060135, -3.909561, -242.357529, 13.727792, 100.772453
1759228716.127939, 5.154417, 10.067768, -7.278822, 1.409686, 0.440686, 1.008547, 4.831024, -3.239014, -243.119431, 13.727792, 100.772453
1759228716.147890, 5.180603, 10.404901, -5.675305, 2.113469, 0.347071, 1.379658, 4.406723, -1.858887, -242.717987, 13.727792, 100.772453
1759228716.167937, 2.675071, 12.095656, -0.893187, 2.241372, 1.279099, 1.449284, 3.765808, -0.336929, -243.794296, 13.727792, 100.772453
1759228716.187893, 0.587178, 14.157363, 1.150414, 1.956369, 2.266250, 1.419914, 3.341568, 1.063400, -244.926788, 13.727792, 100.772453
1759228716.207949, -0.813879, 14.551210, 2.022801, 1.003673, 2.127250, 1.413165, 3.005402, 2.855408, -246.271179, 13.727792, 100.772453
1759228716.227917, -2.474557, 12.414684, -0.734421, 0.714449, 1.535427, 1.288300, 2.791702, 3.838272, -247.123611, 13.727792, 100.772453
1759228716.247948, -2.229600, 10.595988, -1.819294, 0.769639, 0.550326, 1.170527, 2.571915, 4.525879, -247.757294, 13.727792, 100.772453
1759228716.268068, -1.359757, 9.829844, 1.419911, 0.473366, -0.496831, 0.896133, 2.832825, 5.406982, -247.975845, 13.727792, 100.772453
1759228716.287943, 0.910395, 9.291298, 3.761740, -0.019763, -0.352993, 0.613713, 3.071060, 5.991501, -247.438889, 13.727792, 100.772453
1759228716.307904, 4.635025, 8.966435, 1.350629, -0.029896, 1.371818, 0.749804, 2.996567, 6.589035, -247.611893, 13.727792, 100.772453
1759228716.327910, 5.996727, 9.113678, -3.388992, 0.274707, 1.401210, 0.921122, 2.657089, 7.286316, -248.614334, 13.727792, 100.772453
1759228716.347918, 2.184410, 9.496751, -3.648015, 0.533128, -1.530775, 0.669065, 2.867706, 8.377243, -248.424484, 13.727792, 100.772453
1759228716.367244, -0.570718, 8.869919, -2.464831, 0.796409, -2.634673, 0.437906, 3.568527, 8.654541, -247.045059, 13.727792, 100.772453
1759228716.387876, -0.110283, 7.698406, 0.299874, 0.613753, -1.918684, 0.334898, 4.377914, 9.128052, -245.885406, 13.727792, 100.772453
1759228716.407944, 0.206650, 7.071275, 0.757316, 0.259250, -1.378357, 0.272105, 4.705475, 9.193970, -245.707031, 13.727792, 100.772453
1759228716.427877, 0.229095, 6.795343, -0.651821, 0.051515, -1.143132, 0.198233, 4.951508, 9.569687, -244.436035, 13.727792, 100.772453
1759228716.447892, -0.155773, 6.894553, -1.647061, -0.081662, -0.986591, 0.064418, 5.976212, 9.688080, -243.212036, 13.727792, 100.772453
1759228716.467896, -0.398186, 6.860585, -1.962497, -0.161732, -0.751052, -0.127878, 6.126038, 9.638763, -243.200928, 13.727792, 100.772453
1759228716.487870, -0.370952, 6.756138, -1.702577, -0.262979, -0.455980, -0.329315, 6.048737, 9.349976, -243.156662, 13.727792, 100.772453
1759228716.507937, -0.442329, 6.579565, -1.384297, -0.361929, -0.125051, -0.487039, 5.746201, 9.267120, -242.727509, 13.727792, 100.772453
1759228716.527885, -0.644639, 6.558915, -1.420510, -0.381826, 0.175869, -0.632492, 5.415054, 8.296341, -242.815552, 13.727792, 100.772453
1759228716.547889, -0.732027, 6.684312, -1.581370, -0.270987, 0.499245, -0.726382, 5.099457, 8.424911, -242.660370, 13.727792, 100.772453
1759228716.567951, -0.491859, 6.406285, -2.125303, -0.122732, 0.786471, -0.794963, 4.933136, 7.803772, -243.335587, 13.727792, 100.772453
1759228716.587902, 0.102651, 6.029797, -2.060211, -0.056993, 0.882716, -0.841786, 4.169006, 7.353638, -244.327255, 13.727792, 100.772453
1759228716.607511, 0.733224, 6.344485, -2.432808, 0.218050, 0.321111, -0.859121, 3.781555, 6.451767, -244.510315, 13.727792, 100.772453
1759228716.627898, 1.923891, 6.743119, -2.523937, 0.256282, -0.168743, -0.818706, 3.398163, 5.805374, -244.099548, 13.727792, 100.772453
1759228716.647892, 2.765752, 7.180660, -1.934515, -0.013094, -0.029502, -0.668926, 3.488754, 5.400146, -243.315323, 13.727792, 100.772453
1759228716.667886, 3.433435, 7.612963, -0.901417, -0.366756, 0.225189, -0.410891, 2.885025, 5.241104, -243.666748, 13.727792, 100.772453
1759228716.687776, 2.732832, 8.367884, -0.619500, -0.705355, 0.241877, -0.356307, 2.653671, 5.137314, -243.413269, 13.727792, 100.772453
1759228716.707871, 2.557456, 9.340379, -0.904110, -0.935822, 0.058855, -0.386823, 2.373230, 4.131653, -243.371262, 13.727792, 100.772453
1759228716.727950, 3.804386, 9.935189, -1.788469, -0.962548, 0.515366, -0.179834, 2.128799, 3.562515, -243.857101, 13.727792, 100.772453
1759228716.747902, 3.507206, 10.141240, -2.996942, -0.958500, 1.634627, 0.216114, 1.864319, 3.501205, -244.112885, 13.727792, 100.772453
1759228716.767950, 1.102829, 9.901520, -4.197784, -1.050863, 2.435331, 0.452114, 0.974213, 3.751907, -245.740326, 13.727792, 100.772453
1759228716.786991, -1.718588, 9.452458, -4.915446, -1.079215, 2.527622, 0.294644, 0.339935, 3.650528, -247.437653, 13.727792, 100.772453
1759228716.807881, -2.422782, 9.379285, -5.008670, -0.830799, 1.920776, -0.042271, 0.129120, 3.565887, -248.549637, 13.727792, 100.772453
1759228716.827886, -0.650924, 9.697863, -4.999243, -0.299345, 1.423104, -0.361860, -0.591705, 3.345276, -249.609695, 13.727792, 100.772453
1759228716.847901, 3.459472, 14.809783, -3.948787, 0.389742, 0.989368, -0.332181, -1.027863, 2.948685, -249.538849, 13.727792, 100.772453
1759228716.867249, 3.863493, 14.993688, -1.628955, 0.874329, -0.529687, -0.173658, -1.124817, 2.540817, -249.037415, 13.727792, 100.772453
1759228716.887184, 3.804087, 13.814394, 2.368464, 0.541676, -2.095565, 0.014794, -0.728928, 2.809738, -248.602127, 13.727792, 100.772453
1759228716.907878, 8.466945, 14.501679, -1.203984, -0.819831, -0.075295, 0.463948, -0.584534, 3.018967, -247.597946, 13.727792, 100.772453
1759228716.927881, 3.178153, 16.952444, -5.498284, 0.822389, 1.297303, 0.881527, -1.183838, 3.790558, -248.590912, 13.727792, 100.772453
1759228716.948013, -3.816208, 13.045855, 0.319476, 2.135900, 0.444841, 0.611168, -0.595474, 4.976456, -249.066788, 13.727792, 100.772453
1759228716.967883, -4.692635, 11.544691, 6.495918, 1.002072, -0.934886, -0.239239, -0.499115, 5.286072, -248.956314, 13.727792, 100.772453
1759228716.987380, -3.518878, 10.158298, 5.909039, -0.160993, -3.148416, -0.681711, -0.450470, 5.377884, -246.823837, 13.727792, 100.772453
1759228717.007948, -2.505083, 11.039365, 3.049914, -0.680815, -4.270500, -0.809131, 0.709045, 4.691345, -244.010406, 13.727792, 100.772453
1759228717.027311, 0.312144, 12.230031, 0.314987, -1.021922, -2.165749, -0.879916, 1.490402, 3.837677, -242.273224, 13.727792, 100.772453
1759228717.047963, 3.567211, 11.535563, 0.443675, -1.007043, -0.181933, -0.595485, 1.710541, 3.327911, -241.607300, 13.727792, 100.772453
1759228717.068074, 5.350143, 9.584887, -0.424971, -1.110408, 0.990703, -0.331616, 1.701172, 2.793945, -242.450409, 13.727792, 100.772453
1759228717.087624, 3.551050, 8.329876, -2.733729, -1.088956, 2.651802, 0.059226, 0.508240, 2.439255, -243.811020, 13.727792, 100.772453
1759228717.107880, 0.335188, 7.020547, -3.440169, -1.013801, 2.742896, 0.194757, -0.171951, 2.589081, -245.240417, 13.727792, 100.772453
1759228717.127905, -1.880346, 7.199215, -5.524770, -0.815560, 0.920082, -0.030737, -0.452225, 2.322617, -246.054977, 13.727792, 100.772453
1759228717.147911, -1.620725, 7.457340, -6.661118, -0.104017, -0.654933, -0.312582, -0.199615, 2.303986, -245.853577, 13.727792, 100.772453
1759228717.167955, 0.777517, 7.083994, -5.251681, 0.588346, -0.812460, -0.331167, 0.156754, 2.248138, -245.067795, 13.727792, 100.772453
1759228717.187779, 2.189647, 6.431275, -1.945588, 0.765233, -0.418271, -0.091504, -0.197723, 2.836456, -244.413834, 13.727792, 100.772453
1759228717.207883, 1.532289, 5.607071, 1.278204, 0.334620, 0.047942, 0.062078, 0.124847, 2.926895, -244.661438, 13.727792, 100.772453
1759228717.227905, 2.055272, 4.094234, 0.863409, 0.104772, 0.877769, 0.048192, -0.466888, 2.839951, -244.869858, 13.727792, 100.772453
1759228717.247939, 1.912219, 4.995352, -2.311452, 0.500915, 1.901396, 0.167669, -0.642807, 3.660706, -246.327667, 13.727792, 100.772453
1759228717.267910, 0.873135, 7.253234, -2.802563, 0.493336, 1.491501, 0.097372, -0.986908, 4.037781, -247.354736, 13.727792, 100.772453
1759228717.287958, -0.681599, 8.717139, -1.042226, 0.552759, 0.456187, -0.087114, -1.318283, 4.183456, -248.193222, 13.727792, 100.772453
1759228717.307900, -0.136769, 8.634239, 0.292392, 0.534854, 0.690844, -0.386764, -1.379272, 4.170029, -248.072937, 13.727792, 100.772453
1759228717.327089, 2.778471, 7.975834, 1.144129, 0.686882, 0.741417, -0.545746, -1.982132, 4.178604, -248.761032, 13.727792, 100.772453
1759228717.347911, 8.091205, 8.419958, -0.979827, 0.671631, 0.783396, -0.130926, -2.480652, 4.143616, -248.696625, 13.727792, 100.772453
1759228717.367626, 11.851747, 12.321310, -4.295198, 1.017285, 0.970728, 0.933673, -2.388855, 5.082260, -249.812134, 13.727792, 100.772453
1759228717.387914, 9.350405, 17.972374, -5.847987, 1.668712, -0.380821, 2.078252, -1.882217, 7.059494, -249.517563, 13.727792, 100.772453
1759228717.407889, 2.716820, 23.450607, -4.649540, 2.271326, -1.453488, 2.223240, -1.219894, 9.545670, -249.507065, 13.727792, 100.772453
1759228717.427915, -2.418742, 21.883153, -1.192312, 2.728807, -3.359428, 1.512573, 0.208130, 11.149902, -248.228546, 13.727792, 100.772453
1759228717.447972, -3.815460, 17.960253, 1.505205, 2.786660, -3.812727, 1.080546, 1.306152, 12.624054, -245.888885, 13.727792, 100.772453
1759228717.467740, -6.156241, 14.145243, 6.490980, 1.873135, -1.404638, 1.079957, 2.147629, 13.593185, -246.139938, 13.727792, 100.772453
1759228717.487900, -7.161955, 7.696012, 7.416040, -0.058276, 1.424726, 0.790340, 2.516510, 14.658554, -246.324707, 13.727792, 100.772453
1759228717.507101, -5.576395, 4.940585, 1.307384, -1.458494, 1.611049, 0.970665, 2.875885, 14.919876, -247.020477, 13.727792, 100.772453
1759228717.527968, -3.924695, 6.181529, -0.517596, -1.829072, 1.591303, 0.330018, 2.096420, 14.957230, -247.593369, 13.727792, 100.772453
1759228717.547919, -3.025822, 6.241235, 0.479140, -1.999868, 1.856834, -0.225782, 2.037186, 14.710175, -248.235992, 13.727792, 100.772453
1759228717.567966, -2.163161, 3.834913, 0.123002, -2.182193, 1.942534, -0.438527, 0.940033, 13.808044, -248.371292, 13.727792, 100.772453
1759228717.587939, -1.636138, 1.656189, -0.805350, -2.237132, 1.865614, -0.604915, 0.329330, 13.348572, -249.212296, 13.727792, 100.772453
1759228717.607918, -1.480066, 0.203358, -1.595586, -1.982118, 1.551840, -1.177426, -0.022919, 11.852036, -249.131561, 13.727792, 100.772453
1759228717.627909, 0.164152, 1.121085, -2.806304, -1.435838, 0.839094, -1.846342, -1.147507, 10.866852, -248.693893, 13.727792, 100.772453
1759228717.647910, 2.654870, 4.162020, -4.578013, -0.562606, -0.988528, -1.979429, -1.091003, 9.538147, -248.269302, 13.727792, 100.772453
1759228717.667962, 4.894047, 8.028506, -6.953959, 0.302658, -1.775041, -1.724141, -1.491150, 8.617844, -247.764938, 13.727792, 100.772453
1759228717.687971, 7.983914, 10.301651, -5.535394, 0.665929, -0.923055, -1.137485, -1.750610, 7.908524, -246.870926, 13.727792, 100.772453
1759228717.707496, 7.707683, 12.472294, -0.266355, -0.037387, -1.018948, -0.506074, -1.838989, 7.554382, -245.760712, 13.727792, 100.772453
1759228717.727919, 5.691766, 11.298986, 1.365892, -0.963199, -2.750092, 0.139885, -1.202377, 7.466385, -244.189499, 13.727792, 100.772453
1759228717.747922, 2.113482, 11.198729, -1.262792, -0.571786, -1.532274, 0.719671, -0.410751, 7.618088, -242.398239, 13.727792, 100.772453
1759228717.767926, -2.407819, 15.135395, -8.441357, 0.196780, 1.310918, 0.853877, -0.290466, 8.289993, -242.546280, 13.727792, 100.772453
1759228717.787983, -5.770774, 17.132458, -6.769306, 0.651476, 0.518814, 0.505728, -0.584671, 9.515915, -242.419647, 13.727792, 100.772453
1759228717.807962, -4.997148, 13.798832, -2.401983, 0.192825, -0.975039, 0.275123, 0.057266, 10.152130, -242.440430, 13.727792, 100.772453
1759228717.827913, 0.630872, 11.553519, 2.771288, -0.077621, -0.500515, -0.222749, -0.032715, 10.316101, -241.393707, 13.727792, 100.772453
1759228717.847916, 9.193585, 15.765519, 0.058209, 0.765187, 2.008857, 0.830136, -0.224808, 10.227493, -242.336105, 13.727792, 100.772453
1759228717.867900, 10.613646, 23.445070, 0.908450, 0.956565, 2.086822, 0.544626, -0.594131, 11.323685, -244.324402, 13.727792, 100.772453
1759228717.887912, 2.742259, 16.367810, 1.633893, 0.195626, -0.249031, 0.039718, -1.147141, 11.704575, -245.447372, 13.727792, 100.772453
1759228717.907925, -2.409914, 9.946262, 2.170493, 0.441502, -2.604843, -0.041412, -0.436859, 12.175003, -243.759842, 13.727792, 100.772453
1759228717.927988, -5.579238, 8.475175, 2.160767, 0.512636, -3.058543, -0.674207, 0.412888, 11.904053, -242.220581, 13.727792, 100.772453
1759228717.947916, -6.252458, 5.482423, 2.382530, 0.041205, -2.728911, -1.338661, 1.339066, 11.857407, -240.548569, 13.727792, 100.772453
1759228717.967978, -4.317793, 4.747253, 3.927089, -1.356794, -1.912121, -1.192984, 1.812500, 10.374847, -238.602814, 13.727792, 100.772453
1759228717.987930, -1.813907, 8.680477, 1.972822, -2.584176, 1.141101, -1.247664, 1.340302, 8.850571, -237.653900, 13.727792, 100.772453
1759228718.007900, 5.623680, 15.613636, -2.083554, -2.185560, 4.869192, -0.623397, 0.066635, 7.364273, -239.008621, 13.727792, 100.772453
1759228718.027902, 10.527454, 13.112294, -6.177190, -0.779090, 4.463497, 0.003236, -1.692764, 6.928162, -242.529434, 13.727792, 100.772453
1759228718.047928, 5.541829, 7.147291, -7.870040, 0.470991, -0.063420, -0.008399, -2.558670, 6.693512, -244.076035, 13.727792, 100.772453
1759228718.067321, 0.474501, 3.346046, -5.002535, 1.245258, -1.999435, 0.244428, -1.789459, 7.693710, -243.411133, 13.727792, 100.772453
1759228718.087904, -4.069993, 1.211167, -1.099836, 1.278660, -1.809134, -0.175260, -0.947205, 8.178375, -241.609207, 13.727792, 100.772453
1759228718.107916, -4.569783, 1.258303, -1.606958, 0.634861, 0.365590, -0.205902, -1.094894, 8.452332, -241.867493, 13.727792, 100.772453
1759228718.127914, -1.212962, 5.871480, 0.307356, 0.681226, 0.813170, 0.051845, -1.594131, 8.703491, -242.093582, 13.727792, 100.772453
1759228718.147921, 1.182287, 9.934291, 0.908151, 0.798473, 1.670342, 0.022839, -1.758591, 8.929855, -243.129837, 13.727792, 100.772453
1759228718.167977, 4.895095, 12.094310, -1.499369, 0.905118, 3.052828, 0.303519, -2.268448, 9.540253, -245.309540, 13.727792, 100.772453
1759228718.187910, 7.945457, 13.147609, -0.992995, 0.699076, 2.127840, 1.112574, -2.882996, 10.467850, -246.818665, 13.727792, 100.772453
1759228718.207972, 10.390985, 14.764443, -3.766977, 0.989813, 1.225409, 1.993840, -2.823227, 11.717987, -248.699860, 13.727792, 100.772453
1759228718.227932, 7.293337, 15.824775, -6.018275, 2.028614, -1.099752, 2.050912, -2.194809, 13.872849, -248.720352, 13.727792, 100.772453
1759228718.247989, 3.166332, 16.584186, -4.360140, 2.552124, -2.559108, 2.025435, -0.488327, 15.938828, -248.300476, 13.727792, 100.772453
1759228718.267930, -1.317260, 18.292748, 0.900519, 2.177221, -2.737510, 1.505118, 0.480911, 17.577026, -247.971634, 13.727792, 100.772453
1759228718.287982, -5.371242, 18.803761, 3.616891, 1.167947, -1.314367, 1.060799, 1.709702, 18.926193, -246.112869, 13.727792, 100.772453
1759228718.307902, -6.566397, 12.037447, 4.523395, 0.089701, 0.163297, 0.742354, 2.033279, 19.678680, -246.779724, 13.727792, 100.772453
1759228718.327917, -3.926491, 6.196044, 2.454206, -0.837379, 0.946410, 0.588344, 2.016403, 20.093216, -246.862625, 13.727792, 100.772453
1759228718.348021, -4.910208, 6.059425, 0.019154, -1.293181, 1.329116, -0.077166, 2.003571, 20.261093, -247.337296, 13.727792, 100.772453
1759228718.367975, -4.142717, 7.327454, -0.127042, -1.785904, 1.680384, -0.504938, 1.618042, 19.334732, -248.112473, 13.727792, 100.772453
1759228718.387942, -3.397372, 9.033323, 0.586729, -2.128382, 1.998542, -0.805341, 0.788696, 18.855255, -248.127472, 13.727792, 100.772453
1759228718.407979, -2.373103, 8.976012, -0.052224, -2.139166, 2.571319, -1.162344, 0.233688, 17.795105, -248.959106, 13.727792, 100.772453
1759228718.427929, 0.111929, 7.215076, -0.519542, -1.649441, 2.676864, -1.544840, -1.063782, 16.804749, -249.803345, 13.727792, 100.772453
1759228718.447968, 2.251597, 5.260211, -1.449988, -1.205493, 2.398699, -1.627069, -2.348862, 15.445312, -251.272675, 13.727792, 100.772453
1759228718.468104, 2.620454, 4.814440, -2.557157, -0.869909, 1.204837, -1.701441, -2.706894, 14.422882, -252.333160, 13.727792, 100.772453
1759228718.487984, 1.978957, 5.274277, -4.098424, -0.487046, -0.392383, -1.366458, -3.251099, 12.968674, -252.032562, 13.727792, 100.772453
1759228718.506958, 2.018761, 5.188385, -4.170400, -0.302988, -1.223329, -1.130107, -3.748276, 12.258667, -250.824188, 13.727792, 100.772453
1759228718.527999, 1.677737, 5.625775, -4.056675, -0.168201, -0.927661, -0.942135, -3.746185, 11.357819, -250.134064, 13.727792, 100.772453
1759228718.547938, 2.781913, 6.332214, -4.282778, 0.158633, -0.227828, -0.727980, -3.973297, 11.013916, -249.029495, 13.727792, 100.772453
1759228718.568012, 4.051588, 7.418583, -2.185906, 0.345633, -0.732935, -0.671293, -4.414139, 10.496704, -248.974075, 13.727792, 100.772453
1759228718.587999, 5.873276, 9.490316, -0.537648, 0.283288, -1.856843, -0.262814, -4.597336, 10.274704, -247.754410, 13.727792, 100.772453
1759228718.607134, 7.697658, 11.546038, 0.133776, -0.485319, -1.813332, 0.575313, -4.149460, 10.700333, -246.347809, 13.727792, 100.772453
1759228718.627916, 4.933552, 13.266870, -1.719935, -0.866240, -0.187072, 1.286916, -3.496628, 11.407822, -246.591431, 13.727792, 100.772453
1759228718.647931, 1.079037, 11.251102, -2.085649, -0.173166, 1.093800, 1.685933, -3.383530, 12.675903, -246.184204, 13.727792, 100.772453
1759228718.667916, -4.030788, 12.956073, -3.825485, -0.028944, 2.337855, 1.323087, -2.740173, 13.986679, -246.981720, 13.727792, 100.772453
1759228718.687986, -7.330597, 13.006351, -13.207165, -0.148233, 2.138511, 0.754652, -3.312454, 14.296173, -248.893280, 13.727792, 100.772453
1759228718.707309, -3.830872, 8.522460, 1.455375, 1.645929, -2.993252, 0.257096, -3.039108, 15.074463, -247.931366, 13.727792, 100.772453
1759228718.727986, -1.095198, 13.653384, 4.145710, 1.392322, -2.714924, -0.097342, -2.287094, 15.702301, -246.691299, 13.727792, 100.772453
1759228718.747944, 4.343980, 25.952099, 5.393239, -0.046962, -1.521011, -0.380503, -1.958923, 15.482117, -245.131882, 13.727792, 100.772453
1759228718.767916, 10.050859, 20.393361, -0.149937, -0.850916, 0.435589, -0.526532, -2.053482, 14.953949, -245.566010, 13.727792, 100.772453
1759228718.787938, 4.544644, 7.662343, -1.347936, 0.267590, 0.355904, 0.125557, -2.022171, 15.348328, -245.078445, 13.727792, 100.772453
1759228718.807512, -1.441309, 3.902100, 1.016039, 1.069863, -1.057957, 0.253460, -1.859009, 15.825058, -245.103149, 13.727792, 100.772453
1759228718.827989, -4.556615, 6.003760, 3.555988, 0.193482, -1.685559, -0.239161, -1.276474, 15.747055, -244.115097, 13.727792, 100.772453
1759228718.848001, -3.845537, 10.559178, 3.394978, -1.128946, -1.350481, -0.577375, -1.170898, 15.529465, -242.933258, 13.727792, 100.772453
1759228718.867921, 0.949301, 13.667899, -1.354071, -1.407503, 0.817557, -0.829694, -1.466919, 14.482895, -242.381546, 13.727792, 100.772453
1759228718.887997, 5.707029, 10.849175, -4.866813, -0.354921, 2.514361, -0.254992, -2.159439, 13.896255, -243.627731, 13.727792, 100.772453
1759228718.907685, 1.790264, 6.610989, -2.594566, 0.217497, 1.452480, -0.089736, -2.946030, 14.237030, -245.418854, 13.727792, 100.772453
1759228718.927918, -0.864157, 3.224391, -0.817620, 0.426562, -0.315794, -0.401192, -2.920395, 14.147858, -245.273468, 13.727792, 100.772453
1759228718.947935, -0.848146, 2.090886, -0.133177, 0.328737, -1.074795, -0.442171, -2.817886, 14.118546, -244.839096, 13.727792, 100.772453
1759228718.968001, 0.404770, 4.937592, -0.541239, -0.062416, 0.419674, -0.267189, -2.856903, 14.215698, -244.622299, 13.727792, 100.772453
1759228718.987958, 1.781286, 9.379285, -2.179172, -0.332020, 2.368521, 0.075792, -3.250259, 14.210388, -245.671585, 13.727792, 100.772453
1759228719.007896, 2.663100, 9.768792, -4.032733, 0.210485, 2.312910, 0.157558, -4.019943, 14.342072, -247.452469, 13.727792, 100.772453
1759228719.027928, 4.192995, 8.961347, -4.123563, 1.127276, 0.629115, 0.222169, -3.978271, 14.548019, -248.391296, 13.727792, 100.772453
1759228719.048005, 6.835595, 10.545860, -3.974075, 1.800582, -0.166823, 0.474935, -3.862015, 15.234955, -249.112839, 13.727792, 100.772453
1759228719.067923, 9.301922, 15.142278, -4.099771, 2.137211, -0.536507, 1.005784, -3.136200, 16.766220, -249.056366, 13.727792, 100.772453
1759228719.087989, 5.505616, 16.093375, -3.724480, 2.472933, -0.990565, 1.522696, -2.713715, 17.977936, -250.093307, 13.727792, 100.772453
1759228719.107948, 2.417545, 18.027141, -3.330335, 2.786548, -1.573338, 1.883066, -1.350937, 19.965942, -250.108353, 13.727792, 100.772453
1759228719.127990, -3.990236, 17.814656, 0.270545, 2.783360, -2.295695, 1.717237, 0.102234, 21.905807, -249.810364, 13.727792, 100.772453
1759228719.147950, -7.026982, 16.155474, 3.696498, 2.264859, -1.930892, 1.173355, 0.819885, 23.258362, -249.844254, 13.727792, 100.772453
1759228719.168011, -5.468357, 12.201899, 7.480683, 0.794093, 1.104987, 1.079095, 1.569244, 24.031219, -250.421112, 13.727792, 100.772453
1759228719.187957, -3.031957, 7.418434, 7.516446, -1.156509, 2.048818, 0.848788, 1.813126, 24.480515, -251.440247, 13.727792, 100.772453
1759228719.207925, -0.167444, 6.780828, 1.205780, -2.146381, 1.869886, 0.436721, 1.690125, 24.664780, -252.202728, 13.727792, 100.772453
1759228719.227077, 0.861164, 8.009203, -1.549946, -2.009686, 1.789105, -0.005139, 1.680237, 24.855453, -251.916306, 13.727792, 100.772453
1759228719.247969, -0.302118, 8.727464, -1.598878, -2.023905, 1.489977, -0.422869, 1.332718, 24.184464, -251.746902, 13.727792, 100.772453
1759228719.267787, -1.845481, 8.686463, -2.648286, -2.012665, 0.742706, -0.903066, 0.467178, 23.531281, -251.218887, 13.727792, 100.772453
1759228719.287628, -1.102081, 7.761403, -2.905813, -1.652243, 0.069210, -1.359235, 0.075806, 22.070740, -250.265518, 13.727792, 100.772453
1759228719.308133, 1.804480, 7.240664, -2.874239, -1.090660, -0.310540, -1.562288, -0.392090, 21.215439, -249.454453, 13.727792, 100.772453
1759228719.327278, 3.399617, 6.137237, -2.234688, -0.742445, -0.769806, -1.541296, -1.490143, 20.017868, -248.847122, 13.727792, 100.772453
1759228719.347952, 3.267337, 5.017947, -1.566107, -0.644082, -1.780386, -1.555605, -1.490616, 19.078598, -247.325653, 13.727792, 100.772453
1759228719.367929, 2.801665, 4.496011, -2.089839, -0.522835, -2.610815, -1.356835, -1.407623, 17.860703, -244.951431, 13.727792, 100.772453
1759228719.387931, 1.694796, 5.571307, -2.068141, -0.554415, -2.741618, -0.938112, -1.052902, 17.410248, -243.265656, 13.727792, 100.772453
1759228719.407995, -0.049979, 7.376086, -2.274192, -0.623068, -2.239283, -0.733032, -0.908813, 16.078720, -241.442963, 13.727792, 100.772453
1759228719.427947, -0.969203, 8.169016, -4.597166, -0.197243, -1.442937, -0.715470, -0.766373, 15.968948, -240.793762, 13.727792, 100.772453
1759228719.447961, 0.048632, 8.394670, -3.014450, 0.214620, -1.785372, -0.434748, -0.012024, 15.711975, -238.954788, 13.727792, 100.772453
1759228719.468033, 0.953192, 9.464279, -1.409586, 0.284346, -2.143075, 0.137492, 0.717117, 15.805466, -238.372940, 13.727792, 100.772453
1759228719.487935, 0.063895, 10.272921, -0.682497, 0.001415, 0.235741, 0.658038, 1.472824, 16.583420, -237.441101, 13.727792, 100.772453
1759228719.507941, -2.752733, 10.062381, -0.572364, -1.020811, 2.807516, 0.488917, 1.464447, 16.954361, -238.244766, 13.727792, 100.772453
1759228719.527630, -3.667169, 9.995792, -1.546654, -1.454474, 3.929279, 0.399381, -0.054550, 16.625107, -239.684982, 13.727792, 100.772453
1759228719.547959, -0.616806, 10.801890, -7.659500, -0.548410, 6.799469, 0.688662, -1.794601, 16.813156, -242.769882, 13.727792, 100.772453
1759228719.567934, -1.574337, 11.179874, -9.731682, 0.241825, 3.753255, 0.946269, -3.185944, 17.139801, -247.324509, 13.727792, 100.772453
1759228719.587936, -4.455460, 11.060613, -4.098873, 1.267763, -1.575903, 0.365914, -3.211639, 18.403702, -248.242447, 13.727792, 100.772453
1759228719.608004, -2.478448, 12.903400, 3.789872, 0.852007, -2.819291, -0.586720, -2.226349, 18.704437, -247.176605, 13.727792, 100.772453
1759228719.627703, 9.954492, 23.422774, 1.959953, 1.242677, 0.702251, -0.782999, -2.720718, 18.141235, -246.476334, 13.727792, 100.772453
1759228719.647951, 22.650943, 26.145730, 3.398719, 0.502296, 1.337420, 0.027667, -2.733414, 18.381042, -247.878326, 13.727792, 100.772453
1759228719.667419, 7.566276, 6.933907, 2.338836, 0.734578, -1.253072, 0.284912, -2.893478, 18.365494, -247.867416, 13.727792, 100.772453
1759228719.688005, 2.112733, 7.138013, 2.418443, 1.212230, -2.896658, 0.526565, -1.968079, 18.726746, -246.620010, 13.727792, 100.772453
1759228719.707930, -2.141464, 8.939201, 4.895245, 0.240992, -4.044928, 0.002970, -1.140945, 19.524002, -244.602829, 13.727792, 100.772453
1759228719.727969, -1.908628, 10.689811, 7.177667, -1.197014, -3.083838, -0.196243, 0.023972, 19.507401, -241.780045, 13.727792, 100.772453
1759228719.747951, -2.993949, 11.085902, 3.331831, -1.830567, -0.638941, -0.368623, 0.408737, 18.733032, -240.191971, 13.727792, 100.772453
1759228719.768006, -2.071733, 11.186009, -0.770634, -2.153105, 1.806689, -0.687257, 0.376083, 18.041443, -239.873993, 13.727792, 100.772453
1759228719.787950, 0.781557, 11.657368, -4.421193, -2.181213, 2.289745, -0.653502, -0.791428, 16.550995, -240.251312, 13.727792, 100.772453
1759228719.807960, 0.698209, 8.808717, -9.610475, -0.731175, 0.068006, -0.246733, -1.159225, 15.748764, -240.679810, 13.727792, 100.772453
1759228719.827962, -1.570746, 5.469703, -9.725846, 1.026637, -1.509872, -0.197268, -0.815216, 15.675232, -240.771317, 13.727792, 100.772453
1759228719.847950, -1.960103, 4.557064, -4.606145, 1.416461, -1.608361, -0.141129, -0.114471, 16.041763, -240.120438, 13.727792, 100.772453
1759228719.867960, -2.541295, 3.612102, -1.512238, 1.155114, -0.389068, -0.242200, 0.045120, 16.815857, -239.482330, 13.727792, 100.772453
1759228719.887831, -2.444031, 4.175188, 1.180641, 0.462084, 1.090964, -0.427314, -0.092590, 16.369675, -239.971176, 13.727792, 100.772453
1759228719.907954, -0.150835, 6.072593, 2.682254, -0.069634, 1.530200, -0.530698, -0.841812, 16.147552, -241.031967, 13.727792, 100.772453
1759228719.927990, 2.652327, 8.513482, 1.898452, 0.090864, 1.754082, -0.527103, -1.494705, 16.082077, -242.153839, 13.727792, 100.772453
1759228719.947954, 5.151723, 9.641450, 0.721253, 0.206227, 1.892627, -0.280481, -2.196686, 16.166946, -243.453613, 13.727792, 100.772453
1759228719.967942, 7.909395, 9.969755, 1.149366, 0.146229, 1.667749, 0.252352, -2.905685, 16.161774, -244.625931, 13.727792, 100.772453
1759228719.987959, 9.791088, 9.319131, -0.106841, 0.367632, 1.421049, 0.725825, -2.704788, 16.622696, -246.774857, 13.727792, 100.772453
1759228720.008023, 9.913342, 10.495133, -3.050213, 0.551212, 0.585681, 1.629907, -2.477539, 17.482529, -247.181564, 13.727792, 100.772453
1759228720.027989, 8.158093, 15.438261, -8.037036, 1.863610, -1.494956, 2.409967, -1.413940, 19.294922, -247.524628, 13.727792, 100.772453
1759228720.048024, 1.990629, 19.427151, -8.742727, 3.256436, -3.097358, 2.559732, 0.330826, 21.473938, -246.381012, 13.727792, 100.772453
1759228720.067973, -3.061735, 18.511069, -0.955885, 3.139018, -2.734627, 2.166218, 2.606842, 23.717102, -246.835083, 13.727792, 100.772453
1759228720.088015, -5.087978, 18.517354, 2.593818, 2.062651, -1.371361, 1.967723, 4.734772, 25.435089, -247.105179, 13.727792, 100.772453
1759228720.108125, -6.852654, 15.195699, 4.323030, 0.869257, 0.229137, 1.237390, 5.618149, 26.612701, -247.526779, 13.727792, 100.772453
1759228720.128022, -7.417386, 9.955390, 6.059425, -0.607607, 1.341315, 0.630307, 5.970566, 26.693497, -248.006836, 13.727792, 100.772453
1759228720.148014, -4.763563, 6.994959, 4.171447, -1.725591, 1.037777, 0.178734, 6.128754, 26.878052, -248.697159, 13.727792, 100.772453
1759228720.168011, -1.458218, 8.168717, 1.021127, -2.099200, 1.438000, -0.283191, 5.954147, 26.162277, -247.582108, 13.727792, 100.772453
1759228720.188064, -0.247950, 10.500968, -2.197727, -1.851632, 1.385704, -0.584761, 5.278259, 25.792694, -247.114853, 13.727792, 100.772453
1759228720.208024, -1.072902, 10.183437, -2.550124, -1.651982, 1.086269, -0.671708, 4.990936, 25.240021, -247.539276, 13.727792, 100.772453
1759228720.228031, -2.301127, 7.584831, -1.971475, -1.491478, 0.741507, -0.971157, 3.837097, 24.616653, -246.761887, 13.727792, 100.772453
1759228720.248024, -3.140444, 4.547038, -2.162114, -1.031273, -0.089187, -1.443944, 3.304443, 23.140488, -246.829437, 13.727792, 100.772453
1759228720.268138, -2.101361, 3.224541, -2.295441, -0.629533, -0.599417, -1.852515, 2.756424, 21.848297, -245.885254, 13.727792, 100.772453
1759228720.288016, -1.189020, 2.076820, -1.341351, -0.391259, -0.868644, -2.001448, 1.741928, 20.800171, -245.013977, 13.727792, 100.772453
1759228720.308125, 2.767547, 5.601983, -2.031929, -0.363407, -1.126202, -1.684899, 1.325241, 19.436996, -244.054428, 13.727792, 100.772453
1759228720.327109, 4.031536, 7.096414, -1.383549, -0.658301, -1.672325, -1.363065, 1.146149, 18.620773, -242.652222, 13.727792, 100.772453
1759228720.348004, 3.353528, 8.346786, -2.885612, -0.589244, -1.248584, -1.294069, 1.527283, 17.993835, -241.368469, 13.727792, 100.772453
1759228720.367950, 1.620426, 9.159168, -8.897751, 0.120564, -0.259441, -1.189138, 1.452393, 17.002884, -241.229202, 13.727792, 100.772453
1759228720.387961, 4.518158, 8.104373, -3.141342, 0.255405, -1.167071, -0.338718, 1.587952, 16.835678, -240.795059, 13.727792, 100.772453
1759228720.407989, 2.180519, 8.128614, 0.524779, 0.254419, -0.758468, 0.483661, 2.133469, 16.516769, -239.845474, 13.727792, 100.772453
1759228720.427261, 0.586130, 8.688707, 0.569072, -0.109730, 0.922194, 0.879559, 2.656509, 17.181488, -239.549881, 13.727792, 100.772453
1759228720.447024, -2.182464, 11.036073, -2.574365, -0.629381, 3.303906, 0.932949, 2.192078, 17.880508, -241.373413, 13.727792, 100.772453
1759228720.467304, -4.061613, 12.771569, -4.667646, -0.384499, 3.944924, 0.751729, 1.198105, 18.316315, -243.475311, 13.727792, 100.772453
1759228720.488036, -5.349844, 11.621604, -2.066346, 0.350179, 2.031011, 0.676442, 1.315186, 18.519424, -245.713989, 13.727792, 100.772453
1759228720.507944, -3.038092, 12.686276, 2.420239, -0.094746, 0.345825, 0.128581, 1.117386, 19.051270, -245.587265, 13.727792, 100.772453
1759228720.527451, 12.306945, 25.975292, -0.644340, -0.198839, 1.658315, -0.500163, 0.991989, 18.587280, -246.523819, 13.727792, 100.772453
1759228720.547729, 21.958869, 24.780286, -0.950348, 0.384206, 2.916084, 0.884038, 0.781250, 18.952896, -248.740433, 13.727792, 100.772453
1759228720.567466, 4.138378, 8.423101, -2.614019, 1.055684, 0.500673, 1.003312, 0.700500, 19.403214, -249.668091, 13.727792, 100.772453
1759228720.587970, -1.009605, 7.166743, 0.469862, 1.855873, -2.318803, 1.233890, 1.866714, 20.688339, -249.185608, 13.727792, 100.772453
1759228720.607951, -4.895993, 6.808661, 4.184915, 1.776156, -3.560893, 0.421808, 2.672577, 21.277634, -248.391098, 13.727792, 100.772453
1759228720.627671, -4.007744, 9.442133, 7.201759, 0.426883, -4.238480, -0.457404, 3.727188, 21.079926, -246.924606, 13.727792, 100.772453
1759228720.648035, -2.763058, 9.377789, 5.839907, -1.023719, -3.449574, -0.887188, 4.712509, 20.476700, -243.375824, 13.727792, 100.772453
1759228720.667964, -0.959776, 7.916129, 2.317288, -1.590014, -1.430225, -0.796970, 4.906082, 19.778137, -242.262894, 13.727792, 100.772453
1759228720.688007, 1.774253, 10.091859, 0.287903, -2.294388, 1.184119, -1.100649, 4.538971, 18.496323, -241.765701, 13.727792, 100.772453
1759228720.707950, 5.489306, 13.823372, -4.069694, -2.804446, 3.919506, -1.094200, 2.750854, 16.703217, -242.204590, 13.727792, 100.772453
1759228720.727849, 4.470274, 10.029161, -10.356867, -1.647159, 2.793963, -0.382312, 1.678558, 15.539307, -243.579315, 13.727792, 100.772453
1759228720.747731, 0.940921, 5.807884, -12.017995, 0.605371, -1.022275, 0.012567, 1.426331, 15.675140, -243.983948, 13.727792, 100.772453
1759228720.767956, -0.958130, 5.222352, -3.793613, 1.948686, -2.193545, -0.052538, 2.326950, 15.695129, -243.632294, 13.727792, 100.772453
1759228720.788024, -1.083975, 4.505888, 0.171934, 1.895688, -1.828640, -0.228838, 3.093674, 16.229935, -242.535675, 13.727792, 100.772453
1759228720.808022, -1.080234, 4.120571, 2.911798, 1.066386, -1.201907, -0.322154, 3.551697, 16.473694, -242.234711, 13.727792, 100.772453
1759228720.827979, 0.561291, 5.876119, 4.181024, 0.123526, -0.482444, -0.126928, 4.043930, 16.449783, -241.507950, 13.727792, 100.772453
1759228720.847950, 3.219453, 8.170064, 3.955371, -0.479227, 0.329383, -0.045289, 4.030014, 16.466812, -241.608627, 13.727792, 100.772453
1759228720.867988, 5.617695, 9.773281, 2.566883, -0.651369, 1.467554, 0.122214, 3.411362, 15.743256, -242.233276, 13.727792, 100.772453
1759228720.887969, 7.997382, 10.783933, 0.514454, -0.609264, 3.007868, 0.229905, 2.890472, 15.849152, -243.517883, 13.727792, 100.772453
1759228720.907964, 8.197896, 10.901399, -0.821959, -0.623598, 3.357789, 0.576985, 2.616318, 15.622742, -245.092590, 13.727792, 100.772453
1759228720.927962, 7.015909, 12.720992, -5.044284, -0.887268, 0.823327, 1.093750, 2.656982, 16.082123, -245.780716, 13.727792, 100.772453
1759228720.947974, 7.451354, 17.989582, -12.014702, 1.152690, -1.466326, 2.089818, 4.001312, 16.748001, -245.476166, 13.727792, 100.772453
1759228720.967964, 2.572270, 23.693917, -7.463624, 3.270558, -4.650902, 2.667400, 5.708832, 18.350922, -244.609116, 13.727792, 100.772453
1759228720.987976, -0.069731, 23.561787, -1.062876, 3.791708, -4.521361, 2.566837, 8.160172, 20.595444, -243.552444, 13.727792, 100.772453
1759228721.007963, -3.187281, 18.510770, 3.732710, 3.311658, -2.531840, 1.985693, 9.800659, 22.397324, -243.577866, 13.727792, 100.772453
1759228721.027969, -6.701071, 13.343933, 7.368006, 1.729237, -0.048394, 1.037070, 10.957932, 22.992737, -244.469940, 13.727792, 100.772453
1759228721.048046, -6.249166, 8.129362, 5.709722, 0.106524, 1.159488, 0.519495, 10.905655, 23.529785, -244.814957, 13.727792, 100.772453
1759228721.067968, -6.303185, 6.497863, 3.368941, -1.387652, 0.411755, 0.662203, 10.913086, 23.465790, -245.186127, 13.727792, 100.772453
1759228721.087964, -7.178714, 7.332691, 0.851588, -2.286749, -0.090709, 0.391187, 11.494675, 22.850189, -243.681519, 13.727792, 100.772453
1759228721.107646, -6.457012, 7.776816, -2.268057, -2.111506, 1.206303, -0.328676, 11.012894, 22.444016, -243.544495, 13.727792, 100.772453
1759228721.127407, -3.182343, 7.260417, -2.453159, -1.375716, 2.232703, -0.763631, 9.886658, 21.389221, -243.975494, 13.727792, 100.772453
1759228721.147317, -0.706888, 7.278223, -1.376067, -1.127506, 1.467629, -0.892861, 9.080444, 20.963425, -244.065674, 13.727792, 100.772453
1759228721.167962, -0.473154, 6.147711, -1.881693, -1.056177, 0.935694, -1.091638, 8.693802, 19.919296, -243.846329, 13.727792, 100.772453
1759228721.187993, -1.116147, 4.759374, -2.196830, -0.520035, 0.486054, -1.334358, 7.785492, 19.195786, -243.594208, 13.727792, 100.772453
1759228721.207982, -1.638681, 3.961207, -0.763601, -0.075852, -0.303203, -1.609557, 7.221634, 18.205750, -243.005157, 13.727792, 100.772453
1759228721.228009, -1.823185, 3.885041, 0.508618, -0.333973, -0.982549, -2.031458, 6.889862, 17.318222, -243.036041, 13.727792, 100.772453
1759228721.247998, -0.035165, 6.673837, 0.988955, -0.631787, -0.600058, -1.898084, 6.693512, 16.161789, -242.354980, 13.727792, 100.772453
1759228721.268030, 1.473781, 7.054216, -1.534983, -0.590580, 0.393323, -1.707573, 6.680969, 14.827469, -242.106689, 13.727792, 100.772453
1759228721.287975, 2.358738, 7.225252, -5.048922, -0.212590, 2.549971, -1.422250, 5.718399, 13.962067, -242.434769, 13.727792, 100.772453
1759228721.308005, 4.901829, 8.350826, -5.042937, -0.374790, 2.264919, -0.857947, 4.813156, 12.904221, -243.784958, 13.727792, 100.772453
1759228721.328030, 7.309647, 9.426271, -1.602170, -0.810776, 0.349170, -0.066742, 4.102722, 12.563354, -244.494598, 13.727792, 100.772453
1759228721.347681, 8.313566, 11.839776, -1.624765, -0.929209, 0.454223, 0.619354, 4.504028, 12.286865, -244.384827, 13.727792, 100.772453
1759228721.367974, 8.316409, 12.571803, -4.311957, -0.392158, 2.466348, 1.024389, 4.186188, 12.488876, -245.127579, 13.727792, 100.772453
1759228721.387983, 5.507861, 8.485649, -0.554108, 0.664753, 1.036675, 1.181422, 4.287201, 12.799591, -246.337341, 13.727792, 100.772453
1759228721.407976, 1.385046, 7.112575, -0.045340, 0.020153, 0.224870, 1.873547, 4.549652, 13.528458, -246.554138, 13.727792, 100.772453
1759228721.427970, -2.281076, 10.104878, -2.043601, -2.220546, 0.861373, 2.307815, 5.654114, 13.982452, -246.375565, 13.727792, 100.772453
1759228721.448050, 6.910863, 22.710050, -5.730821, 0.869562, 0.870070, 2.511936, 6.096893, 14.492416, -246.628983, 13.727792, 100.772453
1759228721.467177, 18.481591, 27.120020, -6.380847, 2.099723, 2.518650, 1.642797, 6.225723, 15.995712, -248.270157, 13.727792, 100.772453
1759228721.488045, 0.264110, 12.011560, -5.934178, 3.048633, -3.246873, 1.308709, 6.623383, 17.036484, -249.379974, 13.727792, 100.772453
1759228721.507981, -5.970840, 7.113772, 4.763863, 3.323421, -3.593108, 0.989043, 7.722412, 18.322372, -248.048813, 13.727792, 100.772453
1759228721.527969, -6.490830, 8.726715, 10.067319, 0.885240, -0.797259, 0.377700, 8.848206, 18.608475, -248.173569, 13.727792, 100.772453
1759228721.547986, -6.101922, 10.017190, 10.713304, -1.337627, 1.468613, -0.796697, 8.584976, 18.728058, -248.041168, 13.727792, 100.772453
1759228721.568078, -5.313033, 10.385448, 3.150769, -1.592665, 0.027556, -1.457218, 8.033493, 17.761169, -247.882690, 13.727792, 100.772453
1759228721.588027, -3.011606, 11.727997, 0.485125, -1.506927, -2.051603, -1.572998, 7.373123, 16.361298, -246.852509, 13.727792, 100.772453
1759228721.608050, 0.424372, 12.028469, 1.351377, -2.377740, -1.796134, -2.036466, 7.271378, 14.925461, -245.054291, 13.727792, 100.772453
1759228721.628022, 9.220370, 13.726557, -1.679832, -2.602338, 2.189781, -1.215740, 7.409210, 13.340332, -244.492645, 13.727792, 100.772453
1759228721.648053, 10.837653, 8.208969, -4.132991, -0.959474, 3.478635, -0.620660, 6.066071, 12.063416, -245.280075, 13.727792, 100.772453
1759228721.668099, 9.625439, 5.795764, -4.504541, -0.090444, 1.283880, -0.300755, 5.337234, 11.510773, -246.119858, 13.727792, 100.772453
1759228721.687978, 6.461352, 6.579117, -6.757933, 1.036286, -1.532602, 0.209184, 5.056580, 11.293671, -246.664932, 13.727792, 100.772453
1759228721.708051, 1.979406, 5.911434, -4.298789, 1.681184, -2.431608, 0.257505, 5.632736, 11.029617, -245.079880, 13.727792, 100.772453
1759228721.728045, 0.730082, 6.775142, -0.645387, 1.911729, -2.501831, 0.110333, 6.671310, 11.706284, -244.250626, 13.727792, 100.772453
1759228721.747994, -0.328754, 8.685864, 0.857423, 1.826625, -2.055645, 0.090584, 7.161453, 11.926453, -243.086807, 13.727792, 100.772453
1759228721.767981, 0.739958, 11.865215, 2.194585, 1.328076, -1.665352, 0.268907, 7.094467, 11.780365, -243.573837, 13.727792, 100.772453
1759228721.788006, 2.142960, 14.738406, 2.879925, 0.745202, -1.278476, 0.446116, 8.267868, 12.590790, -243.238205, 13.727792, 100.772453
1759228721.807974, 3.167379, 15.603611, 1.529596, 0.370532, -0.942855, 0.752789, 8.464905, 12.518768, -242.116440, 13.727792, 100.772453
1759228721.828012, 4.235193, 15.925481, -0.486621, 0.026318, -0.246393, 1.438686, 9.045944, 12.573807, -241.848419, 13.727792, 100.772453
1759228721.848056, 4.306271, 20.649840, -1.564461, 0.026008, -0.064004, 1.849782, 9.297745, 13.589035, -241.572968, 13.727792, 100.772453
1759228721.867995, 0.164452, 18.593370, -2.355894, -0.081259, -0.192677, 1.529948, 9.546432, 14.077332, -241.386139, 13.727792, 100.772453
1759228721.887992, -2.966865, 15.278897, -2.293346, -0.227196, -1.019588, 0.771075, 10.322952, 14.625214, -241.657928, 13.727792, 100.772453
1759228721.908044, -4.270059, 11.320534, -2.319383, -0.110783, -0.954562, 0.174418, 10.831268, 14.406555, -240.640442, 13.727792, 100.772453
1759228721.928078, -3.671359, 8.856750, -1.594389, -0.085730, -0.524691, -0.005722, 10.791977, 14.897858, -240.429535, 13.727792, 100.772453
1759228721.947714, -3.105429, 6.959196, -0.150685, -0.424893, -0.499130, -0.188733, 10.862717, 14.847534, -239.600113, 13.727792, 100.772453
1759228721.967984, -3.216909, 6.516418, 0.404321, -0.889285, -0.662505, -0.423498, 10.842606, 14.490707, -239.063721, 13.727792, 100.772453
1759228721.987981, -3.172168, 7.806295, 0.127042, -1.217175, -0.489295, -0.450086, 10.582703, 13.936966, -238.475296, 13.727792, 100.772453
1759228722.008045, -2.834735, 8.900295, -0.852485, -1.176554, 0.055921, -0.617345, 10.479630, 12.938568, -238.437714, 13.727792, 100.772453
1759228722.028064, -1.516577, 8.142979, -1.499518, -0.939380, 0.004492, -0.866891, 10.595490, 12.221573, -238.331268, 13.727792, 100.772453
1759228722.048060, 0.235979, 6.981941, -1.509694, -0.828166, -0.432854, -0.820485, 10.201370, 11.421494, -237.442413, 13.727792, 100.772453
1759228722.068172, 0.039804, 6.383839, -1.753902, -0.719450, -0.914134, -0.691866, 10.313431, 10.781815, -236.900589, 13.727792, 100.772453
1759228722.088055, -1.527052, 7.506720, -1.553538, -0.543651, -1.358694, -0.493457, 10.660736, 10.128296, -235.570633, 13.727792, 100.772453
1759228722.107984, -3.409044, 8.750957, -0.956184, -0.371775, -1.367292, -0.657909, 11.558212, 9.540619, -235.757065, 13.727792, 100.772453
1759228722.128007, -4.003105, 10.039785, -0.179864, -0.327605, -0.991655, -1.163453, 11.495117, 9.217758, -235.251144, 13.727792, 100.772453
1759228722.147165, -3.346046, 10.602722, -0.069133, -0.532032, -0.243134, -1.279053, 11.590836, 7.918869, -234.189865, 13.727792, 100.772453
1759228722.168061, -1.414524, 11.189301, -0.294188, -1.203500, -0.214238, -1.054546, 11.506851, 7.293793, -234.663025, 13.727792, 100.772453
1759228722.188036, 0.584335, 11.994801, -2.961029, -1.675680, -0.952054, -1.659125, 11.565155, 6.111023, -233.949234, 13.727792, 100.772453
1759228722.208063, 11.163713, 18.722358, -16.177770, 0.132414, -1.102079, -0.951469, 12.038025, 4.841644, -233.109955, 13.727792, 100.772453
1759228722.228052, 6.818686, 14.533253, -3.418022, 1.392327, -0.977110, 0.053688, 12.418411, 5.205353, -232.940735, 13.727792, 100.772453
1759228722.247369, 2.263718, 9.943269, 1.193958, 1.617583, -0.277752, 0.437456, 12.535248, 6.366516, -232.545990, 13.727792, 100.772453
1759228722.267985, -0.815824, 6.984335, 3.451990, 1.241231, 0.100497, 0.409014, 12.887344, 6.790314, -232.909058, 13.727792, 100.772453
1759228722.288054, -1.456872, 6.419752, 2.736722, 0.694417, 0.923597, 0.461080, 12.413895, 7.591599, -233.159164, 13.727792, 100.772453
1759228722.308029, -2.265364, 7.708282, 1.884536, 0.026097, 1.978438, 0.213473, 11.828491, 7.886826, -234.175858, 13.727784, 100.772463
1759228722.328004, -2.956240, 9.728689, 1.678934, -0.980986, 1.667828, -0.051151, 10.824554, 7.620422, -234.769272, 13.727784, 100.772463
1759228722.347542, -2.928857, 10.133309, 0.559196, -1.589144, -0.066846, -0.238719, 10.568878, 6.843491, -235.346313, 13.727784, 100.772463
1759228722.367991, -2.700211, 10.099790, -0.852336, -1.121701, -1.387520, -0.356073, 10.838684, 5.851105, -234.025177, 13.727784, 100.772463
1759228722.388103, -1.524209, 10.713454, -1.420510, -0.662734, -0.750240, -0.631450, 11.639053, 5.243637, -233.721771, 13.727784, 100.772463
1759228722.408051, 0.702249, 9.982025, -1.140239, -0.439201, 0.194347, -0.980978, 11.005493, 4.431519, -233.426743, 13.727784, 100.772463
1759228722.428059, 1.613692, 9.664195, -0.591218, -0.155238, -0.362687, -0.675224, 11.253891, 4.334641, -233.845490, 13.727784, 100.772463
1759228722.447672, 0.956633, 9.674071, -0.086491, 0.061027, -1.260705, -0.288540, 11.489960, 4.195877, -232.954773, 13.727784, 100.772463
1759228722.468030, -0.207248, 9.974843, 0.309750, -0.086411, -1.165309, -0.238622, 12.052292, 3.935989, -231.978256, 13.727784, 100.772463
1759228722.488058, -1.570447, 10.355221, 0.125546, -0.248327, -0.439024, -0.075234, 12.282562, 3.856339, -232.087112, 13.727784, 100.772463
1759228722.508178, -2.403629, 10.203489, -0.007781, -0.255566, 0.233786, -0.210991, 12.647064, 3.508606, -231.392426, 13.727784, 100.772463
1759228722.528064, -2.100613, 9.405023, 0.103848, -0.169440, 0.116776, -0.274258, 12.551849, 3.178741, -231.850967, 13.727784, 100.772463
1759228722.547836, -1.949479, 8.950124, 0.300173, -0.081322, -0.198871, -0.274550, 12.730576, 3.127335, -232.064774, 13.727784, 100.772463
1759228722.568062, -1.711705, 8.967931, 0.342371, -0.007571, -0.019098, -0.260580, 12.577271, 2.927353, -231.752274, 13.727784, 100.772463
1759228722.588007, -1.382502, 9.557503, 0.584036, -0.009186, 0.058164, -0.224825, 12.185501, 2.803711, -231.320618, 13.727784, 100.772463
1759228722.608017, -1.210867, 10.112210, 0.639401, -0.158460, -0.149003, -0.191659, 12.376053, 3.049942, -231.828720, 13.727784, 100.772463
1759228722.628047, -1.050007, 10.086472, 0.290297, -0.307211, -0.239191, -0.195887, 12.486191, 2.576279, -231.384521, 13.727784, 100.772463
1759228722.648008, -0.556203, 10.049512, -0.219219, -0.323158, -0.077156, -0.220931, 12.706879, 2.701630, -232.076019, 13.727784, 100.772463
1759228722.668009, 0.213084, 9.924564, -0.420332, -0.147333, 0.020605, -0.178022, 12.656708, 2.015686, -231.398514, 13.727784, 100.772463
1759228722.688068, 0.444723, 9.869049, -0.071377, -0.034749, -0.064482, -0.082303, 12.975494, 1.932602, -231.489777, 13.727784, 100.772463
1759228722.708018, -0.061052, 9.612869, 0.274286, -0.001061, -0.135593, 0.023202, 12.629669, 2.090561, -231.911621, 13.727784, 100.772463
1759228722.728060, -1.111209, 9.280823, 0.506972, 0.003503, -0.144452, 0.068087, 12.863434, 1.780670, -231.555740, 13.727784, 100.772463
1759228722.748069, -1.814057, 9.364172, 0.694917, -0.032688, -0.168910, 0.054017, 12.734680, 1.982056, -231.851013, 13.727784, 100.772463
1759228722.768085, -1.973421, 9.487922, 0.641047, -0.097111, -0.164273, 0.035790, 13.054825, 1.925980, -231.527527, 13.727784, 100.772463
1759228722.788036, -1.848024, 9.469516, 0.244358, -0.141805, -0.199500, 0.059628, 12.957901, 2.062195, -231.650284, 13.727784, 100.772463
1759228722.808074, -1.742979, 9.839720, -0.269348, -0.128433, -0.259057, 0.083471, 13.066223, 1.955521, -231.356781, 13.727784, 100.772463
1759228722.828046, -1.763928, 10.556484, -0.763152, -0.052218, -0.141528, 0.099965, 13.074738, 2.157333, -231.546890, 13.727784, 100.772463
1759228722.848076, -1.636287, 10.205584, -0.936881, 0.081472, 0.166108, 0.098353, 13.211273, 1.816345, -231.157715, 13.727784, 100.772463
1759228722.867164, -1.263091, 9.258079, -0.602591, 0.268845, 0.391452, 0.098921, 13.111771, 2.373932, -231.509430, 13.727784, 100.772463
1759228722.887999, -1.083227, 8.955811, 0.049530, 0.428973, 0.314050, 0.083308, 12.785629, 2.422699, -231.405396, 13.727784, 100.772463
1759228722.908022, -1.129315, 9.255684, 0.730531, 0.442070, 0.060900, 0.030888, 12.506897, 2.788483, -231.091019, 13.727784, 100.772463
1759228722.928073, -1.065719, 9.798121, 1.145027, 0.260664, -0.073824, -0.021325, 12.739838, 2.643311, -231.379257, 13.727784, 100.772463
1759228722.948210, -0.897826, 10.186580, 1.139790, 0.006897, -0.038462, -0.057528, 12.508698, 2.751602, -231.399078, 13.727784, 100.772463
1759228722.968074, -0.724246, 10.036793, 0.758663, -0.175145, -0.012906, -0.073737, 12.826080, 2.741501, -231.087570, 13.727784, 100.772463
1759228722.988015, -0.401777, 9.717017, 0.359878, -0.228081, 0.062281, -0.072157, 12.925659, 2.794754, -231.127136, 13.727784, 100.772463
1759228723.008020, -0.141258, 9.537602, 0.183755, -0.270873, 0.127872, -0.019642, 12.914398, 2.358582, -231.646408, 13.727784, 100.772463
1759228723.028100, -0.556203, 9.604789, -0.041899, -0.319186, 0.129312, 0.021782, 12.599716, 2.200348, -231.570023, 13.727784, 100.772463
1759228723.048079, -1.098789, 9.693225, -0.352995, -0.230865, 0.204587, -0.024032, 12.623047, 2.264801, -231.294952, 13.727784, 100.772463
1759228723.067512, -1.246332, 9.752930, -0.416292, -0.175249, 0.220967, -0.051387, 12.421600, 2.049408, -231.405136, 13.727784, 100.772463
1759228723.088054, -1.095048, 9.836727, -0.195277, -0.089937, 0.066760, -0.098310, 12.205368, 1.909256, -232.077271, 13.727784, 100.772463
1759228723.108047, -0.790386, 9.899725, 0.021398, -0.085985, 0.033998, -0.095964, 12.180862, 1.855286, -231.641052, 13.727784, 100.772463
1759228723.128086, -0.557849, 9.683349, 0.103250, -0.058088, 0.071148, -0.066327, 12.367401, 1.846344, -231.984039, 13.727784, 100.772463
1759228723.148053, -0.531064, 9.496302, 0.240168, -0.061901, 0.075295, -0.042161, 12.196579, 2.019043, -231.819656, 13.727784, 100.772463
1759228723.168078, -0.733972, 9.682451, 0.386215, -0.095885, 0.110488, -0.035616, 12.218521, 1.670410, -232.214569, 13.727784, 100.772463
1759228723.188030, -1.030105, 9.685294, 0.475399, -0.115566, 0.090541, -0.033645, 12.483276, 1.811768, -231.868637, 13.727784, 100.772463
1759228723.208065, -1.249624, 9.358485, 0.506673, -0.110362, 0.017404, -0.023881, 12.290512, 1.557571, -231.375092, 13.727784, 100.772463
1759228723.228020, -1.150713, 9.264513, 0.428712, 0.000332, -0.110610, -0.028372, 12.356216, 1.505463, -231.990204, 13.727784, 100.772463
1759228723.248038, -1.181688, 9.448567, 0.508917, 0.069733, -0.368624, -0.016572, 12.652832, 1.026505, -231.482468, 13.727784, 100.772463
1759228723.267854, -1.044171, 9.562441, 0.648679, 0.058000, -0.628296, 0.071879, 12.554199, 1.282333, -230.948776, 13.727784, 100.772463
1759228723.288020, -0.923713, 9.763854, 0.433351, 0.123263, -0.647349, 0.101111, 12.838501, 1.398819, -231.099884, 13.727784, 100.772463
1759228723.308031, -1.120935, 10.093206, 0.464325, 0.163149, -0.525504, 0.136268, 13.071030, 1.790863, -230.893326, 13.727784, 100.772463
1759228723.328036, -1.459416, 9.905112, 0.687435, 0.182550, -0.302635, 0.164120, 13.594559, 1.891678, -230.588654, 13.727784, 100.772463
1759228723.348021, -2.100313, 9.757419, 0.902464, 0.053099, 0.031187, 0.106137, 13.826645, 2.017029, -230.150879, 13.727784, 100.772463
1759228723.368086, -2.623147, 9.567379, 0.992546, -0.088430, 0.180840, -0.031556, 13.598679, 1.711761, -231.098785, 13.727784, 100.772463
1759228723.388090, -2.106149, 9.680655, 0.517297, -0.172787, 0.302092, -0.094398, 12.899506, 1.651382, -231.205063, 13.727784, 100.772463
1759228723.408086, -1.764976, 9.938181, -0.413748, 0.013420, 0.545872, -0.241153, 12.743912, 1.922424, -230.492462, 13.727784, 100.772463
1759228723.428035, -0.869245, 9.876231, -0.618602, 0.354422, 0.494208, -0.390734, 13.090424, 1.462982, -231.311523, 13.727784, 100.772463
1759228723.448085, 0.337283, 9.894188, 0.068833, 0.524122, 0.016396, -0.465585, 12.572861, 2.012711, -231.597244, 13.727784, 100.772463
1759228723.468016, 1.321300, 9.997737, 0.885256, 0.507041, -0.535574, -0.474792, 13.167984, 1.933578, -231.541702, 13.727784, 100.772463
1759228723.488080, 2.245462, 10.233267, 1.477522, 0.375750, -0.813673, -0.444508, 13.416672, 1.803299, -231.143433, 13.727784, 100.772463
1759228723.508013, 2.841319, 10.020033, 1.997512, 0.117576, -0.936624, -0.380195, 13.454041, 1.911041, -230.947556, 13.727784, 100.772463
1759228723.528082, 2.681955, 9.510218, 2.688838, -0.338984, -1.046669, -0.266235, 14.305344, 1.367050, -230.539825, 13.727784, 100.772463
1759228723.548055, 1.880945, 9.451111, 2.944718, -0.804268, -0.901081, -0.178614, 15.090729, 0.716949, -229.318680, 13.727784, 100.772463
1759228723.568080, 0.564283, 9.526828, 1.550246, -1.073480, -0.654511, -0.153184, 15.032349, -0.000961, -229.100449, 13.727784, 100.772463
1759228723.588024, -0.655263, 9.435549, 0.271293, -1.194898, -0.733243, -0.164128, 15.561539, -1.045181, -228.921127, 13.727784, 100.772463
1759228723.608089, -1.783830, 9.193884, -0.916231, -1.081912, -0.953202, -0.313058, 15.900452, -1.348404, -229.110306, 13.727784, 100.772463
1759228723.628082, -3.281253, 9.319879, -1.594987, -0.725732, -0.829488, -0.491708, 16.868729, -2.219437, -228.808273, 13.727784, 100.772463
1759228723.648102, -3.640384, 9.622446, -2.121263, -0.233914, -0.339082, -0.632629, 16.860641, -2.313232, -228.471725, 13.727784, 100.772463
1759228723.668197, -3.125630, 9.798869, -1.224784, 0.003279, -0.028910, -0.810783, 16.806534, -2.840347, -228.364563, 13.727784, 100.772463
1759228723.688014, -1.825878, 10.084976, 0.275184, 0.071646, -0.021208, -0.888089, 17.318253, -3.048615, -228.600449, 13.727784, 100.772463
1759228723.708061, -0.120159, 10.085425, 1.014244, 0.153204, -0.112062, -0.790576, 17.247482, -3.351273, -228.050156, 13.727784, 100.772463
1759228723.728063, 0.948104, 9.775226, 1.382951, 0.223744, -0.113555, -0.579327, 17.227753, -3.585266, -228.603729, 13.727784, 100.772463
1759228723.748028, 0.805200, 9.620202, 1.907131, 0.096049, -0.218620, -0.356128, 17.454605, -3.434433, -228.002350, 13.727784, 100.772463
1759228723.768019, 0.088585, 9.739612, 2.211943, -0.094471, -0.393874, -0.218920, 17.303024, -3.714447, -228.323044, 13.727784, 100.772463
1759228723.787491, -0.643142, 10.048464, 1.654992, -0.128471, -0.257912, -0.227833, 17.413437, -3.866287, -227.819748, 13.727784, 100.772463
1759228723.808011, -0.437391, 10.205285, 0.737564, 0.025999, 0.244811, -0.308323, 17.857635, -4.135910, -227.670792, 13.727784, 100.772463
1759228723.827087, 1.025766, 10.076447, 0.042497, 0.299107, 0.759060, -0.353894, 17.690109, -4.434006, -227.877319, 13.727784, 100.772463
1759228723.848031, 3.422511, 10.092159, 0.729184, 0.382889, 0.281303, -0.100803, 16.855087, -4.208191, -227.626190, 13.727784, 100.772463
1759228723.867257, 5.337573, 10.550349, 2.492065, 0.368783, -0.533797, 0.202386, 16.749786, -4.340103, -227.709183, 13.727784, 100.772463
1759228723.888076, 6.181380, 10.172664, 2.337788, 0.503799, -1.032003, 0.591431, 17.259842, -3.969788, -227.504105, 13.727784, 100.772463
1759228723.908011, 4.297293, 10.339809, 1.618331, 0.555574, -1.279245, 1.024168, 18.174957, -3.256470, -226.730286, 13.727784, 100.772463
1759228723.928035, 1.078438, 12.577490, 0.930297, 0.582681, -1.188841, 1.195776, 19.282837, -3.261459, -226.181732, 13.727784, 100.772463
1759228723.948041, -1.046565, 13.874548, 0.207847, 0.695737, -1.280509, 1.100178, 19.723877, -2.521088, -225.252014, 13.727784, 100.772463
1759228723.967194, -1.839196, 13.701118, -0.152481, 0.934864, -1.849636, 0.950752, 20.466309, -2.238159, -225.261627, 13.727784, 100.772463
1759228723.988042, -1.493533, 11.418846, -1.608155, 1.399997, -1.857308, 1.081034, 21.440643, -0.917435, -224.202667, 13.727784, 100.772463
1759228724.008099, -1.084723, 10.260650, -1.829320, 1.708101, -1.291432, 1.156576, 22.571228, 0.511581, -224.000900, 13.727784, 100.772463
1759228724.028221, -0.615011, 9.897330, -1.321899, 1.728815, -0.886721, 1.207667, 22.950974, 1.132401, -223.281952, 13.727784, 100.772463
1759228724.048097, -0.212186, 10.963648, -1.698237, 1.757828, -0.256391, 1.336408, 23.203278, 2.613998, -223.407700, 13.727784, 100.772463
1759228724.067322, -0.125247, 11.997195, -0.263512, 2.076397, -0.066594, 1.485141, 23.385330, 3.603394, -223.709991, 13.727784, 100.772463
1759228724.088093, -0.323816, 12.042385, 2.393453, 2.024791, -0.287990, 1.519275, 23.436417, 6.091019, -223.332001, 13.727784, 100.772463
1759228724.107091, -0.288651, 11.753585, 4.192546, 1.387802, -1.034985, 1.458470, 23.792755, 6.265625, -223.347427, 13.727784, 100.772463
1759228724.128085, -0.555754, 11.564593, 3.357569, 0.610455, -1.524284, 1.378984, 25.373581, 7.463531, -222.724838, 13.727784, 100.772463
1759228724.148089, -1.386991, 11.468226, 2.153135, 0.121399, -1.196099, 1.239381, 25.823502, 7.903900, -222.457413, 13.727784, 100.772463
1759228724.167571, -1.278504, 11.804462, 0.879420, -0.215924, -0.806322, 1.199001, 26.616730, 7.926544, -222.393204, 13.727784, 100.772463
1759228724.188042, -0.392649, 10.941950, -0.091578, -0.350055, -0.605750, 1.280639, 27.216843, 7.634186, -221.863861, 13.727784, 100.772463
1759228724.208021, 2.359935, 10.423456, 1.080084, -0.632537, -0.702080, 1.479930, 27.772430, 7.606735, -221.367310, 13.727784, 100.772463
1759228724.228092, 4.051588, 9.980080, -0.578200, -0.627891, -0.650000, 1.679168, 28.311234, 7.128067, -220.965317, 13.727784, 100.772463
1759228724.248036, 1.649156, 8.985738, -0.393846, -0.168341, -1.073049, 1.557241, 29.139496, 7.418793, -220.956100, 13.727784, 100.772463
1759228724.267704, -0.213383, 8.388086, 1.326837, -0.078878, -1.781208, 1.315259, 31.047775, 7.195160, -220.510635, 13.727784, 100.772463
1759228724.288099, -1.569698, 7.429058, 1.934216, -0.133013, -2.521564, 1.058876, 32.876831, 7.482956, -220.530289, 13.727784, 100.772463
1759228724.308038, -2.087594, 6.656928, 2.034323, -0.291711, -2.539397, 0.702136, 34.516266, 7.179031, -220.607315, 13.727784, 100.772463
1759228724.328034, -1.510143, 6.154744, 1.683423, -0.377466, -2.807477, 0.465443, 36.624252, 6.747559, -220.431717, 13.727784, 100.772463
1759228724.348073, -1.998410, 5.852327, 0.955885, -0.462972, -2.648124, 0.153259, 38.711472, 6.225464, -220.410629, 13.727784, 100.772463
1759228724.367945, -2.336142, 5.811625, 0.861314, -0.662194, -2.610187, -0.165264, 40.695374, 5.929077, -220.733810, 13.727784, 100.772463
1759228724.388023, -3.526659, 6.118382, -0.153079, -0.975207, -2.268344, -0.518204, 42.221619, 4.914719, -220.951813, 13.727784, 100.772463
1759228724.408090, -2.850147, 7.334936, -2.488174, -1.282673, -2.364276, -0.853042, 43.480820, 4.061539, -220.803467, 13.727784, 100.772463
1759228724.428229, -0.274884, 9.926510, -7.532757, -0.903664, -2.623911, -1.201528, 45.415817, 3.653198, -221.993546, 13.727784, 100.772463
1759228724.448106, 7.387309, 13.372963, -9.977536, 0.159768, -2.137015, -0.888490, 46.754333, 3.960205, -221.771240, 13.727784, 100.772463
1759228724.468074, 11.897686, 17.140389, -3.929483, -0.015137, -0.561343, 0.436715, 46.974701, 3.282242, -221.862991, 13.727784, 100.772463
1759228724.488033, 4.336348, 14.510807, -5.208286, 0.003967, 0.429600, 0.957390, 46.857895, 3.729492, -221.989334, 13.727784, 100.772463
1759228724.508113, 1.161337, 10.130316, -6.771251, 0.480921, 1.308586, 1.349705, 45.835449, 3.606033, -221.862503, 13.727784, 100.772463
1759228724.528031, -2.739266, 8.188319, -1.454926, 0.398623, 1.915303, 1.320781, 44.901230, 3.455902, -221.137756, 13.727784, 100.772463
1759228724.548122, -7.362619, 7.164648, 2.895787, 0.118650, 1.200587, 0.224218, 43.570374, 3.683411, -220.708771, 13.727784, 100.772463
1759228724.568098, -5.730372, 8.857199, 0.279373, 0.344685, 0.511167, -0.654854, 42.956528, 4.193573, -220.509033, 13.727784, 100.772463
1759228724.588034, -4.496610, 10.533589, -0.625934, 0.377675, -0.680527, -1.093829, 43.724884, 4.680969, -220.562698, 13.727784, 100.772463
1759228724.608096, -0.680851, 12.007520, 1.459266, 0.571367, -1.008060, -1.298645, 44.251877, 5.412247, -220.733749, 13.727784, 100.772463
1759228724.628038, 0.803105, 11.645696, 4.441543, 0.267848, -1.940082, -1.228644, 45.573578, 5.714828, -221.494110, 13.727784, 100.772463
1759228724.648037, 1.142483, 12.432940, 6.891859, -1.105455, -3.676310, -1.083950, 47.996872, 5.121063, -222.164505, 13.727784, 100.772463
1759228724.668040, 2.142062, 11.092486, 2.249652, -2.081719, -3.226879, -1.122718, 49.743546, 4.080780, -222.538116, 13.727784, 100.772463
1759228724.687213, 4.738574, 9.661801, -1.815553, -1.714579, -0.257016, -1.075334, 50.035400, 3.677185, -222.980759, 13.727784, 100.772463
1759228724.708054, 3.819799, 8.469937, -2.777723, -0.623062, 1.115645, -0.625040, 48.458160, 3.300964, -221.912399, 13.727784, 100.772463
1759228724.728038, 0.685191, 9.229198, -1.468394, -0.174940, 0.291363, -0.343835, 48.908905, 3.161362, -222.311203, 13.727784, 100.772463
1759228724.748095, -1.459266, 9.867403, -0.484377, -0.079890, -1.353958, -0.343782, 49.889618, 3.156723, -222.723984, 13.727784, 100.772463
1759228724.768096, -2.449418, 9.847052, 0.143951, -0.056962, -1.695583, -0.462101, 50.963684, 3.343277, -223.151276, 13.727784, 100.772463
1759228724.787398, -2.352153, 9.338883, 0.085443, -0.126813, -1.331125, -0.520607, 51.969803, 3.547974, -223.831268, 13.727784, 100.772463
1759228724.807989, -1.184382, 9.187300, 0.060603, -0.248134, 0.161551, -0.411388, 52.061356, 3.117523, -223.446487, 13.727784, 100.772463
1759228724.827978, -0.504129, 9.145401, 0.354342, -0.345740, 0.099500, -0.629144, 51.750580, 3.238358, -223.541840, 13.727784, 100.772463
1759228724.848097, 0.688183, 8.584859, 1.449689, -0.726074, -0.385362, -0.520912, 51.262512, 3.275620, -222.968552, 13.727784, 100.772463
1759228724.868077, 0.926556, 8.927230, 1.729960, -0.985410, -0.380259, -0.487628, 52.155869, 2.762924, -223.578888, 13.727784, 100.772463
1759228724.887558, 0.181510, 9.331102, 1.114501, -1.160346, -0.308164, -0.533858, 51.918015, 1.991989, -223.753403, 13.727784, 100.772463
1759228724.908055, -0.427964, 9.942521, 0.141557, -1.225100, -0.272784, -0.553662, 52.297958, 1.558884, -223.145706, 13.727784, 100.772463
1759228724.928037, -0.540042, 9.894637, -0.998681, -1.019041, -0.146676, -0.727474, 52.003754, 0.915268, -223.530487, 13.727784, 100.772463
1759228724.948065, 0.351798, 10.030358, -1.632097, -0.724944, -0.001255, -0.734836, 52.150070, 0.783234, -223.279343, 13.727784, 100.772463
1759228724.968109, 1.214010, 10.366744, -1.810765, -0.350396, 0.187627, -0.616506, 51.910324, 0.767456, -223.232254, 13.727784, 100.772463
1759228724.987741, 1.541267, 10.133608, -1.574936, 0.028408, 0.309824, -0.510199, 51.954697, 0.894516, -223.375046, 13.727784, 100.772463
1759228725.008038, 1.120636, 9.728838, -0.952892, 0.267434, 0.287688, -0.484971, 51.464569, 0.813354, -223.237457, 13.727784, 100.772463
1759228725.028045, 0.316484, 8.762628, 0.287304, 0.045254, -0.285159, -0.520468, 51.616318, 1.433990, -222.701599, 13.727784, 100.772463
1759228725.048054, -0.186448, 8.596381, 1.876306, -0.263787, -0.928738, -0.564923, 51.684982, 1.317062, -222.777298, 13.727784, 100.772463
1759228725.068066, -0.003292, 10.637438, 0.868048, -0.075896, -0.936139, -0.539332, 52.834732, 1.816589, -223.885117, 13.727784, 100.772463
1759228725.087910, 0.153528, 10.038439, 0.560692, -0.023834, -0.642703, -0.431084, 53.117218, 1.600204, -223.853531, 13.727784, 100.772463
1759228725.108061, 0.119112, 8.842685, 0.496647, -0.029912, -0.166100, -0.240396, 53.324982, 1.839355, -224.294983, 13.727784, 100.772463
1759228725.128118, 0.414646, 9.088240, 0.278027, 0.012459, 0.474823, 0.085026, 52.927826, 1.793839, -224.207703, 13.727784, 100.772463
1759228725.148069, -0.235081, 9.696367, -0.336984, 0.023135, 1.002604, 0.291824, 51.863251, 1.549561, -223.613419, 13.727784, 100.772463
1759228725.168050, -0.788291, 10.090064, -1.004817, 0.148133, 1.128819, 0.279984, 51.357651, 1.457733, -223.321167, 13.727784, 100.772463
1759228725.188133, -0.974290, 8.987983, -1.193061, 0.441203, 0.482713, 0.128039, 51.243210, 1.933960, -223.158966, 13.727784, 100.772463
1759228725.208102, 0.106841, 8.090307, -0.423923, 0.872964, -0.258221, -0.004395, 50.972000, 2.210068, -223.485718, 13.727784, 100.772463
1759228725.228048, 2.056470, 10.071209, 1.864185, 0.963242, -1.006998, -0.045745, 51.642014, 2.734100, -223.762405, 13.727784, 100.772463
1759228725.248125, 4.055927, 12.296919, 3.548057, 0.425504, -1.438183, 0.111781, 52.260895, 3.256607, -224.442032, 13.727784, 100.772463
1759228725.268246, 5.588516, 13.092093, 2.677166, -0.082306, -0.884534, 0.182656, 53.202423, 2.717606, -225.075470, 13.727784, 100.772463
1759228725.288054, 5.599289, 11.795633, 0.492158, 0.207057, -0.577850, 0.465491, 52.919998, 3.026520, -225.090134, 13.727784, 100.772463
1759228725.308129, 6.069451, 10.764630, -0.688632, 0.452235, -0.128343, 0.975229, 53.054764, 3.094116, -225.247009, 13.727784, 100.772463
1759228725.328118, 6.149507, 11.304074, -1.401506, 0.455254, -0.080247, 1.582420, 53.062653, 2.599854, -225.138840, 13.727784, 100.772463
1759228725.348109, 3.718195, 11.556512, -4.445883, 1.116506, -0.728063, 2.036754, 52.893295, 2.741333, -225.171631, 13.727784, 100.772463
1759228725.368119, -0.257526, 12.147581, -5.448455, 2.388164, -3.079475, 2.013432, 55.005722, 3.235809, -227.079391, 13.727784, 100.772463
1759228725.388070, -2.851195, 11.629835, -0.497246, 2.708354, -3.673280, 1.510910, 57.067001, 4.295517, -228.876862, 13.727784, 100.772463
1759228725.408045, -3.674202, 12.338518, 3.236063, 2.295610, -2.644254, 0.933772, 58.520752, 5.179565, -231.370300, 13.727784, 100.772463
1759228725.428131, -2.312051, 13.267917, 5.933580, 1.430025, -1.194267, 0.986342, 59.209076, 5.223633, -231.913849, 13.727784, 100.772463
1759228725.448126, -2.711433, 13.545495, 5.021539, 1.014756, -0.119325, 1.038758, 59.611420, 5.469528, -232.232269, 13.727784, 100.772463
1759228725.468077, -2.428020, 12.505813, 2.603096, 0.701587, -0.680470, 1.268611, 60.241379, 5.487625, -232.799164, 13.727784, 100.772463
1759228725.488114, -2.197727, 11.414207, 1.986140, 0.077949, -2.156144, 1.071413, 60.694946, 4.836426, -233.918472, 13.727784, 100.772463
1759228725.508104, -1.411083, 10.887931, 0.990751, -0.208515, -3.097075, 0.840012, 62.312927, 4.814087, -235.764038, 13.727784, 100.772463
1759228725.528073, -0.912789, 10.504111, 0.157419, -0.098937, -3.016053, 0.660400, 63.120667, 3.965057, -237.807129, 13.727784, 100.772463
1759228725.548075, -0.512808, 9.990405, -0.137966, 0.114429, -2.575297, 0.555266, 64.523361, 4.119965, -239.188736, 13.727784, 100.772463
1759228725.568139, -0.175226, 9.401731, 0.566079, 0.075402, -1.904663, 0.567910, 65.035736, 3.833328, -240.416794, 13.727784, 100.772463
1759228725.588072, -0.382923, 8.782231, 1.455076, -0.195343, -1.234605, 0.548128, 65.828705, 3.405945, -241.311493, 13.727784, 100.772463
1759228725.608066, -0.741005, 8.734945, 1.705120, -0.522262, -1.250852, 0.521491, 65.724243, 3.528564, -242.465347, 13.727784, 100.772463
1759228725.628085, -0.604985, 8.798242, 1.413477, -0.691028, -1.602951, 0.470248, 66.197906, 2.854584, -243.334061, 13.727784, 100.772463
1759228725.648062, -0.477344, 8.949526, 0.762254, -0.658829, -1.908764, 0.359769, 66.492294, 2.490479, -244.491959, 13.727784, 100.772463
1759228725.668056, -0.386215, 8.991125, 0.464325, -0.548518, -2.227227, 0.207737, 67.005447, 2.074966, -245.811188, 13.727784, 100.772463
1759228725.688118, -1.008707, 8.909273, 0.872088, -0.505722, -2.486146, -0.012689, 67.593781, 2.220963, -247.541946, 13.727784, 100.772463
1759228725.708054, -0.676512, 9.248951, 2.038513, -0.706515, -3.141153, -0.067499, 68.029404, 2.255737, -249.779968, 13.727784, 100.772463
1759228725.728123, -0.740257, 9.557354, 1.881244, -0.937833, -3.816344, -0.085039, 68.848007, 1.941833, -252.247650, 13.727784, 100.772463
1759228725.748121, -0.998981, 9.685144, 1.207426, -1.172275, -3.823767, -0.196735, 68.590546, 2.263214, -254.671906, 13.727784, 100.772463
1759228725.768063, -0.805499, 10.317962, 0.311845, -1.552638, -3.307571, -0.281485, 68.638977, 2.513336, -257.249603, 13.727784, 100.772463
1759228725.787240, -0.213982, 10.911275, -0.409109, -1.873015, -2.551225, -0.019535, 68.766617, 2.585434, -258.933807, 13.727784, 100.772463
1759228725.808088, 3.646070, 13.153744, -9.718214, -0.633008, -2.352007, 0.472867, 68.913849, 2.164825, -260.301514, 13.727784, 100.772463
1759228725.828123, 2.996792, 12.173318, -2.788347, 0.529570, -3.522937, 0.777655, 68.352982, 1.975525, -262.645813, 13.727784, 100.772463
1759228725.848134, -0.231190, 11.049540, 1.101782, 0.538792, -3.359032, 0.763906, 67.974213, 1.559692, -265.164368, 13.727784, 100.772463
1759228725.868260, -3.606865, 9.152434, 1.774403, 0.372813, -2.472112, 0.569156, 67.592484, 1.087616, -267.429504, 13.727784, 100.772463
1759228725.887484, -4.942380, 6.947973, 0.102502, 0.062222, -1.911104, 0.497506, 66.960098, 0.624191, -268.338867, 13.727784, 100.772463
1759228725.908144, -5.445163, 6.303783, -2.319084, -0.127802, -1.484030, 0.206157, 66.811172, 0.566422, -269.776062, 13.727784, 100.772463
1759228725.928132, -4.918289, 6.014085, -2.640804, -0.121151, -0.674711, -0.071367, 66.537354, 0.780930, -269.913635, 13.727784, 100.772463
1759228725.948084, -4.447678, 6.353613, -1.413926, -0.100398, 0.081758, -0.188019, 66.404022, 1.107971, -269.986511, 13.727784, 100.772463
1759228725.968126, -3.235015, 7.314885, 0.495899, -0.289865, 0.395617, -0.262401, 66.666565, 1.326645, -269.067749, 13.727784, 100.772463
1759228725.987690, -0.190040, 9.330204, 1.018882, -0.540120, 0.227587, -0.307835, 66.546967, 1.561111, -269.055969, 13.727784, 100.772463
1759228726.007554, 4.282179, 12.182596, 1.929727, -0.651510, 0.570349, -0.256172, 66.723923, 2.024292, -268.878540, 13.727784, 100.772463
1759228726.028083, 5.343708, 13.042114, 2.561945, -0.079812, -0.486155, -0.210491, 66.533585, 2.446243, -268.794861, 13.727784, 100.772463
1759228726.048137, 2.860622, 14.190882, 0.065691, -0.344092, -1.109861, -0.409323, 65.969376, 2.793182, -269.528137, 13.727784, 100.772463
1759228726.068281, 0.705691, 13.134590, -4.531027, -0.854382, -0.977112, -0.263595, 65.801712, 2.950684, -270.538635, 13.727784, 100.772463
1759228726.087708, -2.279879, 9.452009, -4.586243, 0.309027, -1.496978, -0.123653, 65.061920, 2.853424, -271.415344, 13.727784, 100.772463
1759228726.108054, -3.386898, 8.085219, -0.712574, 0.939432, -1.832771, 0.014614, 64.547897, 2.717529, -272.633667, 13.727784, 100.772463
1759228726.128147, -3.169175, 6.796540, 2.007837, 0.801808, -1.343566, -0.104735, 64.369934, 2.986404, -273.433716, 13.727784, 100.772463
1759228726.148030, -2.713379, 8.046762, 3.939360, 0.147793, 0.415148, -0.393388, 64.024521, 3.038971, -273.110718, 13.727784, 100.772463
1759228726.167840, -2.181567, 9.657162, 1.946187, -0.386570, 1.311112, -0.380594, 64.883011, 3.367615, -272.167053, 13.727784, 100.772463
1759228726.187972, -2.358588, 9.929802, 0.705691, -0.598279, 0.683217, -0.286949, 64.920242, 3.668579, -271.960907, 13.727784, 100.772463
1759228726.208133, -1.780987, 10.115203, 0.033220, -0.686013, -0.488859, -0.503317, 64.968964, 4.317123, -271.916260, 13.727784, 100.772463
1759228726.228064, -0.055216, 10.135254, -0.351798, -0.721802, -0.913626, -0.661818, 64.380920, 4.609665, -272.372559, 13.727784, 100.772463
1759228726.248144, 1.737442, 10.613945, -0.856077, -0.764064, -0.594757, -0.602178, 64.142502, 5.270218, -272.515594, 13.727784, 100.772463
1759228726.268086, 2.856881, 10.777349, -1.403451, -0.572935, -0.136692, -0.372892, 63.961090, 5.508270, -272.600830, 13.727784, 100.772463
1759228726.288131, 2.645892, 10.264242, -1.522862, -0.173293, -0.071745, -0.155041, 63.908875, 6.117783, -272.792664, 13.727784, 100.772463
1759228726.308106, 1.674295, 9.783755, -0.881964, 0.170627, -0.426396, -0.052193, 63.663528, 6.142303, -273.356232, 13.727784, 100.772463
1759228726.328073, 0.762404, 9.550470, -0.046837, 0.299272, -0.818041, 0.012138, 63.912796, 5.973343, -273.750244, 13.727784, 100.772463
1759228726.347515, -0.148141, 9.821614, 0.571017, 0.339013, -0.889155, 0.014630, 63.478149, 5.823029, -273.657471, 13.727784, 100.772463
1759228726.368075, -0.982521, 10.215759, 1.123030, 0.234173, -0.722204, -0.036389, 63.361633, 5.822357, -274.408569, 13.727784, 100.772463
1759228726.388076, -1.317260, 9.989208, 1.380706, -0.025047, -0.627931, -0.091044, 62.911621, 5.862457, -274.826172, 13.727784, 100.772463
1759228726.408128, -1.263091, 9.702353, 1.096844, -0.267469, -0.681257, -0.110834, 62.444321, 6.530792, -274.977478, 13.727784, 100.772463
1759228726.428162, -1.367089, 9.464578, 0.640599, -0.400604, -0.822838, -0.110621, 62.272293, 6.480515, -275.870728, 13.727784, 100.772463
1759228726.448147, -1.594389, 9.378238, 0.247501, -0.506226, -0.858226, -0.111606, 62.039597, 6.637192, -275.464111, 13.727784, 100.772463
1759228726.468119, -1.723526, 9.522937, -0.186598, -0.522375, -0.764226, -0.104154, 61.373230, 6.661743, -275.682495, 13.727784, 100.772463
1759228726.488181, -1.852364, 9.601646, -0.511012, -0.486438, -0.632041, -0.065239, 61.328705, 6.779388, -276.499390, 13.727784, 100.772463
1759228726.507195, -2.003199, 9.763405, -0.747141, -0.366598, -0.396662, -0.014885, 61.552750, 7.338013, -276.756165, 13.727784, 100.772463
1759228726.528074, -2.222867, 9.851092, -0.672172, -0.223090, -0.137059, 0.033882, 61.095871, 7.206757, -276.729919, 13.727784, 100.772463
1759228726.548092, -2.501791, 9.848848, -0.361524, -0.187222, 0.201474, -0.007098, 61.651855, 7.490677, -276.433441, 13.727784, 100.772463
1759228726.568137, -2.310704, 9.651476, -0.137816, -0.194385, 0.304735, -0.077540, 61.633270, 7.575455, -276.656738, 13.727784, 100.772463
1759228726.588274, -1.799691, 9.522488, -0.072874, -0.198692, 0.353243, -0.131791, 61.548996, 7.339325, -276.394897, 13.727784, 100.772463
1759228726.607415, -1.194557, 9.561693, -0.151583, -0.185204, 0.371771, -0.151940, 61.593185, 7.544373, -276.269684, 13.727784, 100.772463
1759228726.628138, -0.600346, 9.684546, -0.105794, -0.103759, 0.352159, -0.163466, 61.754730, 7.324066, -275.717285, 13.727784, 100.772463
1759228726.648084, -0.099808, 9.635913, 0.142904, -0.043631, 0.208014, -0.137221, 61.388992, 7.990143, -275.099426, 13.727784, 100.772463
1759228726.668079, 0.144550, 9.545532, 0.512060, -0.051812, 0.061244, -0.096813, 61.466125, 7.927750, -275.591736, 13.727784, 100.772463
1759228726.688145, 0.220267, 9.708937, 0.845452, -0.134481, -0.039218, -0.045807, 62.092041, 7.986038, -275.544312, 13.727784, 100.772463
1759228726.707527, 0.155773, 9.818771, 0.965761, -0.285364, -0.100778, 0.021463, 61.792801, 8.374924, -275.819763, 13.727784, 100.772463
1759228726.728081, -0.149937, 9.666739, 0.752528, -0.436586, -0.051000, 0.073635, 61.677689, 7.870346, -275.909637, 13.727784, 100.772463
1759228726.748087, -0.853084, 9.433005, 0.170886, -0.472288, 0.115597, 0.102116, 61.677567, 8.480545, -276.014160, 13.727784, 100.772463
1759228726.768151, -1.299303, 9.298032, -0.444723, -0.366760, 0.370141, 0.134140, 61.588638, 8.393478, -274.841431, 13.727784, 100.772463
1759228726.788097, -1.684321, 9.415048, -0.706738, -0.259147, 0.479219, 0.133938, 61.852066, 8.498459, -274.992371, 13.727784, 100.772463
1759228726.807794, -1.886631, 9.805303, -0.648080, -0.086872, 0.393798, 0.129054, 61.998459, 8.407883, -274.743042, 13.727784, 100.772463
1759228726.827976, -1.549348, 9.594015, -0.317980, 0.095751, 0.311435, 0.116175, 62.048553, 8.324707, -274.425323, 13.727784, 100.772463
1759228726.848094, -1.167772, 9.280973, 0.334290, 0.200522, 0.269241, 0.149201, 62.155640, 8.110931, -274.515198, 13.727784, 100.772463
1759228726.868099, -1.290774, 9.156924, 1.037288, 0.211638, 0.337542, 0.158663, 62.262192, 8.114334, -274.693604, 13.727784, 100.772463
1759228726.888146, -1.571793, 9.249400, 1.458069, 0.159886, 0.460710, 0.165414, 62.574402, 7.900864, -273.501740, 13.727784, 100.772463
1759228726.907889, -1.903540, 9.768343, 1.681927, 0.052536, 0.505356, 0.128087, 62.523972, 7.831543, -273.539764, 13.727784, 100.772463
1759228726.928091, -1.899799, 9.784055, 1.519720, -0.012596, 0.387276, 0.074402, 62.520401, 7.587936, -274.116241, 13.727784, 100.772463
1759228726.948086, -1.539172, 9.524583, 1.099986, 0.004110, 0.306591, 0.034720, 62.866257, 8.193481, -272.902313, 13.727784, 100.772463
1759228726.968148, -0.734272, 9.991602, 0.864008, 0.017409, 0.207969, 0.005641, 62.644501, 7.848892, -273.251465, 13.727784, 100.772463
1759228726.988108, 0.017059, 9.977985, 0.684293, -0.002568, 0.071610, 0.018320, 62.902283, 8.083176, -272.915344, 13.727784, 100.772463
1759228727.008089, 0.524929, 10.028862, 0.452654, 0.043097, -0.112777, 0.054707, 62.818115, 8.336075, -273.017212, 13.727784, 100.772463
1759228727.028100, 0.792930, 10.154557, 0.439785, 0.064181, -0.188788, 0.121390, 62.752777, 8.049683, -272.890167, 13.727784, 100.772463
1759228727.048157, 0.812233, 9.946412, 0.450708, 0.050662, -0.159966, 0.192037, 62.716568, 7.906387, -273.366943, 13.727784, 100.772463
1759228727.068100, 0.570568, 10.038139, 0.349404, 0.113077, 0.042746, 0.151970, 62.461960, 7.715729, -273.226562, 13.727784, 100.772463
1759228727.088153, 0.103848, 9.828347, 0.620697, 0.164277, 0.327695, 0.030854, 62.802902, 7.836243, -273.304565, 13.727784, 100.772463
1759228727.108073, 0.377685, 9.836428, 1.169568, 0.044083, 0.211055, 0.075558, 62.745804, 7.834854, -273.405731, 13.727784, 100.772463
1759228727.128083, 0.248398, 9.180417, 1.177498, -0.120158, -0.052774, 0.041887, 62.706161, 7.909622, -273.240967, 13.727784, 100.772463
1759228727.148095, -0.001945, 9.288455, 0.929698, -0.162711, -0.145571, 0.005030, 62.847839, 7.616867, -272.545624, 13.727784, 100.772463
1759228727.168095, 0.199916, 9.273042, 0.935385, -0.198820, -0.208192, -0.043579, 62.991074, 7.904816, -273.322571, 13.727784, 100.772463
1759228727.188099, 0.089483, 9.268404, 0.933140, -0.275429, -0.183673, -0.104634, 62.218613, 8.093216, -272.970215, 13.727784, 100.772463
1759228727.208144, 0.339228, 9.572018, 0.729633, -0.289525, -0.017948, -0.096267, 62.278259, 8.316177, -272.534760, 13.727784, 100.772463
1759228727.227589, 0.135572, 10.135404, 0.462231, -0.284021, 0.060407, -0.122416, 62.469925, 8.160294, -272.590271, 13.727784, 100.772463
1759228727.248096, 0.011672, 10.200945, 0.541090, -0.352060, -0.023056, -0.112625, 62.715134, 8.547989, -272.361572, 13.727784, 100.772463
1759228727.268117, 0.041599, 9.818172, 0.348356, -0.380479, -0.042480, -0.067159, 62.345856, 8.765961, -272.871460, 13.727784, 100.772463
1759228727.288155, -0.101754, 9.819818, 0.030825, -0.375895, 0.253156, -0.035277, 62.457291, 8.733887, -271.991241, 13.727784, 100.772463
1759228727.308078, -0.357933, 9.448418, -0.267552, -0.319531, 0.676182, 0.010421, 62.880722, 9.117126, -271.852112, 13.727784, 100.772463
1759228727.328097, -0.536152, 9.203461, -0.581941, -0.174308, 0.818972, -0.002412, 63.092606, 8.907333, -271.458405, 13.727784, 100.772463
1759228727.347983, -0.582539, 9.369409, -0.402226, -0.040950, 0.549666, -0.051031, 62.813889, 9.251694, -270.870422, 13.727784, 100.772463
1759228727.368153, -0.328604, 9.216779, -0.137218, 0.001322, 0.201967, -0.063685, 63.133331, 9.235641, -270.428955, 13.727784, 100.772463
1759228727.388168, 0.058957, 8.508544, 0.002993, 0.133940, -0.158412, 0.016798, 63.121582, 9.402405, -270.356018, 13.727784, 100.772463
1759228727.408109, 0.113874, 8.162432, 0.181510, 0.075198, -0.148714, 0.022747, 62.829636, 9.302216, -270.486725, 13.727784, 100.772463
1759228727.427284, 0.559345, 7.971046, 0.033668, 0.023009, 0.158944, 0.072621, 62.718033, 9.398148, -270.451782, 13.727784, 100.772463
1759228727.448118, 0.853383, 7.466168, -0.301370, 0.251227, 0.532250, 0.183726, 62.927383, 9.421524, -270.421204, 13.727784, 100.772463
1759228727.467565, 1.025466, 7.444620, 0.102801, 0.392753, 0.466828, 0.327991, 63.125198, 9.338226, -270.391357, 13.727784, 100.772463
1759228727.488117, 0.429011, 9.008932, 0.651223, 0.202319, 0.549419, 0.319018, 63.049850, 8.673889, -269.752167, 13.727784, 100.772463
1759228727.508079, 0.283414, 10.178948, 0.348356, 0.110476, 0.666939, 0.195226, 63.330414, 8.788589, -269.494965, 13.727784, 100.772463
1759228727.528095, 0.647632, 10.089914, -0.156820, 0.104602, 0.635302, 0.058542, 63.280441, 8.948227, -269.043701, 13.727784, 100.772463
1759228727.547171, 0.782305, 9.301773, -0.520440, 0.155766, 0.593163, 0.020523, 63.515518, 9.262695, -268.141296, 13.727784, 100.772463
1759228727.568105, 0.356287, 8.887277, -1.854010, 0.383866, 0.723310, 0.048847, 63.747238, 9.000961, -267.791016, 13.727784, 100.772463
1759228727.588131, -0.792481, 10.054450, -1.842488, 0.857731, 0.665589, -0.143279, 63.511414, 9.004379, -267.725342, 13.727784, 100.772463
1759228727.607224, -0.378733, 9.587431, -1.084723, 0.955194, 0.256164, -0.429102, 63.377625, 9.612076, -267.353027, 13.727784, 100.772463
1759228727.628096, 0.721403, 8.360403, -1.607557, 1.070019, 0.089045, -0.505980, 63.287582, 9.138748, -267.838104, 13.727784, 100.772463
1759228727.648110, 0.692074, 7.540089, -1.487547, 1.397539, 0.165355, -0.609965, 63.374283, 9.137848, -268.715637, 13.727784, 100.772463
1759228727.667529, 0.784999, 6.336105, -0.413299, 1.412494, 0.205554, -0.592269, 62.978287, 9.643402, -268.193939, 13.727784, 100.772463
1759228727.687391, 1.697040, 6.588394, 0.486771, 1.282789, 0.240940, -0.454066, 62.625488, 10.015701, -267.844025, 13.727784, 100.772463
1759228727.707382, 2.157176, 10.209474, 0.923713, 1.204502, 0.579552, -0.244902, 62.911575, 10.288589, -267.952332, 13.727784, 100.772463
1759228727.727990, 2.460042, 14.809035, 1.156998, 0.986872, 0.804897, -0.038110, 63.085205, 9.960876, -267.388367, 13.727784, 100.772463
1759228727.748115, 3.610606, 12.505215, 0.416591, 0.598829, 0.527746, 0.177518, 62.646988, 9.797180, -267.727722, 13.727784, 100.772463
1759228727.768106, 4.708048, 10.128221, -1.439663, 0.430566, 0.343723, 0.757740, 63.083893, 9.644836, -267.500366, 13.727784, 100.772463
1759228727.788099, 4.699967, 14.380024, -2.631826, 0.692011, 0.056316, 1.767649, 63.406540, 8.675491, -267.039398, 13.727784, 100.772463
1759228727.807608, 2.192939, 21.588965, -2.091934, 1.043986, -0.613954, 2.545857, 63.534683, 7.537048, -268.125854, 13.727784, 100.772463
1759228727.827986, -3.027917, 20.573076, -1.649156, 0.890677, -0.768285, 2.207787, 63.516449, 5.774292, -268.814514, 13.727784, 100.772463
1759228727.848133, -5.224896, 15.089456, -1.521515, 0.633509, -0.439698, 1.700775, 63.856018, 4.842392, -269.098999, 13.727784, 100.772463
1759228727.868096, -5.123741, 13.018322, -2.477550, 0.383322, -0.210923, 1.105686, 63.679657, 4.078522, -270.104614, 13.727784, 100.772463
1759228727.888099, -3.137302, 13.174544, -4.579509, 0.467237, 0.095617, 0.911473, 64.058411, 3.864090, -270.025757, 13.727784, 100.772463
1759228727.907727, -2.446575, 12.690616, -3.737199, 0.790593, 1.195723, 1.158060, 64.490326, 2.894485, -269.669006, 13.727784, 100.772463
1759228727.928098, -3.879355, 13.096882, -2.099864, 0.534753, 1.474189, 1.182257, 65.277771, 1.741730, -268.556824, 13.727784, 100.772463
1759228727.948111, -2.704999, 10.562170, -1.946636, 0.454379, 0.909943, 1.073977, 65.408936, 1.216003, -268.273407, 13.727784, 100.772463
1759228727.968169, -0.930896, 9.031378, -1.405247, 0.414197, 0.959373, 1.060959, 65.956543, 0.297073, -268.054016, 13.727784, 100.772463
1759228727.988106, 0.743100, 8.257302, -0.958878, 0.150026, 1.168763, 1.122514, 65.837036, -0.240906, -267.088867, 13.727784, 100.772463
1759228728.007995, 3.487903, 7.547122, 0.870442, -0.296726, 1.187097, 1.240944, 66.165359, -1.102142, -266.431030, 13.727784, 100.772463
1759228728.027913, 5.748029, 7.728333, 1.835455, -0.718270, 1.065582, 1.519314, 66.127563, -2.251480, -266.010223, 13.727784, 100.772463
1759228728.048179, 3.705177, 7.893833, -0.717812, -0.502843, 0.363512, 1.378009, 66.250122, -2.572815, -265.406860, 13.727784, 100.772463
1759228728.068102, 1.460912, 7.449858, -1.750311, -0.077038, -0.919280, 0.998914, 66.101349, -3.161316, -266.131409, 13.727784, 100.772463
1759228728.088102, -1.023820, 5.921160, -1.280299, 0.066751, -1.806959, 0.572751, 65.846771, -3.527100, -267.509155, 13.727784, 100.772463
1759228728.107971, -1.292719, 4.316746, -0.735170, 0.134815, -2.087349, 0.135617, 65.807297, -3.794449, -268.774658, 13.727784, 100.772463
1759228728.128103, -1.313070, 3.590854, 0.263811, 0.068703, -1.767233, -0.298072, 65.159134, -3.613586, -270.420898, 13.727784, 100.772463
1759228728.148117, -2.057218, 3.591751, 1.047014, -0.263885, -1.060381, -0.642224, 64.940521, -3.001877, -270.873230, 13.727784, 100.772463
1759228728.168180, -2.681207, 4.193594, 0.508618, -0.594187, -0.404769, -0.957781, 64.751709, -2.540009, -271.096619, 13.727784, 100.772463
1759228728.188140, -1.864185, 5.213374, -0.112677, -0.805305, 0.387304, -1.171275, 64.963486, -1.268753, -270.322662, 13.727784, 100.772463
1759228728.208100, -1.636886, 6.676680, 0.125845, -1.336776, 0.403099, -1.364232, 64.902054, -0.159851, -270.443542, 13.727784, 100.772463
1759228728.228190, -1.287632, 8.315511, -1.604714, -2.022936, -0.230322, -1.480268, 65.152725, 1.085846, -270.781891, 13.727784, 100.772463
1759228728.248181, -1.077540, 8.487894, -5.807884, -1.721060, 0.069304, -1.436816, 64.424377, 2.552933, -270.031250, 13.727784, 100.772463
1759228728.268213, -0.970101, 8.608352, -6.058527, -0.941981, 0.392604, -1.438711, 64.683838, 3.316055, -269.665802, 13.727784, 100.772463
1759228728.288170, 0.134973, 8.966584, -4.050391, -0.281597, 0.101485, -1.146461, 64.450790, 4.431870, -269.574707, 13.727784, 100.772463
1759228728.308126, 2.336741, 10.123134, -2.801066, -0.181382, 0.037625, -1.028843, 64.130676, 5.598892, -269.311890, 13.727784, 100.772463
1759228728.327104, 3.478326, 9.732280, -1.956362, -0.228900, -0.053613, -1.141146, 64.210907, 6.306641, -269.660065, 13.727784, 100.772463
1759228728.347301, 4.876241, 8.869619, -1.392827, -0.316872, -0.331468, -1.132100, 63.864319, 7.022522, -269.706360, 13.727784, 100.772463
1759228728.368099, 5.153519, 8.649053, -1.006163, -0.203033, -1.346597, -0.633286, 63.624649, 7.484467, -269.785492, 13.727784, 100.772463
1759228728.388121, 3.506009, 9.156026, -1.027412, -0.405224, -1.650878, -0.312229, 63.054428, 8.057739, -271.200531, 13.727784, 100.772463
1759228728.408101, 0.385466, 10.120590, -2.719813, -0.463136, -1.044662, -0.121578, 62.739685, 8.499985, -271.625244, 13.727784, 100.772463
1759228728.427285, -1.373224, 10.241198, -4.622904, -0.386489, -0.394142, -0.004734, 62.783585, 8.393143, -272.027039, 13.727784, 100.772463
1759228728.448141, -0.251541, 8.754099, -3.804985, -0.149190, 1.710528, 0.280973, 62.766754, 8.521072, -270.865662, 13.727784, 100.772463
1759228728.468110, 0.535254, 9.398289, -1.501913, -0.026397, 1.781936, 0.298401, 63.300613, 8.590515, -270.704285, 13.727784, 100.772463
1759228728.488182, 1.680580, 10.157101, -0.305710, -0.088838, 1.540284, 0.296206, 64.289307, 8.725525, -269.065674, 13.727784, 100.772463
1759228728.508120, 1.335516, 12.385654, 0.398485, -0.681938, 1.262536, 0.475183, 64.183533, 8.401596, -268.103821, 13.727784, 100.772463
1759228728.528153, -0.922366, 14.243704, -1.754052, -0.679441, 1.302268, 0.438301, 64.626144, 8.255844, -267.067657, 13.727784, 100.772463
1759228728.548122, -1.545008, 10.046220, -2.620603, 0.471051, 0.475525, 0.267870, 65.073029, 8.152328, -267.112000, 13.727784, 100.772463
1759228728.568177, 1.781735, 9.875334, -0.300173, 0.632536, 0.495999, 0.367132, 64.989594, 7.864822, -266.961670, 13.727784, 100.772463
1759228728.588114, 4.600907, 17.441161, 0.456395, 0.356966, 0.974742, 0.350548, 65.136154, 7.912430, -266.106750, 13.727784, 100.772463
1759228728.608132, 6.340445, 17.711855, 0.519991, 0.187856, 0.705671, 0.357203, 65.571991, 7.618530, -265.461304, 13.727784, 100.772463
1759228728.627433, 4.636072, 14.022989, -2.087145, 0.631247, -0.909917, 0.356984, 65.923874, 7.108948, -265.847626, 13.727784, 100.772463
1759228728.648127, 0.378882, 10.240150, -1.904139, 1.522600, -2.567895, 0.323580, 65.805695, 6.779465, -267.690674, 13.727784, 100.772463
1759228728.668100, -3.709516, 10.609456, 3.832967, 1.306155, -3.389780, -0.306157, 65.127838, 6.531708, -269.763367, 13.727784, 100.772463
1759228728.688180, -3.731214, 9.598953, 6.351667, -0.121333, -2.770775, -0.705197, 63.633804, 7.028763, -271.909485, 13.727784, 100.772463
1759228728.708110, -1.140837, 11.714679, 5.865345, -1.211241, -0.243135, -0.667019, 63.511047, 7.515182, -273.025146, 13.727784, 100.772463
1759228728.728123, 0.961272, 9.598205, 2.878728, -1.535065, 1.753259, -0.285402, 63.653183, 8.155502, -271.721008, 13.727784, 100.772463
1759228728.748124, 5.352986, 6.321291, -0.463727, -1.336682, 2.651960, 0.161382, 64.118896, 8.590042, -269.473602, 13.727784, 100.772463
1759228728.767163, 5.763292, 11.273547, -4.400094, -0.680566, 2.214226, 0.191125, 64.655853, 8.728531, -267.901855, 13.727784, 100.772463
