SamplingTime, AccelerationX, AccelerationY, AccelerationZ, GyroX, GyroY, GyroZ, MagneticFieldX, MagneticFieldY, MagneticFieldZ, Latitude, Longitude
1759229812.400304, 0.858022, -1.980903, -8.605808, -0.013850, -0.107063, 0.089629, -54.691376, 6.939774, -131.861130, 13.727969, 100.772476
1759229812.419853, 0.628628, -1.953669, -8.886379, -0.220504, -0.040058, 0.057711, -54.947647, 6.592422, -132.007843, 13.727969, 100.772476
1759229812.440333, 0.642095, -1.821239, -9.619453, -0.192473, -0.011600, -0.014158, -54.554337, 6.872345, -131.879929, 13.727991, 100.772477
1759229812.460239, 0.817021, -1.590947, -10.161441, -0.026096, 0.026572, -0.017467, -54.796631, 6.761429, -131.559830, 13.727991, 100.772477
1759229812.479557, 1.035642, -1.301847, -9.905261, 0.128350, 0.157735, 0.069641, -54.277161, 6.853088, -131.894348, 13.727991, 100.772477
1759229812.499509, 1.211915, -1.348833, -9.144055, 0.196952, 0.046938, 0.141849, -54.368088, 6.811554, -131.068283, 13.727991, 100.772477
1759229812.520258, 1.167622, -1.602020, -8.828170, 0.363834, -0.267833, 0.089254, -54.477478, 6.941833, -131.104034, 13.727991, 100.772477
1759229812.540257, 0.975039, -1.505654, -9.310152, 0.603601, -0.452264, 0.003891, -54.452927, 6.330750, -131.834900, 13.727991, 100.772477
1759229812.559349, 1.028908, -1.427543, -8.871864, 0.624185, -0.419302, -0.001859, -54.567520, 6.304230, -132.346375, 13.727991, 100.772477
1759229812.579973, 1.173608, -1.493533, -8.927379, 0.616093, -0.025758, 0.065898, -54.801819, 6.460709, -133.051102, 13.727991, 100.772477
1759229812.600256, 1.470489, -0.865354, -8.309376, 0.451196, 0.664253, -0.095021, -54.792786, 6.226654, -132.969040, 13.727991, 100.772477
1759229812.620290, 1.700781, -0.543933, -6.491878, 0.231213, 0.445074, -0.118905, -53.933029, 5.972061, -133.146667, 13.727991, 100.772477
1759229812.640314, 2.358139, -1.395969, -5.646276, 0.246586, 0.087453, 0.069712, -54.300705, 5.892700, -133.410461, 13.727991, 100.772477
1759229812.659402, 2.256984, -1.648258, -5.667524, 0.474646, -0.559677, 0.488786, -54.375778, 5.950317, -133.552170, 13.727991, 100.772477
1759229812.679950, 1.280449, -1.395969, -5.762245, 0.812193, -1.564979, 0.771237, -54.287384, 5.702805, -134.117905, 13.727991, 100.772477
1759229812.700266, 0.578200, -1.936909, -7.318326, 1.356385, -2.383235, 0.681110, -54.583313, 5.109131, -135.315475, 13.727991, 100.772477
1759229812.719816, 0.230143, -1.438167, -7.769933, 1.521317, -1.817464, 0.221437, -55.051270, 4.858002, -135.921616, 13.727991, 100.772477
1759229812.739693, -0.201562, -0.097863, -6.564452, 0.693656, -0.916972, -0.237282, -55.507095, 4.414688, -136.120850, 13.727991, 100.772477
1759229812.760285, 0.391602, 0.020650, -7.081001, 0.284237, 0.230605, -0.442575, -55.446396, 4.422989, -135.898148, 13.727991, 100.772477
1759229812.780272, -4.366425, -1.650802, -7.955633, -0.042382, 1.760318, -1.805518, -55.598953, 4.679291, -136.448654, 13.727991, 100.772477
1759229812.799532, -2.017564, -3.036596, -9.080908, -0.189554, 3.489104, -2.421582, -56.003754, 4.600464, -135.589752, 13.727991, 100.772477
1759229812.820144, -1.562366, -3.981857, -9.850195, -0.189241, 1.940956, -2.449001, -55.799438, 4.813919, -135.699234, 13.727991, 100.772477
1759229812.840263, 1.691803, -5.301361, -11.282975, -1.086322, -1.541606, -1.281272, -57.230286, 4.845871, -135.164597, 13.727991, 100.772477
1759229812.859361, 1.508946, -1.444901, -10.847529, -1.478844, -1.237517, -1.135140, -58.283829, 5.444397, -134.082306, 13.727991, 100.772477
1759229812.880306, 2.190695, -1.304241, -8.796297, -1.781784, -2.167267, -1.190889, -59.400558, 5.918915, -132.845703, 13.727991, 100.772477
1759229812.899922, 0.702399, -0.638204, -8.308927, -1.717538, -2.137643, -1.469994, -61.076630, 6.031097, -131.605148, 13.727991, 100.772477
1759229812.920288, -0.171634, -1.966238, -10.734702, -1.325979, -1.591612, -1.649201, -62.390289, 6.390152, -130.486023, 13.727991, 100.772477
1759229812.940259, 0.922067, -2.640505, -13.784167, -1.081858, -2.082675, -1.382754, -63.417038, 6.474380, -129.654022, 13.727991, 100.772477
1759229812.959355, 1.352425, -1.063923, -13.489531, -0.778960, -2.061955, -0.941495, -64.342972, 6.556961, -128.548462, 13.727991, 100.772477
1759229812.980308, 0.102951, -0.991349, -11.316493, -0.543972, -2.488590, -0.708451, -65.064148, 6.728882, -127.573486, 13.727991, 100.772477
1759229813.000251, -0.588076, -1.296011, -11.239729, -0.335628, -3.344352, -0.656179, -66.366348, 6.697418, -127.634430, 13.727991, 100.772477
1759229813.020265, -1.450288, -1.804181, -11.973103, 0.051915, -4.044427, -0.543646, -67.282730, 6.394119, -126.682983, 13.727991, 100.772477
1759229813.040249, -2.351705, -2.405275, -12.021885, 0.330445, -4.157107, -0.196988, -67.786926, 6.302246, -125.749847, 13.727991, 100.772477
1759229813.059358, -4.683358, -1.838448, -6.788310, 0.092557, -4.719419, 0.805900, -68.188004, 6.204727, -124.270599, 13.727991, 100.772477
1759229813.080273, -2.597110, -0.972644, -5.964256, -0.526047, -2.055732, 1.925751, -67.199585, 6.682968, -123.380829, 13.727991, 100.772477
1759229813.100267, 2.634520, -1.197849, -6.948272, -1.215503, -2.071873, 1.579125, -66.445786, 7.187057, -122.210144, 13.727991, 100.772477
1759229813.120329, -6.149507, 2.538303, -6.546196, -2.165466, -1.456508, 0.546541, -65.948547, 7.727783, -120.901184, 13.727991, 100.772477
1759229813.140274, -6.433968, 3.200299, -5.972037, -2.532341, -1.306512, -0.071078, -65.803162, 7.412262, -118.998627, 13.727991, 100.772477
1759229813.159438, -5.728876, 3.034950, -4.482993, -2.860980, -0.796852, 0.051728, -65.794800, 7.591187, -117.214798, 13.727991, 100.772477
1759229813.180448, -8.943091, 2.243816, -6.328922, -3.524915, -0.676112, 0.205839, -65.553040, 7.228683, -115.202255, 13.727991, 100.772477
1759229813.200322, -8.037934, 3.815160, -10.929830, -2.571229, -0.414187, 0.508828, -65.515137, 7.391342, -112.905716, 13.727991, 100.772477
1759229813.220328, -8.153603, 1.726818, -9.140014, -2.154140, -0.849785, 0.987269, -64.556152, 7.369736, -111.957855, 13.727991, 100.772477
1759229813.240246, -9.888352, 1.995866, -8.427440, -2.234851, -1.794179, 1.077309, -63.732513, 7.097504, -110.397217, 13.727991, 100.772477
1759229813.259396, -10.950330, 2.321627, -10.236260, -1.893979, -2.476145, 0.785169, -62.935379, 6.911041, -108.833084, 13.727991, 100.772477
1759229813.280253, -9.964518, 2.708441, -10.428694, -1.259957, -3.452581, 0.971704, -61.530167, 6.536591, -106.888489, 13.727991, 100.772477
1759229813.299540, -8.203732, 2.868254, -9.051130, -0.762869, -3.847302, 1.463792, -59.785583, 6.381058, -106.615189, 13.727991, 100.772477
1759229813.320288, -6.719776, 4.056675, -7.624335, -0.646573, -3.892217, 1.932385, -58.039780, 6.342728, -106.078369, 13.727991, 100.772477
1759229813.340460, -6.560561, 4.015974, -6.033388, -0.679445, -3.849490, 2.295322, -55.602524, 6.268387, -105.682037, 13.727991, 100.772477
1759229813.359392, -6.702568, 4.671836, -4.739173, -0.828571, -3.633543, 2.597813, -53.381485, 5.960678, -104.887115, 13.727991, 100.772477
1759229813.380445, -9.424027, 4.653131, -3.726425, -0.991847, -3.096649, 2.014256, -50.998520, 5.515640, -105.010483, 13.727991, 100.772477
1759229813.399991, -10.456825, 4.966921, -4.206912, -0.901005, -2.662264, 1.239782, -49.383484, 5.146820, -104.468597, 13.727991, 100.772477
1759229813.420314, -9.747094, 5.663783, -2.566285, -1.005738, -2.076036, 1.066652, -48.063583, 4.686203, -104.497375, 13.727991, 100.772477
1759229813.440462, -11.386973, 6.251410, -2.491915, -0.916322, -1.845101, 0.742533, -47.022766, 4.500137, -105.022614, 13.727991, 100.772477
1759229813.459380, -11.476007, 6.637625, -2.134431, -0.900343, -1.812670, 0.676967, -46.232269, 3.765121, -104.062698, 13.727991, 100.772477
1759229813.480278, -12.321759, 7.152079, -0.266505, -1.211858, -2.173368, 0.429030, -44.976532, 3.412933, -104.499741, 13.727991, 100.772477
1759229813.500309, -14.455142, 6.379201, 0.681450, -1.554641, -1.827769, -0.458616, -44.735474, 3.228622, -104.114731, 13.727991, 100.772477
1759229813.520264, -14.159907, 6.760477, 0.742352, -1.706947, -1.676621, -0.823397, -44.708328, 2.615051, -103.785446, 13.727991, 100.772477
1759229813.540348, -11.226262, 7.071275, 0.061800, -1.777865, -1.634777, -0.972725, -44.537247, 2.216782, -102.823593, 13.727991, 100.772477
1759229813.560287, -9.397990, 6.178088, 0.174477, -1.766264, -1.606897, -0.789668, -44.625458, 2.268326, -102.844040, 13.727991, 100.772477
1759229813.580469, -9.376442, 4.924873, 0.365415, -1.788739, -1.098549, -1.013320, -45.019455, 1.788620, -102.073883, 13.727991, 100.772477
1759229813.599801, -8.959701, 4.095132, -0.113126, -1.623998, -0.584651, -1.244651, -45.864151, 1.288849, -101.081909, 13.727991, 100.772477
1759229813.619460, -6.750452, 3.138798, -3.470545, -0.612765, -0.510700, -0.853881, -45.943390, 1.368591, -100.243027, 13.727991, 100.772477
1759229813.640343, -7.417985, 1.399411, 0.108038, -1.030691, -0.124018, -0.844473, -46.194351, 1.321762, -100.470352, 13.727991, 100.772477
1759229813.659679, -8.513482, 0.517297, -1.483657, -1.109306, 0.266715, -1.111205, -46.584030, 1.102310, -99.189880, 13.727991, 100.772477
1759229813.680268, -7.534852, -0.394594, -2.785803, -0.406958, 0.123833, -0.883845, -47.434219, 0.879654, -99.626114, 13.727991, 100.772477
1759229813.699595, -7.198616, -0.771083, -0.137517, -0.571173, 0.479171, -0.782093, -47.755829, 0.859100, -98.694595, 13.727991, 100.772477
1759229813.720262, -6.725163, 0.376189, 0.263213, -0.595098, 0.756146, -0.729593, -48.301865, 0.846146, -98.821228, 13.727991, 100.772477
1759229813.740273, -8.018331, 0.316484, 0.272789, -0.337163, 1.017575, -0.900535, -49.474121, 1.171631, -97.812439, 13.727991, 100.772477
1759229813.760232, -9.695170, 0.081104, 1.154155, -0.408596, 1.064463, -1.040284, -50.268478, 1.110840, -97.816040, 13.727991, 100.772477
1759229813.780251, -8.505850, 1.503559, 1.065869, -0.483435, 0.526869, -0.644651, -50.789749, 0.732071, -97.532104, 13.727991, 100.772477
1759229813.799642, -9.806650, 0.899472, 0.349404, -0.477012, 0.792937, -0.911389, -51.168152, 0.919846, -97.313965, 13.727991, 100.772477
1759229813.820117, -8.400655, 0.991948, 1.218798, -0.811527, 1.212286, -0.933266, -52.621490, 0.682663, -96.748703, 13.727991, 100.772477
1759229813.840321, -8.308927, 3.684377, 2.710386, -1.237990, 1.146515, -0.693511, -53.386536, -0.180862, -95.949402, 13.727991, 100.772477
1759229813.859666, -10.235362, 5.004031, 2.761412, -1.510074, 1.511155, -1.048923, -54.544937, -0.739990, -95.282867, 13.727991, 100.772477
1759229813.880272, -7.976283, 3.898658, 1.752107, -1.621221, 1.379713, -0.663804, -55.700333, -1.562958, -94.969376, 13.727991, 100.772477
1759229813.899604, -6.024260, 4.631583, 1.488146, -1.606217, 1.039207, 0.077017, -55.913940, -2.008286, -94.232697, 13.727991, 100.772477
1759229813.920242, -8.517522, 6.166715, 0.872986, -1.534746, 1.432164, -0.383576, -56.544724, -2.645248, -93.226837, 13.727991, 100.772477
1759229813.940252, -8.340650, 4.849904, -0.650026, -1.333815, 1.008378, -0.493395, -57.400909, -3.214722, -93.360916, 13.727991, 100.772477
1759229813.960068, -9.486126, 2.915090, -0.864008, -1.118637, 0.569787, -0.239076, -57.649872, -3.940643, -92.692871, 13.727991, 100.772477
1759229813.980270, -9.865158, 3.199851, -0.312743, -0.958358, 0.284260, -0.026224, -58.058594, -4.306290, -92.228592, 13.727991, 100.772477
1759229814.000246, -9.579500, 2.551321, -0.160711, -0.755634, 0.167720, 0.245976, -58.143433, -4.830765, -91.995743, 13.727991, 100.772477
1759229814.020241, -10.298060, 1.367388, 0.154725, -0.617377, -0.031908, 0.555886, -57.854614, -5.271988, -91.725006, 13.727991, 100.772477
1759229814.040267, -11.272650, 1.641375, -0.771681, -0.524430, 0.312215, 0.374170, -57.919464, -5.552200, -91.263153, 13.727991, 100.772477
1759229814.060259, -8.459014, 3.016844, -0.058658, -0.417764, 0.544581, 0.580349, -58.265381, -5.513336, -91.764328, 13.727991, 100.772477
1759229814.080267, -9.093477, 4.206014, 0.398784, -0.606388, 0.484922, 0.682304, -58.037247, -5.980591, -91.386917, 13.727991, 100.772477
1759229814.100255, -8.558373, 5.113715, 1.393725, -1.070258, 0.728057, 0.870140, -58.592728, -6.464569, -91.128479, 13.727991, 100.772477
1759229814.119495, -9.020005, 5.391144, -2.333898, -0.692604, 0.142023, 0.832732, -57.930862, -6.550430, -90.730850, 13.727991, 100.772477
1759229814.140251, -10.224588, 3.660435, -1.489343, -0.311109, 0.144842, 0.658743, -58.101913, -6.412216, -90.748917, 13.727991, 100.772477
1759229814.160016, -9.598654, 3.459023, 0.131382, -0.315802, -0.275320, 0.602557, -57.704544, -6.687286, -90.396103, 13.727991, 100.772477
1759229814.180270, -7.981819, 4.034230, -0.551115, 0.075770, -0.437880, 0.538732, -57.322723, -6.865005, -90.619324, 13.727991, 100.772477
1759229814.200250, -7.850737, 2.476053, 0.000449, 0.175960, -0.238019, 0.272767, -56.826187, -6.793777, -90.852417, 13.727991, 100.772477
1759229814.219874, -8.991275, 0.533907, -1.445948, 0.419704, -0.052562, 0.053297, -56.808762, -6.751282, -90.426941, 13.727991, 100.772477
1759229814.240330, -10.051008, 2.507777, 0.134075, 0.441626, -0.026661, -0.092945, -56.833206, -6.545090, -91.110321, 13.727991, 100.772477
1759229814.260224, -8.960000, 3.699341, 0.282366, 0.372643, -0.257134, 0.037384, -56.709320, -6.022141, -90.748199, 13.727991, 100.772477
1759229814.280373, -10.263045, 1.933467, -0.166996, 0.183286, 0.152717, -0.190164, -56.593506, -5.878372, -90.957306, 13.727991, 100.772477
1759229814.300319, -7.852981, -0.023643, -2.376096, 0.302757, 0.330376, 0.363772, -56.838303, -5.871719, -90.880295, 13.727991, 100.772477
1759229814.320241, -4.733187, -1.293168, -2.551471, -0.059078, 0.013814, 1.880727, -56.311584, -5.547943, -91.123535, 13.727991, 100.772477
1759229814.340333, -4.238784, 1.024120, -2.238279, -0.282045, -0.351308, 4.000065, -55.114609, -6.114731, -91.555130, 13.727991, 100.772477
1759229814.360184, -2.169446, 3.257611, -0.327257, -0.665912, -2.035814, 6.579434, -52.397293, -6.339966, -91.197708, 13.727991, 100.772477
1759229814.380339, -6.877045, 6.848315, 1.267431, -0.984428, -3.883357, 7.210027, -48.274689, -8.049789, -91.272812, 13.727991, 100.772477
1759229814.400265, -11.668142, 8.661324, 0.211737, 0.354335, -4.085386, 3.403756, -44.463760, -8.395294, -92.339996, 13.727991, 100.772477
1759229814.420261, -7.703194, 13.409325, 1.570147, 2.717838, 0.735740, 0.066192, -43.979797, -7.577637, -92.675201, 13.727991, 100.772477
1759229814.440270, -6.851607, 10.450092, 4.518756, 2.121221, 0.663046, -0.805163, -44.949387, -6.439789, -93.355545, 13.727991, 100.772477
1759229814.460218, -6.815843, 6.036531, 4.804714, 0.971287, -2.030055, -0.764058, -44.428391, -5.450836, -93.826813, 13.727991, 100.772477
1759229814.480236, -2.797475, 2.357241, 2.030732, 0.184959, -1.621985, 0.690913, -43.181274, -5.607513, -94.672485, 13.727991, 100.772477
1759229814.500253, -2.418293, 4.757129, -5.777059, 1.149882, 1.529681, 1.983361, -43.110748, -5.384857, -94.877716, 13.727991, 100.772477
1759229814.520245, -2.450166, 4.755333, -2.180669, 1.657934, 0.768596, 2.984745, -42.867645, -5.698273, -95.020599, 13.727991, 100.772477
1759229814.540285, -2.943072, 5.284302, -0.442628, 1.298743, -1.698271, 3.712995, -41.336212, -5.802933, -96.021149, 13.727991, 100.772477
1759229814.560254, -2.836381, 6.653486, -2.400187, 0.900265, -1.923334, 4.713766, -38.981644, -6.535461, -96.275436, 13.727991, 100.772477
1759229814.580354, -0.779911, 7.991696, 0.015562, 0.250929, -1.344516, 6.549798, -36.391998, -8.568619, -97.613083, 13.727991, 100.772477
1759229814.600247, 0.061501, 6.095637, 1.035043, 0.572166, -1.568136, 7.606734, -33.822678, -11.400452, -98.282104, 13.727991, 100.772477
1759229814.620253, 0.535852, 4.700117, 0.077063, 0.273053, 0.137919, 7.574051, -31.937424, -14.889725, -98.795090, 13.727991, 100.772477
1759229814.640230, -0.008829, 4.325125, 1.536629, -0.937510, 2.244312, 7.158280, -31.656281, -18.645050, -98.105286, 13.727991, 100.772477
1759229814.660255, -0.483928, 3.983054, 0.224007, -1.282612, 3.681312, 6.429460, -33.161331, -22.610474, -96.964279, 13.727991, 100.772477
1759229814.680240, 6.755390, 18.958785, -0.462829, -0.453776, 5.012512, 7.192687, -35.169769, -26.243744, -94.612595, 13.727991, 100.772477
1759229814.700252, 21.833922, 45.077879, 0.315735, 1.855937, 2.946579, 8.640624, -37.867142, -28.936234, -93.220657, 13.727991, 100.772477
1759229814.720246, 3.586664, 26.590901, -2.737919, 4.692543, 1.066468, 3.373676, -39.647354, -29.137619, -91.916763, 13.727991, 100.772477
1759229814.740318, -2.302175, 6.138583, -1.061230, 3.648574, 1.383311, -1.377541, -40.129562, -27.205215, -90.981064, 13.727991, 100.772477
1759229814.760255, 2.651578, 4.747253, 4.799477, 0.075126, 1.349070, -1.945809, -40.927399, -25.864883, -90.315216, 13.727991, 100.772477
1759229814.780294, 7.839813, 6.491130, 5.425860, -1.768949, -1.093378, -0.947159, -41.144699, -25.957794, -90.046082, 13.727991, 100.772477
1759229814.800250, 7.151181, 6.616227, 0.971896, -1.660080, -1.904793, -0.409194, -40.060501, -26.658203, -90.928909, 13.727991, 100.772477
1759229814.820242, 6.404190, 6.662914, -1.326986, -0.509392, -1.285699, -0.377109, -39.342941, -26.826614, -91.443481, 13.727991, 100.772477
1759229814.840255, 5.396381, 7.833828, -0.326360, 0.116481, -0.374686, -0.074288, -38.859039, -26.887497, -91.834549, 13.727991, 100.772477
1759229814.860283, 4.734983, 9.128792, 0.345214, 0.076756, 0.280782, 0.078336, -38.435532, -26.798645, -91.916519, 13.727991, 100.772477
1759229814.880253, 4.158878, 9.299827, 0.815675, -0.200195, 0.310494, -0.055104, -38.823517, -27.117920, -92.106415, 13.727991, 100.772477
1759229814.900082, 4.731541, 8.866327, -0.167444, -0.189877, -0.035879, -0.040107, -39.164734, -27.107910, -91.730804, 13.727991, 100.772477
1759229814.920257, 4.848558, 8.356811, 0.084994, -0.171082, -0.168043, -0.052791, -38.608063, -27.303497, -92.183258, 13.727991, 100.772477
1759229814.939453, 4.711041, 8.150012, 0.654066, -0.239395, -0.124939, -0.067180, -38.913300, -27.226364, -91.811844, 13.727991, 100.772477
1759229814.960312, 4.526687, 8.463952, 0.139013, -0.179925, 0.142904, -0.033189, -38.929642, -27.234451, -91.579788, 13.727991, 100.772477
1759229814.979912, 4.677073, 8.963442, -0.422577, -0.057937, 0.034804, -0.039534, -39.290115, -27.463150, -91.705093, 13.727991, 100.772477
1759229815.000019, 4.437653, 9.429414, -0.107889, 0.008287, -0.269922, -0.057513, -38.543076, -27.763184, -91.389297, 13.727991, 100.772477
1759229815.020266, 3.491943, 8.882189, 1.219247, -0.167995, 0.110865, -0.076915, -38.604172, -27.361420, -91.582993, 13.727991, 100.772477
1759229815.039867, 3.711910, 8.696189, 0.976535, -0.116859, 0.132967, -0.073143, -38.623901, -27.467224, -91.957733, 13.727991, 100.772477
1759229815.060258, 4.526388, 8.365191, -0.138415, 0.041374, -0.063707, -0.081012, -39.027817, -27.547989, -92.320877, 13.727991, 100.772477
1759229815.080274, 5.008820, 8.895357, -0.092925, 0.006441, -0.136907, -0.060880, -38.378586, -27.630707, -92.054535, 13.727991, 100.772477
1759229815.100247, 4.309563, 9.496002, 0.856226, -0.201717, -0.044502, -0.067505, -38.812180, -27.703491, -91.844101, 13.727991, 100.772477
1759229815.120254, 4.222474, 8.881441, 1.243638, -0.247274, 0.036286, -0.088277, -38.895935, -27.635925, -91.647095, 13.727991, 100.772477
1759229815.140293, 4.597316, 8.010699, 0.526575, -0.131012, 0.007118, -0.043360, -38.677277, -27.919678, -91.981308, 13.727991, 100.772477
1759229815.160259, 4.696526, 8.306832, -0.352397, -0.010545, -0.055737, 0.002102, -38.753860, -27.671967, -91.551224, 13.727991, 100.772477
1759229815.180260, 4.548834, 9.432406, -0.086790, -0.085662, -0.088138, 0.000362, -38.935226, -28.079422, -91.850525, 13.727991, 100.772477
1759229815.200260, 4.322881, 9.500791, 0.858920, -0.302810, 0.068427, -0.029519, -38.668442, -28.124557, -91.775833, 13.727991, 100.772477
1759229815.220229, 4.039467, 8.411429, 1.361702, -0.398829, 0.214884, -0.037752, -38.605469, -28.174591, -91.533997, 13.727991, 100.772477
1759229815.239317, 3.997120, 7.933935, 1.103428, -0.257975, 0.260021, 0.020504, -38.926407, -28.183456, -91.817978, 13.727991, 100.772477
1759229815.259728, 4.374356, 8.214805, -0.166397, -0.069905, 0.130749, 0.054530, -39.051544, -28.189835, -91.259232, 13.727991, 100.772477
1759229815.280331, 4.866365, 9.172935, -2.339434, -0.007135, -0.069867, 0.003198, -39.197220, -28.378662, -92.027405, 13.727991, 100.772477
1759229815.300258, 4.311209, 9.251046, -1.953220, -0.138164, -0.474619, -0.067973, -38.728012, -28.384583, -92.634842, 13.727991, 100.772477
1759229815.319742, 3.336769, 8.050054, -0.005537, -0.161343, -0.473014, -0.058252, -38.331055, -28.434647, -92.458466, 13.727991, 100.772477
1759229815.340251, 3.395577, 7.482479, 0.308104, 0.014342, -0.126970, 0.032066, -38.575073, -28.534790, -92.262329, 13.727991, 100.772477
1759229815.359792, 3.429095, 7.863755, -0.935085, 0.248295, -0.134230, 0.038716, -38.424957, -28.444061, -92.424057, 13.727991, 100.772477
1759229815.380254, 4.109946, 10.225785, -1.817199, 0.113302, -0.031609, 0.069428, -38.670792, -28.445557, -91.967026, 13.727991, 100.772477
1759229815.400254, 3.199402, 9.972748, -0.168492, -0.194123, -0.174445, 0.036376, -38.072723, -28.236237, -91.897156, 13.727991, 100.772477
1759229815.420229, 1.637185, 7.268647, 0.515801, -0.115298, -0.089039, -0.148445, -37.870789, -28.264374, -91.809143, 13.727991, 100.772477
1759229815.440255, 1.246332, 5.730821, -1.401207, 0.527853, -0.520419, -0.197568, -37.763245, -27.955658, -91.798615, 13.727991, 100.772477
1759229815.460254, 2.168847, 7.696012, -5.927894, 1.310049, -1.215068, -0.313788, -37.325882, -27.224640, -92.127411, 13.727991, 100.772477
1759229815.480239, 3.994725, 10.583419, -5.509058, 1.285875, -1.068896, -0.287434, -36.546692, -26.537521, -92.447830, 13.728367, 100.772430
1759229815.500255, 4.066552, 7.496844, 1.692551, 0.536221, -0.764474, -0.243635, -35.930908, -26.200134, -92.588760, 13.728367, 100.772430
1759229815.520257, 3.575740, 3.100342, 4.290858, 0.105392, -0.736573, -0.368997, -36.045166, -25.956009, -92.595078, 13.728367, 100.772430
1759229815.540249, 4.432565, 1.507599, 3.648464, 0.101132, -0.424105, -0.274195, -35.472183, -25.885056, -93.039047, 13.728367, 100.772430
1759229815.559700, 7.809287, 6.678177, -12.989891, 1.730528, -0.669710, 0.605481, -35.094879, -25.150955, -93.389877, 13.728367, 100.772430
1759229815.580302, 6.277148, 11.212645, 0.964714, 0.723948, -0.403520, 0.559615, -35.135849, -24.967697, -93.291595, 13.728367, 100.772430
1759229815.599808, 0.775871, 8.004115, 2.800767, -0.300873, -0.453520, 0.039536, -34.386993, -25.632751, -93.087540, 13.728367, 100.772430
1759229815.620266, -1.153856, 5.806089, -2.049137, -0.189756, -1.318921, -0.234444, -34.272369, -25.610870, -93.972961, 13.728367, 100.772430
1759229815.640250, 3.589208, 5.568763, -2.690035, 0.351076, -1.075710, 0.482121, -33.786652, -25.512390, -94.212646, 13.728367, 100.772430
1759229815.660260, 4.758326, 9.942371, -0.998083, 0.563139, -0.062281, 0.597524, -33.324371, -25.627533, -94.207840, 13.728367, 100.772430
1759229815.680312, 2.493561, 10.973973, -2.446126, 0.578187, 0.443506, 0.341320, -33.824341, -25.475006, -94.152008, 13.728367, 100.772430
1759229815.699708, 1.627608, 8.676138, 0.292392, 0.575828, 0.481996, 0.434384, -33.933441, -25.364487, -93.827744, 13.728367, 100.772430
1759229815.720290, 3.479374, 9.810241, 1.764826, 0.830750, 1.211617, 0.660441, -34.388916, -25.083618, -93.211426, 13.728367, 100.772430
1759229815.739930, 8.816947, 16.937929, -3.771915, 1.184283, 2.207749, 0.795610, -35.431931, -24.587921, -91.643509, 13.728367, 100.772430
1759229815.759414, 7.846996, 19.282152, -4.934599, 1.119694, -0.332635, -0.321168, -35.487381, -24.004944, -91.941742, 13.728367, 100.772430
1759229815.780272, 5.781249, 11.303026, -2.158822, -0.009881, -2.282523, -0.756078, -34.406937, -23.725204, -92.304886, 13.728367, 100.772430
1759229815.800273, 9.381230, 12.075156, -6.659023, 0.090722, -1.933953, -0.559898, -33.383987, -23.231491, -93.290955, 13.728367, 100.772430
1759229815.820243, 11.830948, 15.458462, -6.989722, 0.813940, -1.621654, -0.313372, -32.629196, -22.850143, -93.870956, 13.728367, 100.772430
1759229815.840320, 8.867674, 12.710817, -4.151246, 1.036779, -1.807581, -0.451660, -32.006470, -22.214523, -94.945709, 13.728367, 100.772430
1759229815.859819, 7.726837, 9.539846, -2.303372, 0.961424, -1.532592, -0.451455, -31.056213, -21.412964, -95.834991, 13.728367, 100.772430
1759229815.880270, 6.659023, 7.148488, -0.398485, 0.917048, -1.504036, -0.428645, -30.255493, -20.506241, -96.174744, 13.728367, 100.772430
1759229815.900287, 6.086809, 6.060323, -1.740734, 1.191725, -1.621381, -0.343922, -30.195328, -19.665009, -97.093796, 13.728367, 100.772430
1759229815.919387, 5.070171, 7.486369, -4.217237, 1.629330, -1.173855, -0.248154, -29.747818, -19.127319, -97.490433, 13.728367, 100.772430
1759229815.940302, 3.596540, 8.674941, -3.764882, 1.821361, -0.429913, -0.363279, -28.904221, -18.263763, -98.208344, 13.728367, 100.772430
1759229815.960223, 2.285116, 9.096470, -2.351106, 1.698183, -0.232553, -0.548488, -29.370758, -17.188583, -98.019714, 13.728367, 100.772430
1759229815.980260, 1.729960, 8.826973, -2.210596, 1.566663, -0.318856, -0.699533, -29.593185, -16.418106, -98.201706, 13.728367, 100.772430
1759229816.000255, 2.533963, 7.034314, -2.056619, 1.453218, -0.114136, -0.533164, -29.501404, -15.159775, -98.835907, 13.728367, 100.772430
1759229816.020232, 3.191770, 5.550508, -1.783381, 1.274552, -0.057949, -0.343730, -29.614471, -15.086029, -99.107910, 13.728367, 100.772430
1759229816.040236, 3.933973, 4.330812, -1.968932, 0.954769, -0.078713, -0.268195, -29.421417, -14.398972, -99.220459, 13.728367, 100.772430
1759229816.060305, 4.667346, 3.950283, -1.541716, 0.533380, -0.344408, -0.359969, -29.199417, -13.494064, -99.921371, 13.728367, 100.772430
1759229816.080307, 4.292654, 4.343531, -1.653196, 0.087736, -0.440185, -0.460172, -29.432343, -13.460968, -100.107727, 13.728367, 100.772430
1759229816.100249, 2.730587, 4.344728, -2.457498, -0.243126, -0.417852, -0.408133, -29.101273, -13.416016, -100.430923, 13.728367, 100.772430
1759229816.120249, 1.128268, 2.983774, -1.711555, -0.637430, -0.434817, -0.228199, -29.212891, -13.204224, -100.726501, 13.728367, 100.772430
1759229816.140297, 0.213832, 1.740435, -1.138892, -0.961238, -0.139040, 0.028157, -28.947098, -13.790222, -100.566620, 13.728367, 100.772430
1759229816.160371, -0.480037, 0.660650, -0.707337, -1.211779, -0.002792, 0.164180, -29.194046, -14.284561, -100.147659, 13.728367, 100.772430
1759229816.180312, -0.746692, -0.113575, -1.226280, -1.423664, 0.487643, 0.252924, -29.217087, -14.587448, -100.040039, 13.728367, 100.772430
1759229816.200346, -1.083825, 0.442029, -1.801337, -1.619024, 1.122304, 0.482127, -29.436966, -15.503326, -99.197708, 13.728367, 100.772430
1759229816.220330, -1.544410, 2.534412, -2.495057, -1.669626, 1.747354, 0.927137, -29.797150, -16.206451, -98.207733, 13.728367, 100.772430
1759229816.240273, -0.658555, 6.119879, -3.968838, -1.368598, 2.347259, 1.462225, -30.304993, -17.272827, -97.013382, 13.728367, 100.772430
1759229816.260266, 2.703353, 11.633875, -5.617246, -0.645204, 2.729474, 1.785216, -31.300690, -18.805984, -95.634293, 13.728367, 100.772430
1759229816.280249, 7.348703, 18.638411, -7.212233, -0.129863, 3.000923, 1.050051, -32.732513, -20.020996, -94.325607, 13.728367, 100.772430
1759229816.300381, 7.298275, 14.675708, -6.889465, -0.280817, 2.511797, -0.593018, -33.979568, -19.703232, -93.003052, 13.728367, 100.772430
1759229816.320318, 6.180931, 7.637653, -6.536021, -0.985663, 1.870964, -0.978214, -35.463882, -19.852524, -92.003433, 13.728367, 100.772430
1759229816.340269, 5.396381, 4.673781, -6.217293, -1.603485, 1.304091, -0.807742, -36.160202, -20.209015, -91.160248, 13.728367, 100.772430
1759229816.360440, 6.628048, 4.562301, -7.742250, -1.595343, 1.355504, -0.221092, -36.881897, -20.481079, -91.125992, 13.728367, 100.772430
1759229816.380317, 13.755886, 13.011139, -8.146421, -0.509859, -0.297191, 0.299292, -37.036484, -21.379929, -90.319122, 13.728367, 100.772430
1759229816.400366, 6.476166, 13.819182, 5.667674, -0.607384, -0.650735, -0.481369, -37.505829, -21.474045, -90.140503, 13.728367, 100.772430
1759229816.420269, 5.687576, 9.996839, 3.660734, -0.799119, -0.566715, -0.544118, -37.112350, -21.976334, -90.440063, 13.728367, 100.772430
1759229816.440285, 5.443816, 17.983597, -17.436671, 0.330542, -2.056115, -0.784832, -36.913162, -21.737701, -90.399506, 13.728367, 100.772430
1759229816.460350, 4.378995, 25.320628, 2.131588, -1.109677, -3.329763, -0.729783, -35.503265, -21.515808, -91.782745, 13.728367, 100.772430
1759229816.480319, 4.090045, 6.679074, 5.160851, -1.064277, -1.530911, -0.933703, -33.861298, -21.932190, -93.203735, 13.728367, 100.772430
1759229816.500370, 3.558981, 3.870676, 0.954987, -0.057491, 0.607841, -0.542390, -33.752670, -21.490555, -93.386353, 13.728367, 100.772430
1759229816.520356, 6.063615, 6.604854, 3.092710, 0.078024, 1.868484, 0.390787, -34.436295, -21.425888, -92.795044, 13.728367, 100.772430
1759229816.540324, 5.814917, 8.003367, 2.892046, 0.140953, 2.715324, 0.413309, -35.246140, -21.590759, -92.079071, 13.728367, 100.772430
1759229816.560260, 2.331055, 10.368390, -4.549582, 0.160595, 2.883538, 0.241525, -36.884109, -21.427383, -90.858963, 13.728367, 100.772430
1759229816.580251, 2.442834, 16.543185, -3.217208, -0.534390, 1.098540, -0.112704, -37.918503, -22.200897, -90.777512, 13.728367, 100.772430
1759229816.600240, 3.466654, 11.404181, -0.027982, -0.988839, 0.023983, -0.457493, -38.156738, -22.303421, -90.774902, 13.728367, 100.772430
1759229816.620312, 5.460426, 5.042338, -2.320730, -0.499125, 0.251745, -0.307587, -38.224106, -22.485977, -90.423599, 13.728367, 100.772430
1759229816.640440, 6.869862, 0.325163, -2.491466, 0.102423, -0.057615, 0.214352, -38.200302, -22.370255, -90.536743, 13.728367, 100.772430
1759229816.660442, 5.583578, -0.611719, -2.351106, 0.172526, -0.290684, 0.511878, -38.026550, -22.673050, -90.192123, 13.728367, 100.772430
1759229816.679660, 2.660557, 4.521001, -6.017078, 0.234122, -0.422142, 0.531769, -37.748032, -22.753067, -90.701050, 13.728367, 100.772430
1759229816.700316, 1.920150, 11.439047, -3.423110, -0.116045, -1.363171, 0.218112, -36.837433, -22.730545, -91.648788, 13.728367, 100.772430
1759229816.720339, 0.897526, 10.294768, -0.838270, -0.429001, -1.555727, -0.227395, -36.493561, -22.910858, -91.707092, 13.728367, 100.772430
1759229816.740445, -0.327856, 5.815067, -0.842609, -0.363510, -1.384351, -0.276187, -35.976105, -23.206146, -92.267578, 13.728367, 100.772430
1759229816.760366, 1.625663, 3.931129, -5.105186, 0.479371, -1.088492, 0.085385, -35.137466, -22.884567, -93.105469, 13.728367, 100.772430
1759229816.780233, 3.003676, 6.695684, 0.383820, 0.314256, -0.886704, -0.077726, -35.120499, -22.666519, -93.344055, 13.728367, 100.772430
1759229816.800246, 1.940351, 6.966977, 3.250877, -0.096722, -0.689587, -0.169025, -34.819626, -22.688675, -93.058624, 13.728367, 100.772430
1759229816.820175, -0.497246, 6.223278, -1.809867, 0.166366, -0.756598, -0.091451, -34.319748, -22.525360, -93.961426, 13.728367, 100.772430
1759229816.840263, -0.418836, 6.547393, -0.572214, 0.411938, -0.651162, 0.110241, -34.507187, -22.468536, -94.184708, 13.728367, 100.772430
1759229816.860261, 5.212027, 8.576030, -4.795736, 0.960581, 0.126735, 0.388735, -34.665848, -21.993607, -94.048492, 13.728367, 100.772430
1759229816.880253, 10.406098, 12.957120, -2.624045, 0.926825, 0.873893, 0.638840, -35.093658, -22.287003, -93.739273, 13.728367, 100.772430
1759229816.900256, 9.080608, 16.089634, -0.304213, 0.638992, 0.526392, 0.264308, -35.662231, -22.103668, -93.132080, 13.728367, 100.772430
1759229816.919814, 3.672256, 16.774375, -6.586299, 0.922064, -1.612605, -0.024443, -34.418091, -21.613174, -94.061447, 13.728367, 100.772430
1759229816.940134, 3.297265, 18.200571, -6.463447, 0.802567, -2.019885, -0.444569, -33.695572, -20.882004, -95.068100, 13.728367, 100.772430
1759229816.960258, 5.770475, 17.297508, -9.979182, 0.900874, -2.120564, -0.752992, -33.024750, -20.160065, -95.420654, 13.728367, 100.772430
1759229816.980249, 8.974665, 14.909891, -7.013814, 1.084742, -1.925001, -0.580994, -32.138672, -19.633591, -97.025909, 13.728367, 100.772430
1759229816.999607, 8.883685, 12.002881, -3.594146, 1.231330, -1.226135, -0.435084, -32.021698, -18.671295, -97.002258, 13.728367, 100.772430
1759229817.020246, 5.990891, 7.148338, -1.962348, 1.303132, -0.323114, -0.683715, -32.236450, -17.896469, -97.818634, 13.728367, 100.772430
1759229817.040255, 5.977274, 6.155492, -3.438074, 1.374291, -0.172092, -0.407686, -31.808838, -16.964996, -97.838943, 13.728367, 100.772430
1759229817.060257, 4.982783, 7.970148, -2.846107, 1.238153, -0.403414, 0.146755, -31.415146, -16.439545, -98.019455, 13.728367, 100.772430
1759229817.080360, 3.669264, 9.192837, -1.403750, 1.030980, -0.143065, 0.368315, -31.618378, -15.925537, -97.878372, 13.728367, 100.772430
1759229817.099956, 3.419369, 8.389432, -0.968754, 0.966982, 0.049139, 0.129375, -31.558701, -15.820587, -97.619125, 13.728367, 100.772430
1759229817.119585, 4.240730, 5.497536, -0.518644, 0.856039, 0.092105, -0.121380, -31.889664, -15.307846, -98.272583, 13.728367, 100.772430
1759229817.140262, 4.831798, 2.652327, 0.060154, 0.455883, 0.038499, -0.207836, -31.650345, -15.346069, -98.414566, 13.728367, 100.772430
1759229817.160258, 3.826084, 1.812111, -0.304662, -0.038289, 0.361574, -0.177629, -31.947403, -15.248901, -97.682114, 13.728367, 100.772430
1759229817.180275, 1.605761, 2.259977, -0.695964, -0.480420, 0.586952, -0.131431, -32.420868, -15.554184, -98.064178, 13.728367, 100.772430
1759229817.200258, 0.525527, 2.658312, -0.691026, -0.950268, 0.585077, 0.129036, -32.492615, -15.415878, -97.355591, 13.728367, 100.772430
1759229817.220243, 1.054496, 2.863465, -1.048211, -1.395459, 0.610512, 0.573443, -32.549591, -16.749908, -97.070755, 13.728367, 100.772430
1759229817.240250, 1.769764, 2.248305, -2.121113, -1.713484, 1.031421, 0.928774, -32.962601, -17.703049, -95.764450, 13.728367, 100.772430
1759229817.260257, 0.765097, 2.625841, -1.278204, -1.973819, 1.332803, 0.883618, -33.637589, -18.666931, -94.908752, 13.728367, 100.772430
1759229817.280348, -0.506972, 4.587141, -0.808492, -1.780699, 1.349991, 0.383667, -34.361755, -19.596100, -94.629562, 13.728367, 100.772430
1759229817.300307, -0.201263, 7.423671, -2.854337, -0.889611, 1.119369, -0.185111, -35.278656, -20.360611, -93.596451, 13.728367, 100.772430
1759229817.320309, 2.281674, 10.397569, -4.673781, -0.058077, 1.785296, -0.099208, -36.003387, -20.877228, -93.444656, 13.728367, 100.772430
1759229817.340119, 4.572476, 11.175086, -4.587590, -0.072328, 3.071405, 0.378247, -37.087189, -20.887192, -92.013840, 13.728367, 100.772430
1759229817.360258, 4.589834, 9.739463, -6.159233, -0.208429, 3.630471, 0.121422, -39.143646, -21.127243, -90.562515, 13.728367, 100.772430
1759229817.380361, 6.691644, 7.597101, -8.731205, -0.281349, 2.361106, -0.286666, -40.827515, -21.199371, -89.892120, 13.728367, 100.772430
1759229817.400262, 9.415048, 5.597643, -7.130381, -0.539562, 0.585629, -0.026448, -41.731415, -21.129623, -89.178864, 13.728367, 100.772430
1759229817.420189, 10.447099, 4.837036, -6.529138, -0.449377, -0.192630, 0.221409, -42.006149, -21.668274, -89.098862, 13.728367, 100.772430
1759229817.440366, 17.749863, 9.853636, -6.340893, 0.204353, -2.813177, 0.731882, -40.984604, -22.240356, -89.880585, 13.728367, 100.772430
1759229817.460257, 12.153117, 14.701745, 0.419883, -0.961470, -2.996341, 0.562774, -39.274780, -22.280334, -90.553452, 13.728367, 100.772430
1759229817.480393, 1.093252, 11.234043, 7.994239, -1.897744, -3.111656, 0.075223, -37.787033, -23.449234, -91.343704, 13.728367, 100.772430
1759229817.499559, -2.256685, 9.400085, 5.828983, -2.025010, -2.363746, -0.927814, -36.224197, -24.038605, -92.408325, 13.728367, 100.772430
1759229817.520244, -3.015048, 20.081965, -1.803881, -2.728548, -3.431313, -1.341525, -34.729462, -24.949371, -93.443146, 13.728367, 100.772430
1759229817.540258, 2.831443, 33.286735, -7.297078, -1.829778, -2.594309, -0.712763, -33.361206, -25.615631, -94.762344, 13.728367, 100.772430
1759229817.560258, 4.220080, 10.748768, -2.334945, -0.132595, -0.000225, -0.435530, -33.461395, -25.634186, -95.157562, 13.728367, 100.772430
1759229817.580253, 4.663007, 4.954501, 0.295534, 0.539671, 1.259088, -0.322735, -33.722580, -25.597061, -95.089630, 13.728367, 100.772430
1759229817.599855, 6.468385, 4.592079, 3.981408, 0.177126, 1.756481, 0.315876, -34.214798, -24.883270, -94.325470, 13.728367, 100.772430
1759229817.620233, 6.979397, 4.032135, 0.637456, -0.207661, 2.195787, 0.471282, -35.217957, -25.296173, -93.509140, 13.728367, 100.772430
1759229817.639365, 7.535899, 11.028591, -5.282956, -0.435900, 1.520887, 0.349133, -36.327362, -25.962006, -92.456070, 13.728367, 100.772430
1759229817.660257, 4.727501, 15.012542, -2.463334, -0.769206, -0.092114, 0.008583, -36.652832, -25.889755, -92.651321, 13.728367, 100.772430
1759229817.680279, 2.411560, 8.053945, -3.040486, -0.689892, -0.123733, 0.173028, -36.654282, -26.547958, -92.418472, 13.728367, 100.772430
1759229817.700261, 2.296638, 2.865111, -3.328988, -0.314714, -0.171588, 0.321261, -36.578995, -26.617035, -93.171448, 13.728367, 100.772430
1759229817.720252, 2.487276, 1.235558, 0.083498, -0.190543, -0.238570, 0.365916, -36.344177, -26.732025, -92.777130, 13.728367, 100.772430
1759229817.739708, 1.288679, 2.157475, 0.492457, -0.207334, 0.366343, 0.268124, -36.429184, -27.270828, -92.198135, 13.728367, 100.772430
1759229817.759301, 0.294786, 10.437971, -3.006070, -0.463178, -0.967873, 0.251641, -36.712234, -27.362244, -92.677917, 13.728367, 100.772430
1759229817.780358, 0.083797, 16.802058, -2.893542, -0.912320, -2.121547, -0.362735, -35.821411, -27.584198, -93.331924, 13.728367, 100.772430
1759229817.800269, -0.200664, 6.397606, -2.486827, -0.227797, -1.106032, -0.542551, -34.870728, -27.782181, -93.904510, 13.728367, 100.772430
1759229817.820232, 2.022203, 0.115969, 0.538097, 0.598199, 0.088331, -0.331764, -34.696945, -27.914276, -94.056229, 13.728367, 100.772430
1759229817.840261, 5.748029, -3.187281, -5.353884, 1.596974, -0.327735, 0.563736, -34.925095, -27.464203, -94.044312, 13.728367, 100.772430
1759229817.860257, 7.366510, 9.632322, -3.804686, 1.015242, -0.692437, 1.136780, -34.633377, -27.059952, -94.421280, 13.728367, 100.772430
1759229817.880254, 0.961122, 10.938509, 1.722478, -0.172546, -0.538293, 0.198417, -34.531265, -26.896774, -93.899017, 13.728367, 100.772430
1759229817.900154, -2.486528, 7.563133, -1.384148, -0.329729, -1.228922, -0.416778, -34.245560, -27.240189, -94.393143, 13.728367, 100.772430
1759229817.920262, 1.017536, 6.651242, -4.779126, 0.431341, -1.144692, 0.151714, -33.974152, -27.353638, -94.888107, 13.728367, 100.772430
1759229817.940270, 1.893365, 10.310330, -4.056526, 1.299198, -0.111972, 0.119936, -33.257401, -27.307343, -94.992737, 13.728367, 100.772430
1759229817.959558, 0.899472, 12.029816, -5.186140, 1.818557, -0.223854, -0.256596, -33.671967, -26.412415, -94.724045, 13.728367, 100.772430
1759229817.980259, 5.361964, 21.885697, -7.541735, 2.790417, -0.846423, -1.056599, -32.988693, -23.998856, -95.062195, 13.728367, 100.772430
1759229818.000253, 4.904223, 20.747553, -7.495647, 2.283907, -2.275004, -1.319115, -32.589157, -22.535721, -94.965424, 13.728367, 100.772430
1759229818.019248, 4.048296, 16.310200, -5.030966, 1.744680, -2.919720, -1.381774, -31.416061, -21.515961, -96.772751, 13.728367, 100.772430
1759229818.040251, 6.526893, 9.469217, 0.177321, 1.493739, -0.927966, -0.923595, -30.394775, -19.615021, -97.923996, 13.728367, 100.772430
1759229818.060256, 7.373543, 6.622212, -1.775450, 1.894162, 0.195192, -0.946530, -30.775513, -18.443604, -97.661148, 13.728367, 100.772430
1759229818.080235, 6.489484, 7.442376, -2.986318, 2.273181, 0.846899, -0.807223, -31.136642, -17.395248, -98.005936, 13.728367, 100.772430
1759229818.100304, 4.554969, 14.015806, -3.363554, 1.448566, -0.231084, -0.745272, -30.888123, -16.660889, -97.735687, 13.728367, 100.772430
1759229818.120238, 3.362507, 16.665290, -2.640655, 0.084489, 0.015699, -1.139443, -31.419174, -15.646194, -97.822952, 13.728367, 100.772430
1759229818.140308, 4.671536, 10.719888, -2.589329, 0.113876, 0.706522, -1.226722, -31.434235, -15.372192, -97.163589, 13.728367, 100.772430
1759229818.160246, 3.806182, 5.020641, -0.670376, 0.519767, 0.901802, -0.842193, -31.757095, -14.724594, -96.926498, 13.728367, 100.772430
1759229818.180237, 2.839224, 1.846079, 0.446968, 0.241811, 0.903734, -0.278865, -32.472824, -14.656921, -96.445099, 13.728367, 100.772430
1759229818.200243, 2.988861, 0.046088, -0.085443, -0.566089, 1.362725, 0.220614, -33.283112, -15.021942, -95.681168, 13.728367, 100.772430
1759229818.219970, 4.761768, -0.456395, -0.887351, -1.360895, 1.807393, 0.712930, -34.187057, -15.973557, -94.082703, 13.728367, 100.772430
1759229818.239792, 5.369147, -0.260369, -1.731157, -1.848459, 1.838893, 1.183586, -34.744797, -17.585571, -93.470276, 13.728367, 100.772430
1759229818.260248, 2.994697, 0.238373, -1.484555, -2.046268, 2.091547, 1.355268, -35.951157, -18.742599, -92.046066, 13.728367, 100.772430
1759229818.280260, 0.677409, 1.677886, 0.162955, -1.912841, 2.513929, 1.261714, -37.356445, -20.485779, -91.293289, 13.728367, 100.772430
1759229818.300238, 1.438766, 5.377826, -0.380080, -1.109722, 2.555311, 1.074812, -38.903336, -21.169769, -90.423370, 13.728367, 100.772430
1759229818.319372, 4.043358, 11.757326, -5.387702, 0.419184, 1.727079, 0.913273, -39.968460, -21.363754, -89.331223, 13.728367, 100.772430
1759229818.340241, 4.000711, 16.015713, -8.913164, 0.240645, 4.080871, 0.236711, -42.364716, -21.477753, -87.974869, 13.728367, 100.772430
1759229818.360252, 1.639878, 11.914445, -7.604134, -0.590865, 3.102904, -0.446976, -44.352798, -21.670502, -87.231598, 13.728367, 100.772430
1759229818.380241, 2.427571, 7.003788, -3.556736, -1.127794, 0.090276, -0.642094, -44.618011, -21.939941, -87.098892, 13.728367, 100.772430
1759229818.400249, 6.131550, 4.382736, -4.378247, -0.750668, -2.237237, -0.154464, -43.639603, -22.437607, -87.979034, 13.728367, 100.772430
1759229818.419795, 13.919440, 9.187300, -8.182184, 0.216635, -2.569752, 0.201663, -42.274017, -22.459366, -88.035278, 13.728367, 100.772430
1759229818.440255, 12.902652, 14.641890, 0.949301, -0.477720, 0.078061, 0.280527, -41.945343, -22.629929, -88.243164, 13.728367, 100.772430
1759229818.460258, 5.481076, 10.615441, -3.747524, -0.153249, -0.647832, 0.102768, -41.819214, -22.689804, -87.778214, 13.728367, 100.772430
1759229818.480274, 1.807173, 8.847623, 5.794417, 0.011687, -0.693980, -0.024495, -41.498825, -22.872986, -88.627029, 13.728367, 100.772430
1759229818.500268, 0.837522, 10.827178, 6.780080, -1.073077, -0.130807, -0.304569, -41.613510, -23.309113, -88.475708, 13.728367, 100.772430
1759229818.520187, 1.362151, 38.527493, -11.767052, -3.675704, -2.929223, -0.445968, -40.563889, -25.724136, -89.081985, 13.728367, 100.772430
1759229818.540245, 1.338209, 16.519094, -5.314080, -1.428036, -3.090696, -1.368372, -38.713150, -26.008087, -90.748932, 13.728367, 100.772430
1759229818.560245, 5.021539, 6.340893, -1.724124, 0.276535, -0.195961, -0.797843, -38.482880, -25.993698, -90.597244, 13.728367, 100.772430
1759229818.580323, 7.264606, 4.365677, 1.926734, 0.745214, 1.957427, 0.142767, -39.361099, -25.748001, -90.248489, 13.728367, 100.772430
1759229818.600253, 5.655553, 4.929512, 3.753210, 0.323080, 2.657154, 0.597187, -40.898956, -25.147583, -89.160416, 13.728367, 100.772430
1759229818.620245, 6.299893, 5.239860, 0.013617, 0.171926, 2.705630, 0.623933, -42.594467, -25.442551, -88.373413, 13.728367, 100.772430
1759229818.639370, 7.953837, 14.222456, -7.230040, -0.208890, 1.204200, 0.255124, -43.462524, -25.726501, -88.157715, 13.728367, 100.772430
1759229818.659992, 1.043872, 11.000758, 0.399532, -1.343116, -1.154374, -0.375876, -42.972015, -26.122543, -88.179916, 13.728367, 100.772430
1759229818.680344, 0.857124, 4.861875, 0.101454, -1.257969, -1.254147, -0.236798, -42.050751, -26.904053, -88.619400, 13.727726, 100.772368
1759229818.700255, 2.467225, 0.275333, -1.640028, -0.478214, -0.567118, 0.150450, -41.914368, -27.218231, -89.472000, 13.727726, 100.772368
1759229818.720048, 0.785897, -3.874417, -5.630414, 0.538712, -0.050382, 0.288750, -41.801865, -27.212448, -89.073868, 13.727726, 100.772368
1759229818.740271, 2.713828, 8.358906, -6.595876, 0.448220, -0.897540, 0.576674, -41.005264, -27.139847, -89.327408, 13.727726, 100.772368
1759229818.760261, 3.932027, 15.856349, 0.184054, -0.624385, -1.990209, 0.119348, -40.094116, -27.324936, -90.091568, 13.727726, 100.772368
1759229818.780340, -0.658555, 8.983194, -3.267786, -0.438215, -2.031454, -0.762696, -38.984924, -27.855728, -90.482910, 13.727726, 100.772368
1759229818.800286, 2.211045, 2.043451, -4.612130, 0.447280, -1.424550, -0.289001, -38.758820, -27.253326, -90.995117, 13.727726, 100.772368
1759229818.820245, 5.225495, 1.069310, -1.526154, 1.032791, -1.148079, 0.750111, -37.987808, -27.155243, -90.682632, 13.727726, 100.772368
1759229818.840157, 4.034679, 5.859360, -2.417395, 1.238736, -0.822457, 0.653542, -37.496902, -27.086487, -91.059753, 13.727726, 100.772368
1759229818.860258, 2.832191, 6.250063, -1.422904, 1.020904, -0.455574, 0.580278, -37.526215, -26.963165, -90.771591, 13.727726, 100.772368
1759229818.880397, 0.577003, 5.552004, 2.610278, 0.794014, 0.201773, 0.303642, -37.426865, -26.733871, -90.493668, 13.727726, 100.772368
1759229818.900253, 0.676063, 8.548198, -5.042039, 1.617451, 0.789604, 0.257347, -38.175507, -25.994064, -90.298248, 13.727726, 100.772368
1759229818.920245, 4.467880, 21.217864, -5.405359, 1.880550, -0.374058, 0.260133, -38.176285, -25.619400, -90.099228, 13.727726, 100.772368
1759229818.940252, 1.298854, 29.738080, -8.447342, 1.739231, -2.654612, -1.309841, -37.083511, -24.793411, -90.913818, 13.727726, 100.772368
1759229818.960258, 2.275689, 19.109021, -11.306019, 0.976989, -3.405861, -1.642927, -35.337692, -23.152100, -91.751099, 13.727726, 100.772368
1759229818.980368, 10.064775, 12.375179, -7.635408, 1.382728, -1.645290, -0.759894, -34.242157, -22.284073, -92.919250, 13.727726, 100.772368
1759229819.000257, 11.999888, 10.272322, -3.698443, 2.442421, -0.205885, -0.480371, -33.500214, -20.634674, -93.693481, 13.727726, 100.772368
1759229819.020251, 7.822755, 10.359561, -3.957765, 2.497889, -0.049222, -0.839229, -33.710175, -19.418686, -93.387711, 13.727726, 100.772368
1759229819.040243, 5.863101, 8.569147, -4.107403, 1.248546, -0.472268, -0.907196, -33.519760, -18.070831, -93.820877, 13.727726, 100.772368
1759229819.060258, 4.844218, 6.970120, -2.240823, 0.145203, -0.588004, -0.807620, -33.035767, -17.396790, -93.990753, 13.727726, 100.772368
1759229819.080262, 4.846163, 7.545626, -1.748066, -0.018610, -0.663806, -0.636910, -33.038818, -17.005783, -94.327484, 13.727726, 100.772368
1759229819.100262, 3.551050, 7.758111, -1.574487, 0.003139, -0.484201, -0.528947, -32.534653, -17.098511, -95.074890, 13.727726, 100.772368
1759229819.120245, 2.460790, 6.184522, -1.561768, -0.304744, -0.202688, -0.304151, -32.365265, -16.693649, -94.352203, 13.727726, 100.772368
1759229819.140255, 1.513135, 3.905242, -1.707066, -0.632622, 0.406738, -0.054927, -32.431839, -16.842056, -94.238831, 13.727726, 100.772368
1759229819.159691, 1.424400, 2.220173, -1.041178, -0.876961, 1.071749, 0.202442, -32.687988, -17.404297, -93.812042, 13.727726, 100.772368
1759229819.180363, 1.105373, 1.396119, 0.009876, -1.042538, 1.647356, 0.308403, -33.547577, -17.812119, -93.102402, 13.727726, 100.772368
1759229819.199691, -0.564732, 0.126294, 0.438887, -1.168421, 2.143155, 0.228007, -34.184814, -18.798996, -91.934921, 13.727726, 100.772368
1759229819.220249, -0.516100, -0.145897, 0.594510, -1.303455, 2.307439, 0.300656, -35.635101, -19.608551, -91.006531, 13.727726, 100.772368
1759229819.239593, 0.161160, -0.098462, 0.262015, -1.421253, 2.244495, 0.691532, -37.386749, -20.402710, -89.635483, 13.727726, 100.772368
1759229819.260321, 1.556830, 1.657685, 0.419135, -1.547141, 2.356538, 1.322554, -38.271729, -21.694931, -88.820496, 13.727726, 100.772368
1759229819.280283, 4.329166, 6.464943, -0.878672, -1.476217, 3.485075, 1.897123, -40.186646, -23.408112, -87.660370, 13.727726, 100.772368
1759229819.300253, 4.976199, 13.026253, -10.596138, 0.206948, 4.254059, 1.237766, -42.773422, -24.315811, -86.494186, 13.727726, 100.772368
1759229819.320245, 4.622306, 15.873258, -11.137078, 1.185373, 3.243297, -0.239532, -45.492996, -24.508316, -85.163925, 13.727726, 100.772368
1759229819.339972, 7.061399, 12.481123, -6.423045, 0.203146, 1.999884, -0.270287, -47.376495, -24.254440, -84.459106, 13.727726, 100.772368
1759229819.360261, 7.657555, 7.657704, -5.148581, -0.784925, 0.842428, -0.503640, -48.688965, -24.251755, -84.096512, 13.727726, 100.772368
1759229819.380249, 12.090269, 4.553472, -5.519084, -1.023462, -2.445623, -0.117132, -47.966980, -25.565277, -84.830383, 13.727726, 100.772368
1759229819.399751, 16.632369, 7.691822, -8.412626, -0.231947, -4.544530, 0.986359, -46.210571, -25.651932, -84.981125, 13.727726, 100.772368
1759229819.420245, 14.845846, 9.486874, -3.942053, -0.703002, -0.789780, 0.197452, -44.106323, -26.270859, -85.489899, 13.727726, 100.772368
1759229819.440247, 0.619200, 10.080936, 5.789180, -0.819225, -1.977232, -0.559750, -42.926880, -26.727097, -85.607346, 13.727726, 100.772368
1759229819.460259, -1.061828, 7.380426, 5.115960, 0.054782, -1.409752, -0.944591, -42.173553, -26.673950, -85.743713, 13.727726, 100.772368
1759229819.480258, -2.928707, 9.478195, 9.294291, -0.695078, -1.170043, -1.373998, -41.223709, -27.078613, -86.614700, 13.727726, 100.772368
1759229819.500278, -3.741389, 43.694031, -17.690756, -2.606457, -5.021235, -0.903655, -38.418472, -28.013382, -87.947342, 13.727726, 100.772368
1759229819.520260, 0.826299, 14.176517, -2.145055, -1.330320, -2.135504, -1.097604, -36.511063, -28.547607, -88.680023, 13.727726, 100.772368
1759229819.540255, 2.338536, 3.200000, -2.121712, 0.266233, -0.037774, -0.936340, -35.644760, -28.670151, -89.132339, 13.727726, 100.772368
1759229819.559511, 4.567837, 0.970400, -2.467973, 0.681057, 0.779411, -0.512847, -36.671616, -28.203461, -88.280167, 13.727726, 100.772368
1759229819.580288, 6.939444, 1.782184, 1.975366, 0.541600, 2.259626, 0.516906, -37.824860, -28.297455, -87.621323, 13.727726, 100.772368
1759229819.600256, 6.651840, 5.143044, -6.535422, 0.775703, 2.718843, 1.250027, -39.865143, -28.482773, -85.994888, 13.727726, 100.772368
1759229819.620242, 6.994211, 12.595895, -2.993949, -0.055737, 0.626142, 1.175933, -40.039505, -28.318176, -85.959625, 13.727726, 100.772368
1759229819.640250, 1.635539, 14.396783, 1.103577, -1.184797, -1.462349, -0.425418, -38.587860, -29.617737, -87.461197, 13.727726, 100.772368
1759229819.660258, -0.440982, 9.921272, -1.324293, -1.423602, -2.035489, -0.871329, -37.672195, -30.036469, -87.819427, 13.727726, 100.772368
1759229819.680277, -0.119560, 3.913472, -2.331354, -0.831157, -1.297874, -0.588534, -37.017578, -30.610931, -88.071274, 13.727726, 100.772368
1759229819.700254, 0.592864, 2.541744, -7.960721, 0.170404, -0.535778, 0.401685, -36.470276, -30.601242, -88.134949, 13.727726, 100.772368
1759229819.720245, 1.139640, 8.122329, -1.701529, -0.083097, -0.102842, 0.671848, -36.318481, -31.020035, -87.990387, 13.727726, 100.772368
1759229819.740360, 1.274763, 9.040356, -0.155174, -0.311246, -0.270883, 0.103743, -36.022644, -31.334015, -88.216309, 13.727726, 100.772368
1759229819.759459, 1.960253, 4.856638, -2.184260, 0.091690, -0.652630, 0.185594, -35.842300, -31.044632, -87.855423, 13.727726, 100.772368
1759229819.780374, 3.089418, 0.669030, -1.363199, 0.361524, -0.224518, 0.593236, -35.654388, -31.593994, -87.991058, 13.727726, 100.772368
1759229819.800254, 3.036596, 1.257554, -4.245219, 0.728999, 0.547164, 0.641783, -36.051834, -31.692703, -87.038498, 13.727726, 100.772368
1759229819.820235, 2.254141, 9.563639, -5.069423, 0.541929, 0.128561, 0.577113, -36.200241, -31.794495, -86.505508, 13.727726, 100.772368
1759229819.840255, 3.021931, 17.295563, -1.359458, 0.574874, -0.433320, 0.210502, -35.745163, -31.312683, -86.408020, 13.727726, 100.772368
1759229819.860259, 0.550217, 22.747759, -8.100632, 1.722162, -0.903087, -0.837288, -35.078094, -30.022049, -86.165878, 13.727726, 100.772368
1759229819.880255, 2.772037, 20.986973, -10.682928, 1.893668, -1.331371, -1.025919, -33.832947, -28.659180, -86.571701, 13.727726, 100.772368
1759229819.900254, 6.728156, 14.628722, -7.068880, 1.237701, -1.600066, -0.893926, -32.147202, -27.349457, -86.939087, 13.727726, 100.772368
1759229819.919826, 9.471162, 9.613468, -3.125930, 1.506557, -1.887095, -0.614926, -31.161148, -25.853851, -87.295090, 13.727726, 100.772368
1759229819.940030, 10.570849, 8.388385, -5.325004, 2.086744, -0.828357, -0.411794, -30.118561, -24.610992, -88.258820, 13.727726, 100.772368
1759229819.960329, 8.706065, 10.805930, -4.077475, 1.589659, -0.657596, -0.313247, -29.730087, -22.781906, -88.102737, 13.727726, 100.772368
1759229819.980290, 5.300762, 11.493066, -1.072153, 0.289806, -1.683078, -0.712827, -28.257050, -22.667191, -89.339218, 13.727726, 100.772368
1759229820.000260, 4.865167, 11.595119, -4.569783, -0.017699, -1.844719, -0.938443, -27.431992, -21.868530, -89.933914, 13.727726, 100.772368
1759229820.020248, 5.424662, 9.574562, -3.286790, 0.069389, -1.284039, -0.746701, -26.361908, -21.247681, -90.721924, 13.727726, 100.772368
1759229820.040259, 3.929334, 6.398803, -0.661697, -0.014060, -1.048446, -0.434401, -25.909622, -21.023087, -91.355789, 13.727726, 100.772368
1759229820.059518, 1.276259, 3.002479, -0.354641, -0.260828, -0.719535, -0.189427, -25.346191, -20.781586, -91.351273, 13.727726, 100.772368
1759229820.080274, -0.300772, 0.563386, -1.000477, -0.693803, 0.030466, 0.226112, -25.246597, -21.618607, -91.762115, 13.727726, 100.772368
1759229820.100255, -0.224307, -0.896479, -0.842909, -0.950435, 0.950746, 0.843610, -25.979462, -22.100006, -91.389771, 13.727726, 100.772368
1759229820.120254, -0.959776, -1.370232, 0.154426, -1.064792, 1.518941, 1.152174, -26.393845, -23.272537, -90.749908, 13.727726, 100.772368
1759229820.140274, -1.088015, -0.568324, 0.508169, -1.143099, 2.137731, 1.315036, -27.294113, -25.321518, -88.909882, 13.727726, 100.772368
1759229820.159959, -1.092953, 0.002095, 0.611419, -1.041512, 2.625067, 1.533043, -28.787796, -26.552002, -86.975281, 13.727726, 100.772368
1759229820.180270, -0.609175, 2.398092, 0.297330, -0.608841, 3.445600, 1.738251, -31.249146, -28.387527, -84.813416, 13.727726, 100.772368
1759229820.200279, 1.901595, 10.130615, -1.479168, -0.265315, 5.444981, 1.571670, -34.371078, -29.037582, -82.313202, 13.727726, 100.772368
1759229820.220248, 2.791938, 17.974768, -8.964190, -0.469901, 5.623516, 0.288250, -38.830231, -29.783295, -80.041626, 13.727726, 100.772368
1759229820.240326, 1.572242, 15.875951, -9.656563, -1.007105, 2.537320, -0.965203, -41.441574, -30.195770, -78.502075, 13.727726, 100.772368
1759229820.259945, -0.462081, 9.529372, -6.441899, -0.997803, -0.067273, -1.340328, -41.225723, -31.174179, -78.160263, 13.727726, 100.772368
1759229820.280250, 3.010709, 6.438756, -4.991013, -0.271440, -0.782349, -1.098543, -40.605774, -30.924942, -78.254425, 13.727726, 100.772368
1759229820.300314, 16.207249, 8.916905, -4.530578, 0.606825, -0.989550, 0.871750, -39.934113, -31.159576, -78.141403, 13.727726, 100.772368
1759229820.320311, 25.231893, 11.834090, -8.111854, 0.744143, 2.060941, 1.875381, -40.975464, -30.987488, -77.648575, 13.727726, 100.772368
1759229820.340347, 6.452523, 3.943849, 2.479645, -0.052944, -0.626051, -0.195568, -41.037308, -30.950394, -77.227188, 13.727726, 100.772368
1759229820.360441, 4.081964, 7.149236, 1.929876, -0.100901, -3.536643, -1.248429, -39.073929, -30.926285, -77.237946, 13.727726, 100.772368
1759229820.379473, 2.283021, 36.394110, -2.353650, -1.197257, -4.840312, -1.136124, -34.800934, -30.977066, -79.397415, 13.727726, 100.772368
1759229820.400260, -0.742203, 14.942213, 3.796755, -1.122482, -1.495769, -1.283277, -32.353226, -31.154327, -81.002808, 13.727726, 100.772368
1759229820.420430, -2.611775, 5.005827, -0.463727, -0.090786, 0.016031, -1.525665, -31.654663, -30.839264, -81.250198, 13.727726, 100.772368
1759229820.440263, 4.263026, 3.805284, 2.458995, 0.319541, 0.617895, -0.415701, -31.732300, -30.314590, -80.503387, 13.727726, 100.772368
1759229820.460327, 6.318149, 5.077653, 2.159720, 0.314110, 1.348157, 0.476629, -32.428650, -30.155029, -80.150406, 13.727726, 100.772368
1759229820.479926, 7.640496, 8.728062, -5.697302, 0.106019, 1.363242, 0.768362, -33.467758, -30.036896, -78.779648, 13.727726, 100.772368
1759229820.500250, 5.097405, 15.260043, -0.636558, -1.324744, -0.485136, 0.076147, -33.491562, -30.627457, -78.761078, 13.727726, 100.772368
1759229820.520261, 2.531270, 12.835165, -1.812560, -1.652782, -1.566031, -0.485307, -32.700073, -32.074814, -79.570129, 13.727726, 100.772368
1759229820.540322, 2.955792, 6.939444, -5.043535, -0.542708, -0.466799, -0.150256, -31.701721, -32.732834, -80.415436, 13.727726, 100.772368
1759229820.560446, 3.784036, 3.115605, -4.366575, 0.399624, 0.480617, 0.470549, -31.582825, -32.736008, -80.056305, 13.727726, 100.772368
1759229820.580228, 2.808548, 6.581810, -6.174197, 0.376842, -0.296758, 0.680769, -31.505585, -32.721207, -79.893967, 13.727726, 100.772368
1759229820.600284, 2.571971, 10.597634, -0.482581, -0.691971, -0.684538, 0.210785, -31.439056, -32.633347, -79.931061, 13.727726, 100.772368
1759229820.620330, 0.714968, 7.457340, -2.510320, -0.601527, -1.150943, -0.000051, -30.304565, -33.557480, -80.590027, 13.727726, 100.772368
1759229820.640360, 1.793257, 3.832219, -3.736750, -0.137235, -1.182063, 0.454865, -29.342026, -34.229065, -81.029480, 13.727726, 100.772368
1759229820.660261, 1.972523, 2.321777, -1.060931, -0.152444, -0.220056, 0.679761, -28.806213, -34.204941, -81.455063, 13.727726, 100.772368
1759229820.680245, 1.326986, 6.288371, -3.069666, 0.166722, -0.885849, 0.633459, -28.148102, -34.753586, -81.873978, 13.727726, 100.772368
1759229820.700266, 0.613365, 10.188675, -3.752761, 0.105448, -0.535404, 0.563865, -27.825607, -34.795380, -81.923920, 13.727726, 100.772368
1759229820.720323, -0.661398, 9.810391, -1.451934, 0.104631, -0.181663, 0.309330, -27.460938, -34.740677, -82.000931, 13.727726, 100.772368
1759229820.740296, -0.520589, 7.526323, -1.357213, 0.785222, -0.172703, 0.168262, -26.756668, -34.934387, -81.725998, 13.727726, 100.772368
1759229820.760257, 2.002002, 9.329456, -3.242797, 1.321492, 0.485663, -0.019899, -27.165375, -34.307678, -81.453354, 13.727726, 100.772368
1759229820.780252, 4.629339, 14.666281, -6.902783, 1.884518, -0.522091, -0.298936, -26.716049, -32.262589, -80.027359, 13.727726, 100.772368
1759229820.800310, 5.308693, 20.665402, -9.398888, 1.991992, -1.746173, -0.717436, -25.400909, -30.141388, -80.935089, 13.727726, 100.772368
1759229820.820291, 6.599767, 19.668067, -8.292168, 1.792922, -0.956299, -0.980697, -23.844604, -27.887970, -80.955063, 13.727726, 100.772368
1759229820.839874, 10.264990, 15.989676, -3.609259, 1.391051, -1.915646, -0.638875, -22.183563, -26.589676, -82.052017, 13.727726, 100.772368
1759229820.860261, 6.183026, 11.242722, -0.944812, 0.715554, -1.842537, -1.052227, -20.894318, -25.054901, -83.545349, 13.727726, 100.772368
1759229820.879431, 4.525789, 7.725341, -3.230826, 0.567628, -1.106580, -1.185393, -19.830704, -23.996429, -84.475113, 13.727726, 100.772368
1759229820.900264, 3.232771, 6.690148, -3.479523, 0.393335, -0.822618, -0.807186, -18.871872, -22.676270, -85.190094, 13.727726, 100.772368
1759229820.920254, 2.159720, 8.893711, -2.776675, 0.379800, -0.678208, -0.300263, -18.224380, -21.616684, -85.279312, 13.727726, 100.772368
1759229820.940259, 1.541267, 10.192565, -2.549825, 0.371922, -0.329907, -0.145770, -18.080841, -21.801392, -86.089951, 13.727726, 100.772368
1759229820.960298, 2.503736, 8.277354, -1.881843, 0.139185, -0.077475, -0.151144, -17.454285, -21.033478, -86.635849, 13.727726, 100.772368
1759229820.979852, 3.054852, 5.627721, -1.310526, -0.083891, 0.040346, -0.137570, -17.425919, -21.207245, -86.488510, 13.727726, 100.772368
1759229820.999706, 3.071162, 4.501099, -1.111508, -0.195530, 0.155194, -0.132159, -17.709610, -21.096619, -86.110611, 13.727726, 100.772368
1759229821.020265, 2.533963, 2.183961, -0.546327, -0.523024, 0.783219, 0.122709, -18.220352, -20.936737, -85.244949, 13.727726, 100.772368
1759229821.040248, 1.509694, 1.229123, -0.664990, -0.568793, 1.090335, 0.541696, -18.365784, -21.844635, -84.722153, 13.727726, 100.772368
1759229821.060252, 1.959205, 1.483507, -0.698209, -0.475681, 0.919531, 0.985491, -18.739380, -22.409607, -83.569244, 13.727726, 100.772368
1759229821.080265, 2.677316, 1.424550, -0.459387, -0.473272, 1.037788, 1.187681, -19.112503, -23.814011, -83.033600, 13.727726, 100.772368
1759229821.100312, 4.157830, 1.662923, 0.246603, -0.541061, 1.571359, 1.380552, -20.367889, -25.275681, -81.828659, 13.727726, 100.772368
1759229821.119759, 4.586542, 3.333477, 1.229273, -0.642420, 2.113091, 1.354222, -21.975159, -26.596893, -79.515945, 13.727726, 100.772368
1759229821.140251, 4.097676, 6.205771, 0.341623, -0.694287, 3.129287, 1.169886, -24.288773, -27.946259, -77.731552, 13.727726, 100.772368
1759229821.160260, 2.948908, 9.324967, -5.254824, -0.100500, 2.958342, 0.727761, -26.739258, -28.289642, -75.618179, 13.727726, 100.772368
1759229821.180254, 2.817227, 11.896788, -10.094403, 0.496744, 1.886376, 0.259751, -28.385132, -28.464340, -73.862473, 13.727726, 100.772368
1759229821.199409, 2.414253, 12.058995, -8.372822, -0.208564, 1.984808, 0.034480, -30.446320, -28.374283, -72.337677, 13.727726, 100.772368
1759229821.220233, 1.945438, 9.451261, -5.326201, -1.269753, 1.599538, -0.170741, -30.979218, -29.771866, -71.980179, 13.727726, 100.772368
1759229821.239303, 3.505560, 7.323564, -3.432687, -1.628909, 0.078611, -0.277429, -30.410294, -31.176483, -71.966400, 13.727726, 100.772368
1759229821.260259, 7.636605, 7.842058, -7.822455, -0.860819, -1.117613, 0.097647, -29.584167, -31.376236, -72.248093, 13.727726, 100.772368
1759229821.280394, 12.903101, 16.186898, -8.948329, -0.530444, -0.899114, -0.216557, -28.113770, -32.108124, -73.097534, 13.727726, 100.772368
1759229821.299750, 10.513388, 22.246922, -5.801749, -0.959567, -3.017478, -0.328970, -25.462860, -32.221268, -74.586227, 13.727726, 100.772368
1759229821.320247, 2.532467, 8.797943, 5.855918, -0.789883, -2.201945, -0.065027, -23.301514, -32.777191, -75.910828, 13.727726, 100.772368
1759229821.340267, 1.910723, 7.228244, 3.319411, -0.045605, -1.074159, -0.325523, -22.439697, -32.905472, -76.277908, 13.727726, 100.772368
1759229821.360242, 4.096629, 8.147618, 2.735076, 0.235986, -0.474551, -0.152682, -21.759964, -32.476135, -76.751099, 13.727726, 100.772368
1759229821.380272, 11.858630, 25.643396, -4.351761, -1.975165, 2.491045, 0.893446, -23.310684, -34.230118, -75.860367, 13.727726, 100.772368
1759229821.400150, 2.054524, 15.060875, -5.200056, -1.063309, -0.726079, -0.588922, -22.970276, -34.816940, -76.219559, 13.727726, 100.772368
1759229821.420233, 6.178986, 7.313837, 3.133112, -0.528906, -0.952841, -0.558368, -22.145508, -35.202774, -76.707977, 13.727726, 100.772368
1759229821.439408, 6.185270, 5.530307, 1.738639, -0.325345, 0.535864, 0.122289, -22.512466, -35.354141, -76.641327, 13.727726, 100.772368
1759229821.460260, 5.853374, 4.068946, -0.469563, -0.255527, 1.953767, 0.776964, -24.066727, -35.445801, -75.504547, 13.727726, 100.772368
1759229821.480370, 4.743961, 6.725612, -1.260398, -0.293606, 2.037135, 0.939738, -26.107590, -36.626816, -74.436630, 13.727726, 100.772368
1759229821.500324, 1.882591, 10.535535, -2.545336, -0.230830, 0.793948, 0.350498, -26.838699, -36.586075, -73.495483, 13.727726, 100.772368
1759229821.520273, 2.873192, 11.051485, -3.285892, -0.247269, 0.009668, 0.123157, -27.024353, -37.014938, -73.806656, 13.727726, 100.772368
1759229821.540336, 3.524115, 8.995764, -2.068441, -0.372551, 0.140410, 0.088116, -27.356384, -37.608917, -73.619431, 13.727726, 100.772368
1759229821.560363, 3.766528, 8.090307, -0.871938, -0.436154, 0.044886, 0.169819, -27.291107, -37.581589, -73.601944, 13.727726, 100.772368
1759229821.580391, 3.780444, 8.729110, -0.514753, -0.428327, 0.055676, 0.228036, -27.104248, -38.710510, -73.799454, 13.727726, 100.772368
1759229821.600257, 4.227262, 9.103802, -1.321749, -0.334781, -0.224004, 0.280623, -27.345123, -38.707520, -73.912170, 13.727726, 100.772368
1759229821.620325, 4.292654, 8.357260, -1.389535, -0.292902, -0.422475, 0.239367, -26.523483, -38.886749, -74.394882, 13.727726, 100.772368
1759229821.640279, 3.875165, 8.323143, -0.560542, -0.375055, -0.188776, 0.211002, -26.284409, -39.496017, -74.310989, 13.727726, 100.772368
1759229821.660363, 3.677344, 9.338584, -0.246303, -0.364505, 0.124397, 0.189781, -26.693924, -40.039978, -74.437958, 13.727726, 100.772368
1759229821.680469, 3.533842, 9.849297, -0.650026, -0.220829, 0.285577, 0.177128, -26.637634, -40.427765, -74.172241, 13.727726, 100.772368
1759229821.699423, 3.218705, 9.796325, -0.265307, -0.094065, 0.380617, 0.139393, -27.243378, -40.079163, -74.372025, 13.727726, 100.772368
1759229821.720325, 3.999664, 9.534459, 0.314389, -0.004138, 0.443854, 0.128556, -27.523743, -40.692184, -73.816681, 13.727726, 100.772368
1759229821.740327, 4.611981, 8.760384, 0.746392, -0.071801, 0.654761, 0.122486, -27.822311, -40.507706, -74.529526, 13.727726, 100.772368
1759229821.760327, 4.941782, 8.314763, 1.489493, -0.183006, 0.641509, 0.177899, -28.379395, -40.626404, -73.849548, 13.727726, 100.772368
1759229821.780259, 4.667346, 7.655609, 1.067814, -0.179220, 0.361437, 0.237544, -28.801392, -41.110626, -73.204315, 13.727726, 100.772368
1759229821.799808, 5.068675, 7.704092, -1.154753, -0.090606, 0.068670, 0.248654, -28.979828, -40.939484, -73.123657, 13.727726, 100.772368
1759229821.820323, 5.788282, 9.005041, -1.469890, -0.077829, 0.050144, 0.211891, -29.151917, -41.126282, -73.304504, 13.727726, 100.772368
1759229821.840453, 4.600309, 9.448866, 0.234033, -0.134345, 0.242598, 0.146995, -29.069763, -41.193909, -73.024811, 13.727726, 100.772368
1759229821.860373, 4.080318, 8.640075, 1.283142, -0.111842, 0.503550, 0.123758, -29.656647, -41.349258, -72.677399, 13.727726, 100.772368
1759229821.880450, 4.650138, 7.871985, 0.811036, -0.030308, 0.479559, 0.140351, -30.073441, -41.645142, -72.934525, 13.727726, 100.772368
1759229821.900205, 5.118354, 7.706636, -0.134075, -0.025600, 0.108076, 0.184922, -30.148727, -41.531372, -72.427826, 13.727726, 100.772368
1759229821.920307, 5.510105, 8.947281, -1.445350, -0.103437, -0.176269, 0.173918, -30.422440, -41.514938, -72.366943, 13.727726, 100.772368
1759229821.940306, 4.445135, 9.408165, -0.725443, -0.200064, -0.179579, 0.124915, -30.299072, -41.866547, -72.371582, 13.727726, 100.772368
1759229821.960368, 3.437475, 8.981399, -0.609923, -0.109918, 0.066984, 0.063992, -30.104523, -41.628571, -72.139221, 13.727726, 100.772368
1759229821.980454, 4.066252, 8.770410, -2.165855, 0.112916, -0.120659, -0.019472, -30.130142, -42.047318, -72.112366, 13.727726, 100.772368
1759229822.000308, 4.912603, 8.831611, -2.867206, 0.278964, -0.470179, -0.144274, -29.587189, -41.542618, -72.633514, 13.727726, 100.772368
1759229822.020243, 4.683507, 8.624064, -3.466954, 0.454948, -0.846628, -0.252547, -29.171844, -41.227493, -72.237793, 13.727726, 100.772368
1759229822.040321, 3.498976, 8.574833, -4.008941, 0.774035, -1.701295, -0.432121, -27.523605, -40.418655, -73.001221, 13.727726, 100.772368
1759229822.060378, 3.013552, 8.788216, -2.669086, 0.954381, -2.354030, -0.750032, -25.705048, -39.343506, -73.669632, 13.727726, 100.772368
1759229822.080370, 4.687548, 9.824008, -1.858798, 0.770201, -2.385785, -0.904711, -22.630127, -37.853256, -74.942856, 13.727726, 100.772368
1759229822.100270, 7.611466, 11.336395, -5.501127, 1.031265, -1.652799, -0.749718, -20.878067, -36.391785, -75.686722, 13.727726, 100.772368
1759229822.119664, 8.175899, 10.186131, -5.808483, 1.438041, -1.193252, -0.613141, -19.322479, -34.917603, -77.078552, 13.727726, 100.772368
1759229822.140350, 7.644237, 8.132953, -3.198653, 1.560301, -0.804993, -0.478788, -17.842041, -32.053360, -77.513275, 13.727726, 100.772368
1759229822.160286, 8.162133, 7.515249, -0.283264, 1.350559, -1.028093, -0.091289, -17.017258, -30.624649, -77.846283, 13.727726, 100.772368
1759229822.180445, 6.476764, 7.609970, 0.287304, 1.084634, -1.063022, 0.243700, -16.116333, -30.076538, -78.723892, 13.727726, 100.772368
1759229822.200314, 4.734683, 7.603536, -2.672827, 1.033901, -0.673287, 0.375733, -15.599426, -29.555252, -78.842453, 13.727726, 100.772368
1759229822.220329, 4.292953, 7.159710, -4.732588, 1.097404, -0.724948, 0.366678, -14.853439, -28.935760, -79.245193, 13.727726, 100.772368
1759229822.240323, 4.467431, 6.439056, -3.411737, 1.002830, -0.632073, 0.393091, -14.628769, -28.466095, -80.010696, 13.727726, 100.772368
1759229822.260287, 3.964648, 6.382193, -1.881693, 0.729157, -0.359337, 0.498775, -14.151077, -27.981339, -80.563461, 13.727726, 100.772368
1759229822.280357, 2.514361, 7.001394, -1.688361, 0.438414, -0.523777, 0.516460, -13.701904, -28.206223, -81.376404, 13.727726, 100.772368
1759229822.300301, 1.624765, 7.634211, -2.176928, 0.186093, -0.804576, 0.381324, -12.866837, -28.236862, -81.629745, 13.727726, 100.772368
1759229822.320297, 1.750910, 7.175273, -2.845060, -0.119782, -0.606595, 0.250061, -12.678452, -28.493378, -82.490250, 13.727726, 100.772368
1759229822.340455, 2.041356, 5.883302, -3.624821, -0.259898, -0.535727, 0.244947, -12.109848, -28.793625, -82.342880, 13.727726, 100.772368
1759229822.360291, 3.209278, 5.233575, -4.125060, -0.349631, -0.443809, 0.363477, -11.504791, -29.076019, -83.072708, 13.727726, 100.772368
1759229822.380459, 4.683208, 5.877316, -5.098303, -0.377701, -0.175646, 0.510060, -11.399887, -29.867844, -83.553879, 13.727726, 100.772368
1759229822.400318, 3.945046, 6.968623, -5.551106, -0.280026, -0.248645, 0.393397, -11.026657, -30.385330, -83.582489, 13.727726, 100.772368
1759229822.420361, 2.774281, 6.615478, -5.641188, -0.215847, -0.176490, 0.119152, -10.918976, -30.360397, -83.582428, 13.727726, 100.772368
1759229822.440317, 3.325396, 6.073042, -5.380070, -0.404387, -0.369076, 0.174623, -10.765274, -30.925766, -84.175720, 13.727726, 100.772368
1759229822.460285, 4.330363, 5.825841, -6.344036, -0.437797, -0.709474, 0.317930, -10.044907, -31.311905, -84.810425, 13.727726, 100.772368
1759229822.480457, 5.400271, 6.210110, -6.805069, -0.338493, -0.693597, 0.382284, -9.452209, -31.840775, -85.323105, 13.727726, 100.772368
1759229822.500316, 5.203797, 6.826467, -6.529138, -0.330736, -0.425908, 0.501904, -8.567917, -32.719025, -85.786072, 13.727726, 100.772368
1759229822.520371, 3.448698, 8.119785, -7.014712, -0.514581, -0.402189, 0.601141, -8.641144, -33.363510, -86.650223, 13.727726, 100.772368
1759229822.540444, 2.580500, 9.664494, -6.476914, -0.914915, -0.285621, 0.515065, -8.002548, -33.975967, -86.957123, 13.727726, 100.772368
1759229822.560323, 1.451036, 9.081357, -5.329792, -1.179238, 0.212882, 0.343020, -7.722702, -35.027802, -87.112213, 13.727726, 100.772368
1759229822.580264, 1.068113, 8.143727, -5.277269, -1.402772, 0.520218, 0.373999, -7.444122, -35.990875, -86.918564, 13.727726, 100.772368
1759229822.600299, 0.622492, 6.371420, -3.497629, -1.718248, 0.570221, 0.335204, -7.559052, -37.036530, -86.469315, 13.727726, 100.772368
1759229822.619583, 6.593781, 8.212261, 1.647809, -2.658902, 0.806023, 0.324028, -7.708633, -39.132874, -86.952515, 13.727726, 100.772368
1759229822.640252, 12.916568, 15.966781, -0.131831, -3.228874, -1.443875, 0.126416, -6.318390, -40.772964, -89.932953, 13.727726, 100.772368
1759229822.660260, 6.989572, 21.068975, -15.204827, -2.222648, -5.180786, -1.871780, -3.001938, -39.520828, -95.612442, 13.727726, 100.772368
1759229822.680344, 5.168932, 8.689905, 0.548871, -2.100816, -2.338239, -1.496840, -1.131134, -38.802094, -98.757919, 13.727726, 100.772368
1759229822.700258, 3.081637, 2.239925, 4.983980, -1.808587, -1.369422, -0.984451, -0.066071, -38.466263, -101.521576, 13.727726, 100.772368
1759229822.719944, 2.756175, 0.729783, 1.890222, -1.502631, -1.747209, -0.444077, 0.615921, -38.313248, -103.636368, 13.727726, 100.772368
1759229822.740254, 5.795315, 0.692224, -0.643292, -1.243827, -1.607487, 0.689782, 1.228851, -39.475067, -105.553177, 13.727726, 100.772368
1759229822.760260, 7.600992, 8.098986, 4.115184, -1.576066, -1.161195, 1.837339, 0.710114, -41.512619, -107.903885, 13.727726, 100.772368
1759229822.780261, 7.986009, 13.917644, 4.930709, -1.996418, -0.192898, 1.843136, 0.744965, -44.114975, -108.677063, 13.727726, 100.772368
1759229822.800261, 0.684742, 16.374843, -3.623175, -1.378998, -0.190874, -0.244039, 0.835632, -44.313751, -109.513229, 13.727726, 100.772368
1759229822.820249, 3.491045, 10.618434, -1.612794, -1.377978, -1.123141, -0.303768, 1.460892, -44.065384, -111.423645, 13.727726, 100.772368
1759229822.840306, 4.682460, 6.910564, 1.237653, -1.720316, -0.633830, -0.115237, 1.682343, -44.464264, -112.852890, 13.727726, 100.772368
1759229822.860267, 6.224026, 5.973533, 2.367267, -1.755815, 0.134368, -0.108345, 1.785797, -44.224167, -113.789719, 13.727726, 100.772368
1759229822.880341, 6.549488, 5.304803, 0.718260, -1.229419, 0.257208, 0.282291, 2.034225, -44.722351, -113.791809, 13.727726, 100.772368
1759229822.900258, 4.608988, 7.329549, 1.141885, -0.943495, -0.499417, 0.363110, 2.242249, -45.636353, -114.659119, 13.727726, 100.772368
1759229822.920296, 3.405453, 10.089914, 1.444302, -1.297082, -0.969169, 0.347084, 1.926071, -45.932388, -116.639114, 13.727726, 100.772368
1759229822.940273, 2.151489, 10.114455, 0.977882, -1.588203, -1.430198, 0.103214, 2.533463, -46.400909, -119.465988, 13.727726, 100.772368
1759229822.960005, 3.008314, 9.720309, 0.768389, -1.448241, -1.180438, -0.050262, 2.253067, -45.769394, -121.284973, 13.727726, 100.772368
1759229822.980377, 3.301006, 8.972121, 0.191985, -1.323188, -0.749885, 0.037621, 2.645630, -45.820343, -123.015823, 13.727726, 100.772368
1759229823.000354, 2.962825, 8.535778, -1.145775, -1.286967, -0.774709, 0.047503, 2.699493, -45.666092, -124.374130, 13.727726, 100.772368
1759229823.020265, 3.457078, 9.209596, -0.857423, -1.121578, -1.046012, 0.183354, 2.958435, -45.925583, -126.289017, 13.727726, 100.772368
1759229823.040296, 3.571850, 9.732280, 0.463577, -0.878585, -0.895123, 0.157222, 2.757065, -46.376846, -128.222626, 13.727726, 100.772368
1759229823.060269, 3.481169, 8.666860, 0.921319, -0.987721, -0.739625, 0.262843, 3.095428, -46.425446, -129.441528, 13.727726, 100.772368
1759229823.080262, 3.168726, 7.980173, -0.015562, -1.230406, -0.679587, 0.167304, 3.260529, -46.692917, -130.874557, 13.727726, 100.772368
1759229823.100269, 4.488230, 8.814702, -0.673070, -1.154852, -0.872835, 0.193528, 3.400391, -46.567108, -132.333694, 13.727726, 100.772368
1759229823.120257, 5.127482, 9.474903, -0.372598, -1.105162, -0.765420, 0.195666, 3.908585, -46.916794, -134.326279, 13.727726, 100.772368
1759229823.140033, 5.123741, 8.476970, -0.317232, -1.127338, -0.908230, 0.149825, 4.321838, -46.857788, -136.186783, 13.727726, 100.772368
1759229823.159911, 4.932953, 6.966828, -1.015441, -0.914244, -1.708368, 0.263872, 4.324768, -46.624023, -138.585388, 13.727726, 100.772368
1759229823.180358, 4.980239, 10.101586, -0.198120, -0.735072, -1.890023, 0.490491, 3.986008, -47.278046, -141.732880, 13.727726, 100.772368
1759229823.200376, 3.554342, 12.531102, 0.711228, -0.810041, -1.226348, 0.516581, 3.823669, -47.967972, -143.969818, 13.727726, 100.772368
1759229823.220248, 1.000028, 10.919206, -0.102352, -0.710820, -1.194885, 0.131579, 4.081711, -48.634277, -145.545822, 13.727726, 100.772368
1759229823.240260, 2.073528, 12.970288, -0.924311, -0.129196, -1.379871, -0.519008, 4.768997, -48.282272, -147.812927, 13.727726, 100.772368
1759229823.260260, 3.410840, 13.201179, -1.107169, 0.299736, -1.481072, -0.990826, 5.331985, -47.767258, -148.752365, 13.727726, 100.772368
1759229823.280261, 5.254674, 10.830770, -3.091663, 0.813586, -1.770830, -1.041922, 6.368088, -47.857040, -149.647629, 13.727726, 100.772368
1759229823.300264, 9.108740, 9.658509, -3.801244, 1.508745, -2.104731, -0.596738, 6.563797, -47.993134, -150.514175, 13.727726, 100.772368
1759229823.320261, 11.100267, 8.302194, -1.515230, 1.824130, -2.406788, -0.118880, 6.818146, -49.816666, -151.604614, 13.727726, 100.772368
1759229823.340312, 10.182989, 7.571513, 2.300828, 1.341167, -3.182349, -0.061385, 6.015213, -51.673477, -153.065170, 13.727726, 100.772368
1759229823.360261, 7.608474, 7.588273, 3.888183, 0.516157, -3.529667, -0.401481, 4.814163, -52.529297, -155.703659, 13.727726, 100.772368
1759229823.380333, 5.342511, 8.029853, 3.772963, -0.398394, -3.719044, -0.844312, 2.494797, -52.253540, -158.399307, 13.727726, 100.772368
1759229823.400258, 5.457283, 9.226056, 1.002273, -0.888674, -4.052039, -0.932676, -0.058624, -50.261673, -162.726990, 13.727726, 100.772368
1759229823.420247, 6.082619, 10.296264, -2.068890, -0.624284, -4.621387, -0.860307, -3.383774, -48.930969, -166.508743, 13.727726, 100.772368
1759229823.439552, 6.451176, 10.126276, -2.411260, -0.024518, -3.816671, -0.772695, -7.511261, -47.661209, -170.048691, 13.727726, 100.772368
1759229823.460263, 5.819257, 9.294740, -1.433079, 0.775030, -1.628171, -0.729162, -9.428223, -47.650925, -171.145828, 13.727726, 100.772368
1759229823.480253, 5.169680, 8.490887, -1.178097, 1.717352, -0.508036, -0.510869, -9.887070, -48.552933, -170.036118, 13.727726, 100.772368
1759229823.500257, 4.690091, 7.144447, -0.232387, 2.077618, -0.970058, -0.370889, -10.415695, -49.875198, -167.286301, 13.727726, 100.772368
1759229823.520296, 5.169979, 5.964555, 0.105495, 1.781105, -1.154901, -0.193062, -10.875671, -51.668991, -166.953217, 13.727726, 100.772368
1759229823.539966, 5.394885, 5.875820, -0.957232, 1.265150, -0.398677, -0.121625, -11.540314, -52.600754, -165.345993, 13.727726, 100.772368
1759229823.560276, 5.584924, 6.020819, -1.087267, 0.843245, -0.171195, -0.089272, -11.610718, -53.585068, -163.044281, 13.727726, 100.772368
1759229823.580255, 5.245397, 5.450699, -0.518494, 0.593047, -0.470688, -0.046543, -11.834518, -53.758377, -162.606766, 13.727726, 100.772368
1759229823.600252, 4.694730, 4.596867, -0.223110, 0.368816, -0.466050, 0.141780, -11.987289, -54.018845, -162.620499, 13.727726, 100.772368
1759229823.620242, 4.109198, 3.979014, -0.318578, -0.067745, -0.540989, 0.472684, -12.330017, -54.492477, -162.488480, 13.727726, 100.772368
1759229823.640249, 3.191172, 3.711162, -0.812532, -0.597733, -0.422434, 0.808517, -12.572266, -54.638000, -163.139740, 13.727726, 100.772368
1759229823.660260, 2.906710, 4.066701, -0.787992, -1.101914, -0.240890, 1.102986, -13.121552, -54.768219, -164.384415, 13.727726, 100.772368
1759229823.680261, 2.600851, 4.439448, -0.061800, -1.796572, -0.322372, 1.153845, -13.168686, -54.605652, -166.078827, 13.727726, 100.772368
1759229823.700262, 4.051588, 5.633706, -1.184232, -2.243334, -0.286304, 1.216924, -12.942459, -53.315033, -167.993515, 13.727726, 100.772368
1759229823.720249, 4.961833, 7.882310, -2.919430, -2.154733, 0.086086, 1.202621, -12.704681, -52.407394, -170.227859, 13.727726, 100.772368
1759229823.740249, 5.084835, 11.807155, -4.298639, -1.881075, 0.311671, 0.968223, -11.761948, -51.911926, -170.901352, 13.727726, 100.772368
1759229823.759910, 1.039084, 15.971719, -5.180603, -1.840242, -0.622261, 0.152031, -11.473785, -50.234726, -172.730301, 13.727726, 100.772368
1759229823.780261, -4.282778, 19.442863, -6.011242, -2.301542, -2.723844, -0.867456, -12.354370, -46.923538, -175.265991, 13.727726, 100.772368
1759229823.800247, -4.711939, 17.804331, -11.988965, -1.626639, -4.335519, -1.513956, -15.924957, -42.313507, -177.990250, 13.727726, 100.772368
1759229823.820260, 1.989731, 9.796924, -14.765042, 0.285939, -1.615310, -1.395475, -17.775238, -39.981232, -178.062851, 13.727726, 100.772368
1759229823.840354, 12.301258, 8.769362, -1.889773, 0.696685, 0.932716, -0.407407, -16.245758, -39.770065, -175.333145, 13.727726, 100.772368
1759229823.859815, 10.186430, 5.056255, 7.753472, 0.318542, -0.981986, 1.057642, -16.980927, -40.037720, -173.906250, 13.727726, 100.772368
1759229823.880255, 13.323732, 9.846903, -11.053281, 1.009298, -0.944150, 1.256422, -18.624496, -42.205276, -172.880676, 13.727726, 100.772368
1759229823.900257, 4.552874, 9.718813, 0.983119, -0.679057, -2.038955, -0.099350, -20.027695, -42.422333, -173.117676, 13.727726, 100.772368
1759229823.920249, 2.746299, 4.199579, 5.954080, -1.553178, -0.858015, -0.298881, -21.773300, -39.876053, -173.586823, 13.727726, 100.772368
1759229823.940385, 3.086575, 4.638018, 4.598663, -1.812519, 0.260775, 0.198470, -21.543976, -37.412460, -173.396820, 13.727726, 100.772368
1759229823.959329, 4.072986, 5.953931, 2.882619, -1.637754, 0.174597, 0.604968, -21.778976, -35.767517, -172.798553, 13.727726, 100.772368
1759229823.980278, 4.754136, 14.176517, -0.108038, -0.679336, -1.240028, 0.616960, -23.650970, -34.807648, -173.799271, 13.727726, 100.772368
1759229824.000260, 4.427477, 12.953828, -2.099116, -0.278672, -0.856967, 0.190459, -25.093628, -33.728073, -173.825912, 13.727726, 100.772368
1759229824.020276, 5.029469, 7.655161, -0.792630, -0.410540, -0.134744, 0.230702, -25.831436, -33.168961, -173.463745, 13.727726, 100.772368
1759229824.040256, 5.623082, 5.639243, 1.083077, -0.793698, -0.084378, 0.291023, -26.091431, -32.623489, -173.363144, 13.727726, 100.772368
1759229824.060272, 6.637326, 5.764639, 0.259322, -0.875778, -0.345771, 0.353506, -26.788620, -31.257431, -173.194275, 13.727726, 100.772368
1759229824.080260, 6.772897, 6.308272, -0.371700, -0.833127, -0.707826, 0.443796, -27.158463, -30.750732, -173.492050, 13.727726, 100.772368
1759229824.100250, 5.491102, 8.023868, -0.131831, -0.867631, -0.763360, 0.437384, -28.167725, -30.043365, -173.962601, 13.727726, 100.772368
1759229824.120308, 3.960309, 9.333496, 0.239271, -0.996729, -0.641081, 0.377564, -28.778061, -29.056595, -174.587479, 13.727726, 100.772368
1759229824.140098, 3.391836, 10.195408, -0.350751, -0.946098, -0.846661, 0.381826, -29.839325, -27.845566, -175.692352, 13.727726, 100.772368
1759229824.159901, 2.980033, 10.081385, -0.436343, -0.776989, -1.067941, 0.243547, -31.328720, -27.018234, -175.525055, 13.727726, 100.772368
1759229824.180370, 2.957887, 9.476250, -0.175226, -0.757405, -1.061726, 0.151295, -32.448166, -26.084366, -176.039337, 13.727726, 100.772368
1759229824.200255, 3.079093, 9.072229, -0.449960, -0.769241, -1.009728, 0.135301, -34.261063, -25.221634, -175.752106, 13.727726, 100.772368
1759229824.220250, 3.554043, 9.116222, -1.056591, -0.666609, -0.820678, 0.148608, -35.416275, -23.960953, -176.428177, 13.727726, 100.772368
1759229824.240255, 3.834464, 9.234885, -1.798494, -0.537467, -0.687637, 0.197907, -35.817368, -23.611557, -176.437897, 13.727726, 100.772368
1759229824.259368, 3.927089, 9.049035, -1.217900, -0.497501, -0.712330, 0.192857, -36.771606, -22.702148, -176.118286, 13.727726, 100.772368
1759229824.280384, 4.319888, 8.901043, 0.062249, -0.519334, -0.800128, 0.200137, -38.022293, -22.352829, -176.546921, 13.727726, 100.772368
1759229824.300254, 4.383933, 9.035567, -0.590470, -0.484356, -0.748967, 0.228795, -38.804337, -21.420242, -176.110352, 13.727726, 100.772368
1759229824.320265, 3.814562, 9.026888, -1.411831, -0.420219, -0.879083, 0.217637, -40.051376, -21.233856, -176.435471, 13.727726, 100.772368
1759229824.340279, 3.753959, 8.703522, -0.849193, -0.427335, -0.916543, 0.214659, -41.113647, -20.770676, -176.398254, 13.727726, 100.772368
1759229824.359765, 3.923947, 8.640823, -0.108338, -0.417275, -0.582251, 0.250032, -41.710388, -20.210770, -176.088837, 13.727726, 100.772368
1759229824.380252, 3.832069, 8.492233, 0.156521, -0.310537, -0.236648, 0.305726, -42.099533, -19.578354, -176.291824, 13.727726, 100.772368
1759229824.400408, 3.533692, 8.215254, 0.201861, -0.241893, -0.222310, 0.374855, -42.679260, -19.256516, -175.983719, 13.727726, 100.772368
1759229824.420339, 2.941875, 8.809914, -0.145897, -0.162789, -0.275826, 0.309105, -42.702362, -19.129486, -175.791565, 13.727726, 100.772368
1759229824.440328, 2.901323, 10.459220, -0.278326, -0.152112, -0.114941, 0.202086, -42.966125, -19.106506, -175.703842, 13.727726, 100.772368
1759229824.460185, 2.976890, 10.868030, 0.832883, -0.133754, 0.405118, 0.065203, -42.969254, -18.319443, -174.958237, 13.727726, 100.772368
1759229824.480288, 3.198653, 9.443629, 0.606182, 0.043466, 0.695993, 0.021777, -42.437103, -18.065399, -174.784119, 13.727726, 100.772368
1759229824.500285, 3.859154, 7.773823, -0.085144, 0.231025, 0.468887, 0.065778, -41.901901, -17.664841, -174.440735, 13.727726, 100.772368
1759229824.520283, 5.423465, 7.404817, -0.347010, 0.133855, 0.281981, 0.094649, -41.841919, -17.962799, -174.040298, 13.727726, 100.772368
1759229824.540442, 7.505822, 8.178144, 0.144849, -0.098885, 0.298597, 0.279945, -41.398407, -17.672958, -173.736343, 13.727726, 100.772368
1759229824.560449, 7.065139, 8.111555, 0.848146, -0.159876, 0.059126, 0.362549, -41.235672, -17.527725, -173.205490, 13.727726, 100.772368
1759229824.580303, 5.527463, 7.514501, 1.262941, -0.151829, -0.070626, 0.370505, -41.390121, -17.430542, -173.667725, 13.727726, 100.772368
1759229824.600280, 4.578013, 7.803601, 1.242890, -0.176020, -0.048076, 0.314246, -41.432693, -16.973297, -174.018280, 13.727726, 100.772368
1759229824.620436, 4.539257, 8.559570, 0.830938, -0.209611, -0.077039, 0.258957, -41.317184, -17.290863, -173.357040, 13.727726, 100.772368
1759229824.640330, 5.051466, 8.920945, 0.317082, -0.186978, -0.006553, 0.207490, -41.687988, -16.838547, -173.516418, 13.727726, 100.772368
1759229824.660334, 5.328595, 8.167520, 0.739808, -0.243812, -0.082679, 0.213445, -41.216370, -16.445145, -173.185532, 13.727726, 100.772368
1759229824.680402, 5.634454, 7.786842, 0.569670, -0.284577, -0.334226, 0.226561, -41.647598, -16.170959, -173.440155, 13.727726, 100.772368
1759229824.700443, 5.870732, 7.780856, -0.070928, -0.304713, -0.448845, 0.272233, -42.433365, -15.614258, -173.099564, 13.727726, 100.772368
1759229824.720448, 5.435885, 8.076540, -0.226851, -0.303795, -0.390592, 0.281433, -42.927689, -15.160339, -173.310730, 13.727726, 100.772368
1759229824.740283, 4.841525, 8.696040, -0.061800, -0.191578, -0.234418, 0.280185, -43.224579, -14.646790, -173.637909, 13.727726, 100.772368
1759229824.760446, 4.329016, 8.816199, 0.535104, -0.127555, -0.175077, 0.222175, -43.389740, -14.767120, -172.791275, 13.727726, 100.772368
1759229824.780175, 4.568137, 8.346786, 0.667833, -0.171854, -0.241447, 0.156945, -43.378433, -14.427460, -172.987442, 13.727726, 100.772368
1759229824.800282, 5.133767, 7.977630, -0.058658, -0.217731, -0.229521, 0.198531, -43.777161, -14.227890, -173.291000, 13.727726, 100.772368
1759229824.820399, 5.630115, 8.399308, -0.533757, -0.241077, -0.233024, 0.279082, -44.160416, -14.141281, -173.334961, 13.727726, 100.772368
1759229824.840348, 5.175366, 9.105299, -0.181062, -0.143964, -0.152014, 0.262571, -43.962906, -13.733002, -173.109787, 13.727726, 100.772368
1759229824.860449, 4.124012, 9.048287, 0.997035, -0.121730, 0.011082, 0.206272, -44.476913, -13.747330, -172.745560, 13.727726, 100.772368
1759229824.880356, 3.771466, 8.490438, 0.660201, -0.162961, -0.251882, 0.106392, -44.400375, -13.540634, -172.711212, 13.727726, 100.772368
1759229824.900388, 4.753687, 8.009203, -1.299303, -0.105277, -0.280391, 0.051084, -45.121201, -13.261353, -172.977478, 13.727726, 100.772368
1759229824.920369, 6.502801, 8.211962, -1.441010, -0.046722, -0.287047, 0.157516, -45.349747, -13.044510, -172.971619, 13.727726, 100.772368
1759229824.940385, 6.338050, 8.528446, -0.465074, -0.007701, -0.259313, 0.206612, -45.313843, -12.872269, -172.564865, 13.727726, 100.772368
1759229824.960271, 4.955997, 8.250718, 0.281917, 0.029347, -0.158983, 0.221033, -45.658798, -12.901962, -173.232117, 13.727726, 100.772368
1759229824.980325, 3.977218, 7.950994, 0.464625, -0.006465, -0.167184, 0.219390, -46.235703, -12.643463, -172.720413, 13.727726, 100.772368
1759229825.000388, 3.825485, 8.089858, -0.644788, 0.078406, -0.225116, 0.174682, -46.169601, -12.818268, -173.106003, 13.727726, 100.772368
1759229825.020329, 4.318392, 8.613739, -1.505055, 0.232550, -0.337829, 0.141410, -46.721634, -13.031647, -172.754166, 13.727726, 100.772368
1759229825.040364, 4.490026, 9.016115, -1.765125, 0.307510, -0.392177, 0.032802, -46.999695, -13.327972, -172.643127, 13.727726, 100.772368
1759229825.060444, 4.725705, 9.748291, -2.070536, 0.302509, -0.586145, -0.163319, -47.377777, -13.159866, -173.065826, 13.727726, 100.772368
1759229825.079267, 5.049371, 10.815507, -3.213617, 0.379585, -1.436671, -0.380035, -47.897827, -13.745071, -172.591690, 13.727726, 100.772368
1759229825.100376, 5.342811, 12.051364, -4.963928, 0.610995, -2.799362, -0.724216, -52.208725, -13.954117, -173.318085, 13.727726, 100.772368
1759229825.120325, 5.365556, 11.901427, -4.318242, 0.554677, -3.659583, -1.168295, -56.374527, -14.569412, -173.393661, 13.727726, 100.772368
1759229825.140461, 5.549011, 10.339061, -2.826056, 0.410485, -3.358728, -1.495770, -60.517975, -14.954071, -172.660660, 13.727726, 100.772368
1759229825.160264, 8.070704, 8.035240, -4.127155, 1.168571, -2.384690, -1.243004, -63.573456, -16.200378, -172.236481, 13.727726, 100.772368
1759229825.179725, 9.992949, 5.463269, -3.157952, 2.108485, -0.921644, -0.619649, -64.964661, -18.174561, -172.002716, 13.727726, 100.772368
1759229825.200323, 6.592734, 6.864326, 0.619649, 2.000238, -0.152037, -0.247637, -65.032166, -20.819839, -172.310104, 13.727726, 100.772368
1759229825.220346, 3.469348, 9.140314, -0.369455, 1.474203, -0.670149, -0.301361, -66.039032, -22.242935, -171.618362, 13.727726, 100.772368
1759229825.240456, 2.362478, 10.582970, -2.354099, 1.114526, -1.042776, -0.623743, -67.223801, -23.910233, -170.984558, 13.727726, 100.772368
1759229825.260367, 3.243844, 8.914660, -2.568679, 0.995931, -0.743291, -0.652525, -67.832001, -24.976227, -170.455963, 13.727726, 100.772368
1759229825.280063, 3.322853, 6.459706, -1.956212, 0.880984, -0.436423, -0.490230, -68.482391, -26.044403, -170.097763, 13.727726, 100.772368
1759229825.300247, 2.579752, 5.267693, -1.829619, 0.641155, -0.127315, -0.357925, -68.701065, -27.077667, -170.025696, 13.727726, 100.772368
1759229825.320278, 1.935562, 5.152771, -2.116474, 0.268659, -0.113328, -0.185318, -69.066803, -27.103439, -169.775726, 13.727726, 100.772368
1759229825.340450, 2.433107, 4.786159, -1.808221, -0.127652, -0.177859, 0.053775, -68.532104, -27.154175, -169.649994, 13.727726, 100.772368
1759229825.360300, 3.070414, 3.750068, -1.379659, -0.492457, -0.239880, 0.189359, -68.878189, -26.769943, -169.847290, 13.727726, 100.772368
1759229825.380264, 3.339163, 3.193566, -1.795951, -0.742404, -0.229573, 0.326360, -69.111053, -25.806351, -169.340393, 13.727726, 100.772368
1759229825.400266, 2.521094, 3.539528, -2.491167, -0.846950, -0.129750, 0.433918, -69.117981, -25.182266, -169.930511, 13.727726, 100.772368
1759229825.420242, 1.188571, 4.296545, -2.890699, -0.841814, -0.114265, 0.414866, -69.510529, -24.172928, -169.414597, 13.727726, 100.772368
1759229825.440248, 0.334440, 5.466112, -3.026869, -0.737993, 0.010797, 0.335505, -69.122101, -23.011169, -169.881546, 13.727726, 100.772368
1759229825.460259, -0.176123, 6.863877, -3.120543, -0.607815, 0.322005, 0.277073, -68.825485, -22.360306, -170.098389, 13.727726, 100.772368
1759229825.480258, -1.127370, 8.320000, -2.882768, -0.623004, 0.861524, 0.190807, -67.910583, -21.480499, -170.268723, 13.727726, 100.772368
1759229825.499637, -1.324891, 8.982895, -2.524237, -0.689004, 1.077217, 0.157144, -66.712662, -21.010391, -170.401978, 13.727726, 100.772368
1759229825.520041, -0.544980, 8.539369, -2.830096, -0.755746, 0.931349, 0.079762, -65.132690, -19.658325, -171.080322, 13.727726, 100.772368
1759229825.540250, 0.313192, 7.615507, -3.363853, -0.431342, 0.665890, -0.080101, -64.778458, -18.897491, -171.406113, 13.727726, 100.772368
1759229825.560232, 2.828001, 7.088034, -3.627814, -0.100032, 0.890035, -0.175416, -63.576691, -18.183975, -171.062592, 13.727726, 100.772368
1759229825.580251, 4.601356, 6.766463, -4.150648, 0.000106, 2.035637, -0.177675, -62.022263, -18.357681, -171.951172, 13.727726, 100.772368
1759229825.599961, 4.798429, 6.499360, -3.914370, 0.023662, 2.450579, -0.163310, -59.524170, -17.492340, -172.209854, 13.727726, 100.772368
1759229825.620259, 5.139453, 6.033837, -2.814983, 0.036952, 2.587098, -0.153128, -56.691162, -17.338211, -172.550247, 13.727726, 100.772368
1759229825.640256, 6.735787, 6.271162, -3.640384, -0.059670, 2.300908, -0.104715, -54.675125, -17.438553, -172.511200, 13.727726, 100.772368
1759229825.660262, 8.527099, 6.981791, -6.146514, -0.516055, 1.176473, -0.170546, -53.303909, -16.148743, -172.667130, 13.727726, 100.772368
1759229825.680252, 15.524901, 11.593922, -6.987777, -1.162446, -0.388741, -0.247842, -54.044266, -15.334885, -172.860336, 13.727726, 100.772368
1759229825.700255, 11.408072, 18.015320, -0.017508, -1.681469, -2.987436, -0.281481, -56.825348, -13.004913, -171.677444, 13.727726, 100.772368
1759229825.720289, 2.593220, 10.978761, 7.438186, -2.225309, -2.643070, -0.307300, -59.565430, -10.801025, -171.704407, 13.727726, 100.772368
1759229825.740168, 1.406444, 7.262362, -7.539790, -0.954226, -4.333671, -0.377638, -64.436829, -9.594879, -170.996597, 13.727726, 100.772368
1759229825.760261, 7.354988, 31.239843, -2.586187, -0.322106, -3.678578, -0.264475, -68.644211, -9.377838, -169.252884, 13.727726, 100.772368
1759229825.780275, 1.198448, 14.056508, 3.092560, 0.116505, -1.373730, -0.681904, -70.110947, -10.029846, -169.222198, 13.727726, 100.772368
1759229825.800215, -3.363255, 4.324676, -3.221548, 1.149067, -0.709928, -1.006913, -71.546219, -11.317856, -169.422089, 13.727726, 100.772368
1759229825.820140, 3.353678, 3.580828, 4.250157, 0.812643, 0.698257, -0.356512, -71.074722, -12.461426, -169.489944, 13.727726, 100.772368
1759229825.840012, 6.424391, 8.369979, 6.021268, -0.146116, 1.164819, 0.347968, -70.223572, -12.517746, -169.737473, 13.727726, 100.772368
1759229825.860261, 7.412299, 11.777377, 0.263512, -0.839732, 2.272419, 0.332479, -68.382355, -11.612473, -170.274841, 13.727726, 100.772368
1759229825.880277, 5.005976, 14.708479, -6.829011, -0.781836, 0.656386, -0.309145, -67.205978, -10.456909, -170.853378, 13.727726, 100.772368
1759229825.899939, 5.605125, 9.249998, -0.844405, -0.480462, -0.998930, 0.042618, -68.384460, -10.532181, -169.968948, 13.727726, 100.772368
1759229825.919735, 5.275773, 5.027075, -1.272967, -0.337809, -0.454187, 0.392721, -68.729431, -10.101501, -169.840073, 13.727726, 100.772368
1759229825.939420, 4.944026, 1.967435, -2.154333, -0.172114, 0.065583, 0.553552, -68.986816, -10.024063, -169.978485, 13.727726, 100.772368
1759229825.959658, 3.156156, 3.632752, -2.987964, -0.153801, -0.107753, 0.587604, -68.958008, -9.577103, -170.052414, 13.727726, 100.772368
1759229825.980294, 1.293467, 10.724826, -1.034445, -0.344064, -0.857956, 0.462462, -69.481064, -9.038513, -169.948502, 13.727726, 100.772368
1759229825.999446, -1.511789, 13.399150, 0.473154, -0.901961, -1.624564, -0.130788, -70.778351, -8.338577, -168.247055, 13.727726, 100.772368
1759229826.020236, -0.869245, 8.522460, -3.021482, -1.070983, -1.788502, -0.311402, -72.911575, -7.509155, -168.109787, 13.727726, 100.772368
1759229826.040321, 0.626982, 3.221847, -4.774487, -0.257568, -1.123325, -0.221994, -74.435226, -7.050995, -167.274292, 13.727726, 100.772368
1759229826.060262, 2.701857, 2.759018, -5.387103, 0.400560, -1.160370, -0.167749, -75.323700, -7.531876, -166.947952, 13.727726, 100.772368
1759229826.080255, 4.391714, 7.183204, -1.087865, -0.129196, -0.895449, -0.264351, -76.645691, -7.844879, -166.747894, 13.727726, 100.772368
1759229826.099826, 1.970578, 7.802554, -0.992397, -0.293648, -0.270918, -0.096761, -77.475571, -7.494141, -165.803482, 13.727726, 100.772368
1759229826.120249, -0.123301, 6.817489, -2.485630, 0.349767, -0.573561, 0.055278, -77.546295, -7.466751, -166.363388, 13.727726, 100.772368
1759229826.140274, -0.675913, 6.382044, -1.701679, 0.954940, -0.874174, 0.064880, -78.341751, -8.479996, -166.128036, 13.727726, 100.772368
1759229826.160262, 3.068319, 8.113501, -1.160589, 0.669605, -0.194044, 0.183285, -78.731003, -8.837570, -165.852386, 13.727726, 100.772368
1759229826.180280, 3.730017, 8.506598, -1.672200, 0.476743, 0.228901, 0.214305, -78.806595, -9.380859, -166.336578, 13.727726, 100.772368
1759229826.200240, 1.733701, 7.964461, -0.702399, 0.587509, 0.556541, 0.244192, -78.632614, -9.533112, -166.374451, 13.727726, 100.772368
1759229826.219426, 2.568829, 9.743353, -0.007332, 0.987376, 0.900934, 0.263200, -77.944702, -10.368805, -167.409500, 13.727726, 100.772368
1759229826.240294, 4.929512, 15.213805, -3.802292, 1.226325, 0.567900, 0.081100, -76.960876, -11.358994, -167.104919, 13.727726, 100.772368
1759229826.259462, 6.498911, 23.422325, -6.865972, 1.071519, -1.078241, -0.755512, -77.645294, -12.789795, -167.676315, 13.727726, 100.772368
1759229826.280294, 0.939425, 21.268142, -9.644443, 1.123880, -2.950541, -1.810084, -79.752716, -14.840271, -166.289673, 13.727726, 100.772368
1759229826.299871, 6.868366, 19.170073, -10.778696, 0.801255, -2.589769, -1.627752, -82.781815, -16.745224, -164.462936, 13.727726, 100.772368
1759229826.319329, 9.000403, 14.197466, -4.144363, 0.660791, -2.607882, -1.295133, -84.991653, -18.091461, -162.898331, 13.727726, 100.772368
1759229826.340256, 7.084443, 8.745270, -3.617339, 1.248386, -1.102974, -1.396749, -86.719284, -19.592041, -161.399521, 13.727726, 100.772368
1759229826.360321, 4.879533, 6.347328, -3.101539, 1.551451, -0.117188, -1.123715, -86.631699, -22.218903, -161.261627, 13.727726, 100.772368
1759229826.380278, 3.298162, 6.543802, -2.934244, 1.451674, 0.422896, -0.515185, -85.969498, -24.868317, -160.805740, 13.727726, 100.772368
1759229826.400261, 1.852364, 7.739407, -2.065597, 1.142323, 0.570980, 0.037294, -85.203064, -25.871582, -160.709610, 13.727726, 100.772368
1759229826.420234, 1.284938, 8.701726, -2.052130, 0.873605, 0.515528, 0.202434, -84.623123, -26.572556, -161.324677, 13.727726, 100.772368
1759229826.440262, 1.803732, 7.809437, -0.891092, 0.574608, 0.745555, 0.177221, -84.017380, -27.443542, -160.612488, 13.727726, 100.772368
1759229826.460253, 2.804957, 4.717924, -0.177321, 0.413257, 0.989715, 0.229984, -83.336319, -27.347733, -160.462402, 13.727726, 100.772368
1759229826.480280, 2.614319, 2.260575, 0.581941, 0.138358, 1.204313, 0.299562, -81.918808, -27.403015, -161.276901, 13.727726, 100.772368
1759229826.500259, 2.259229, 1.035791, 0.906056, -0.308409, 1.472942, 0.463197, -80.896744, -26.961609, -162.385605, 13.727726, 100.772368
1759229826.520247, 1.860295, 0.495450, 0.896928, -0.778178, 1.763118, 0.647274, -79.478821, -26.127060, -163.093781, 13.727726, 100.772368
1759229826.540266, 2.250998, 1.191115, 0.401029, -1.178843, 1.847182, 1.034081, -77.816116, -24.546982, -164.136002, 13.727726, 100.772368
1759229826.560261, 2.966266, 1.807323, 0.213084, -1.418553, 2.012269, 1.358386, -75.799866, -22.517670, -164.658798, 13.727726, 100.772368
1759229826.580257, 3.514389, 3.370288, -0.087987, -1.385448, 2.886122, 1.106931, -73.513672, -20.897690, -166.091766, 13.727726, 100.772368
1759229826.600257, 4.426729, 7.063942, -0.532411, -1.178296, 4.121302, 0.710131, -69.830704, -19.107925, -167.160431, 13.727726, 100.772368
1759229826.620237, 3.827281, 11.017966, -5.804143, -0.377985, 2.419655, 0.559457, -66.948669, -18.343597, -167.750900, 13.727726, 100.772368
1759229826.640276, 1.811513, 12.717101, -8.350526, -0.191404, 0.792923, 0.228308, -66.184128, -18.044296, -167.677612, 13.727726, 100.772368
1759229826.659952, 2.808548, 9.814880, -5.769727, -0.930799, 1.748745, 0.222721, -64.676636, -17.114090, -167.416168, 13.727726, 100.772368
1759229826.680374, 3.369091, 7.336732, -3.589357, -1.179410, 1.566455, 0.074200, -63.065170, -15.983368, -168.319565, 13.727726, 100.772368
1759229826.700253, 4.956596, 6.004508, -2.916437, -0.796218, -0.013991, -0.103523, -62.973206, -14.838821, -167.727112, 13.727726, 100.772368
1759229826.720233, 7.387160, 5.071817, -5.533299, -0.549237, -1.675186, -0.029140, -64.350510, -14.329849, -167.248932, 13.727726, 100.772368
1759229826.740265, 10.790068, 7.043143, -7.765294, -0.812310, -0.681375, 0.051994, -65.096313, -13.605804, -166.818954, 13.727726, 100.772368
1759229826.760262, 17.315016, 15.523255, -10.464756, -0.436836, -2.587885, -0.053129, -66.775238, -12.657684, -166.351044, 13.727726, 100.772368
1759229826.780258, 8.605210, 18.408568, 0.838868, -1.092587, -3.810486, 0.053862, -70.142258, -12.159592, -164.859894, 13.727726, 100.772368
1759229826.800250, -0.766593, 9.777770, 7.190685, -1.122031, -2.251699, -0.029473, -72.268219, -10.908020, -163.736740, 13.727726, 100.772368
1759229826.819417, -1.767220, 6.943783, 3.891775, -0.508388, -1.081709, -0.427726, -73.880920, -10.453262, -163.398682, 13.727726, 100.772368
1759229826.840244, -5.559486, 15.653290, -2.249203, -0.774615, -6.317663, -1.035344, -77.120804, -10.016586, -161.788071, 13.727726, 100.772368
1759229826.860260, 5.507262, 29.190107, -6.418555, -0.873035, -1.812845, -0.303222, -80.668839, -9.233444, -158.996567, 13.727726, 100.772368
1759229826.880260, 5.257966, 9.675119, -1.223587, 0.639846, 2.584554, 0.016364, -79.409683, -9.780975, -159.701981, 13.727726, 100.772368
1759229826.900259, 4.842572, 6.294655, 1.172710, 1.163496, 3.484245, 0.123195, -76.461639, -10.455490, -160.469833, 13.727726, 100.772368
1759229826.919772, 6.597522, 6.969521, 4.138976, 0.561869, 3.373775, 0.675819, -73.191360, -11.234360, -162.461105, 13.727726, 100.772368
1759229826.940257, 7.493702, 6.280290, 3.602076, -0.431024, 2.412096, 0.828821, -70.740082, -10.973587, -163.043304, 13.727726, 100.772368
1759229826.960261, 4.178630, 10.189423, -5.274726, -0.920964, 0.472589, 0.032240, -69.622498, -9.971893, -163.622391, 13.727726, 100.772368
1759229826.980257, 5.451298, 12.902802, -2.781913, -0.961989, -0.226067, -0.236987, -69.858109, -9.425491, -162.849899, 13.727726, 100.772368
1759229827.000256, 4.238784, 6.783970, -1.356764, -0.571589, 0.595157, 0.098849, -69.901642, -8.720978, -162.183044, 13.727726, 100.772368
1759229827.020128, 3.693655, 2.697667, -3.938462, 0.124975, 0.767181, 0.422515, -69.057083, -8.454926, -162.610382, 13.727726, 100.772368
1759229827.040245, 3.621829, 3.155109, -2.582595, 0.316964, 0.025197, 0.587318, -68.278473, -8.722000, -162.953979, 13.727726, 100.772368
1759229827.060316, 1.702577, 4.903475, 1.232864, 0.155465, -0.402651, 0.554787, -68.760513, -8.535599, -162.325470, 13.727726, 100.772368
1759229827.080254, -0.985064, 6.744765, -2.436998, -0.188103, -1.345492, 0.215100, -69.196869, -8.687683, -162.175140, 13.727714, 100.772345
1759229827.100261, -1.410933, 9.789292, -6.573580, -0.630650, -2.021869, -0.263070, -70.756180, -8.183228, -160.994980, 13.727714, 100.772345
1759229827.120275, 0.815974, 12.877812, -4.524293, -0.747402, -1.825779, -0.401632, -72.610641, -7.490829, -159.769836, 13.727714, 100.772345
1759229827.139278, 0.565181, 7.324312, 0.496647, -0.503083, -1.423258, -0.754284, -74.217407, -7.838593, -158.968002, 13.727714, 100.772345
1759229827.160264, 2.064849, 3.073856, -5.159056, 0.757536, -1.555279, -0.592906, -76.147781, -8.290131, -158.598755, 13.727714, 100.772345
1759229827.180278, 5.480328, 2.814683, -4.825962, 1.341019, -0.601333, 0.053400, -76.307007, -9.359390, -158.629440, 13.727714, 100.772345
1759229827.200260, 4.826711, 7.127987, -0.164003, 0.959733, 0.402129, 0.264820, -76.308624, -9.617737, -158.396561, 13.727714, 100.772345
1759229827.220067, 3.348590, 7.574207, -1.679383, 1.143592, 0.540576, 0.363487, -75.929657, -10.279099, -158.096039, 13.727714, 100.772345
1759229827.240275, 2.373701, 6.874651, -2.932149, 1.403666, -0.296424, 0.341153, -76.217194, -11.172974, -158.399109, 13.727714, 100.772345
1759229827.260284, 1.513584, 7.376835, -1.825130, 0.751608, -0.703428, 0.101263, -77.276093, -11.694809, -157.883957, 13.727714, 100.772345
1759229827.280344, 0.645387, 10.512939, -3.245490, 0.493096, -1.340679, -0.369356, -78.334503, -11.979141, -157.432007, 13.727714, 100.772345
1759229827.299787, 0.689380, 15.192257, -7.921515, 1.899848, -2.130227, -0.969424, -80.685120, -13.728699, -156.439087, 13.727714, 100.772345
1759229827.320320, 2.492514, 23.196372, -12.916868, 3.026855, -0.740054, -1.198989, -81.720551, -16.581284, -156.198380, 13.727714, 100.772345
1759229827.340066, 6.248268, 23.195924, -9.599402, 3.320547, -0.158601, -0.989347, -81.716156, -19.510345, -156.117691, 13.727714, 100.772345
1759229827.360262, 8.510339, 14.669124, 1.921796, 2.410104, -1.691529, -0.696396, -82.797256, -21.732666, -155.384888, 13.727714, 100.772345
1759229827.380344, 6.920141, 9.011027, 1.162086, 1.379896, -0.878188, -1.308573, -83.274139, -23.864487, -154.553040, 13.727714, 100.772345
1759229827.400275, 7.034913, 7.573309, -5.004630, 0.873911, -0.405639, -1.656901, -83.529160, -25.679688, -153.848740, 13.727714, 100.772345
1759229827.420254, 5.458630, 8.562713, -3.623774, -0.006332, -0.816368, -1.424706, -83.919647, -27.275070, -153.909439, 13.727714, 100.772345
1759229827.440276, 4.889558, 8.710854, -2.422782, -0.434316, -0.347812, -0.772037, -83.886383, -27.121918, -153.131531, 13.727714, 100.772345
1759229827.460265, 2.918981, 7.106589, -3.060837, -0.434532, 0.001829, -0.581338, -84.053284, -27.427628, -153.089996, 13.727714, 100.772345
1759229827.480355, 2.745251, 5.520730, -1.679233, -0.562215, 0.249077, -0.455648, -84.077606, -27.300964, -152.609406, 13.727714, 100.772345
1759229827.500260, 2.612224, 3.652953, -1.331924, -0.716276, 0.689529, -0.121403, -83.618637, -26.785416, -153.002686, 13.727714, 100.772345
1759229827.520236, 2.177975, 2.417096, -0.767940, -1.020258, 1.101534, 0.312752, -82.877899, -26.328766, -153.351166, 13.727714, 100.772345
1759229827.540083, 2.081309, 1.662025, -0.486322, -1.464392, 1.488398, 0.759936, -81.912964, -25.403656, -153.902405, 13.727714, 100.772345
1759229827.560263, 1.956063, 1.411681, -1.075146, -1.747326, 1.775792, 1.038466, -80.945663, -23.440399, -154.532440, 13.727714, 100.772345
1759229827.580341, 2.237232, 1.257106, -1.654094, -1.791383, 1.905203, 1.339669, -79.370453, -21.638657, -155.600281, 13.727714, 100.772345
1759229827.600253, 2.103306, 1.636736, -1.411382, -1.757210, 2.270095, 1.434291, -78.302689, -19.622864, -156.524094, 13.727714, 100.772345
1759229827.620235, 1.464952, 4.790947, 0.294636, -1.737548, 2.771974, 1.131756, -76.115646, -17.876633, -157.578583, 13.727714, 100.772345
1759229827.640343, 1.370232, 9.282021, -2.035969, -0.856697, 2.566922, 0.622339, -74.130112, -16.357971, -158.106064, 13.727714, 100.772345
1759229827.660261, 3.103035, 14.002488, -8.725818, 0.783516, 1.983411, 0.213360, -72.537811, -16.682617, -159.334717, 13.727714, 100.772345
1759229827.680277, 3.262848, 11.763461, -5.633557, 0.140025, 3.054477, -0.066092, -71.109024, -17.255157, -159.187103, 13.727714, 100.772345
1759229827.699907, 3.312378, 7.668029, -3.851223, -0.884124, 1.771125, -0.313780, -68.993759, -16.876984, -161.078461, 13.727714, 100.772345
1759229827.719895, 4.954351, 6.201880, -2.722507, -1.128682, -0.524095, -0.310469, -68.986893, -16.160690, -160.697617, 13.727714, 100.772345
1759229827.739646, 6.883030, 4.821174, -3.603722, -0.996876, -1.394031, -0.101237, -70.244858, -15.353119, -159.878098, 13.727714, 100.772345
1759229827.760279, 7.537695, 5.587169, -4.275895, -0.816531, -0.618561, 0.125354, -71.367966, -14.940903, -159.112625, 13.727714, 100.772345
1759229827.780281, 9.313744, 10.520721, -5.176264, -0.482514, -0.377480, 0.143824, -71.741943, -14.141586, -158.464874, 13.727714, 100.772345
1759229827.800252, 10.557382, 19.908385, -3.901950, -0.705527, -1.493461, 0.030523, -73.303375, -13.324081, -158.388794, 13.727714, 100.772345
1759229827.820444, 3.153313, 16.163704, 5.529409, -1.130899, -2.266101, -0.008173, -75.077423, -12.718185, -157.162186, 13.727714, 100.772345
1759229827.840211, -0.934038, 7.441777, 4.204068, -1.261407, -2.059089, -0.571329, -76.558762, -12.185028, -156.063080, 13.727714, 100.772345
1759229827.860281, 0.234183, 8.885780, -1.280449, -0.845720, -2.754291, -0.849274, -78.655396, -11.570450, -154.596771, 13.727714, 100.772345
1759229827.880246, 9.040805, 28.856564, -7.149685, -1.177868, -1.947613, -0.282162, -80.459900, -11.203033, -153.321915, 13.727714, 100.772345
1759229827.900379, 5.257517, 16.544831, 3.393631, -1.324669, -0.120375, -0.390788, -80.496567, -10.863876, -152.830505, 13.727714, 100.772345
1759229827.920270, -2.887258, 7.844751, -8.547749, 0.387819, -1.172449, -0.981301, -81.339325, -11.146088, -152.449844, 13.727714, 100.772345
1759229827.940431, 5.723339, 4.085555, 0.157718, 0.731575, 1.045712, 0.112670, -80.796524, -11.692108, -152.420685, 13.727714, 100.772345
1759229827.960353, 7.013664, 4.110994, 3.222745, 0.103729, 1.988528, 0.675717, -78.764160, -11.594788, -153.448792, 13.727714, 100.772345
1759229827.980452, 4.385429, 2.541744, -0.301071, -0.000654, 1.431511, 0.443151, -78.070663, -11.439667, -154.359741, 13.727714, 100.772345
1759229828.000371, 4.825513, 6.855198, -5.209035, -0.018747, -0.402461, 0.447400, -77.909912, -11.442749, -153.751907, 13.727714, 100.772345
1759229828.020312, 4.863072, 17.414675, -1.799093, -1.086862, -1.081168, 0.305213, -78.991287, -10.921585, -153.355072, 13.727714, 100.772345
1759229828.040458, -0.883909, 13.400796, -1.322796, -1.072325, -1.362177, -0.333953, -79.670044, -9.926849, -152.187302, 13.727714, 100.772345
1759229828.060313, 0.855628, 4.697124, -2.452710, -0.028229, -1.251322, -0.131390, -80.735672, -10.431335, -151.289673, 13.727714, 100.772345
1759229828.080329, 2.453458, -1.504756, -2.862418, 1.017836, -0.485073, 0.347479, -81.237625, -10.723511, -151.253494, 13.727714, 100.772345
1759229828.100260, 2.032976, -0.933888, -5.941511, 1.214775, 0.099911, 0.461101, -81.124603, -11.686462, -151.314835, 13.727714, 100.772345
1759229828.120235, 2.845509, 10.862792, -0.080804, 0.146434, -0.814760, 0.342843, -81.723999, -11.527420, -150.991211, 13.727714, 100.772345
1759229828.140354, 1.903839, 13.284527, 1.267879, -0.604095, -1.494959, -0.304434, -82.436050, -11.760483, -150.102737, 13.727714, 100.772345
1759229828.160262, -0.897826, 6.548142, 0.181810, -0.587690, -1.613620, -0.438152, -83.541977, -11.377365, -149.225571, 13.727714, 100.772345
1759229828.180260, 0.567426, 2.760215, -6.719028, 0.622115, -1.618435, 0.127154, -84.464447, -11.657043, -148.095840, 13.727714, 100.772345
1759229828.200259, 1.757194, 7.541137, -0.116568, 0.673140, -0.221111, 0.333333, -84.736633, -11.777557, -147.965805, 13.727714, 100.772345
1759229828.220233, 1.133355, 9.547777, -2.385972, 0.683001, 0.326370, 0.283246, -84.598145, -12.187408, -147.721909, 13.727714, 100.772345
1759229828.240356, -1.932420, 8.457817, -2.540248, 1.063250, 0.823200, 0.010058, -84.012573, -12.826065, -148.552597, 13.727714, 100.772345
1759229828.260263, -1.287632, 12.726229, -3.655647, 1.687279, 1.396083, -0.322841, -83.510849, -13.667740, -149.042389, 13.727714, 100.772345
1759229828.280371, 1.077690, 21.182250, -6.221782, 2.525740, 0.490404, -0.833646, -82.905777, -15.710648, -149.621414, 13.727714, 100.772345
1759229828.300276, 3.646968, 28.367399, -11.636868, 2.236522, -0.869463, -1.812905, -83.321716, -17.794052, -149.449295, 13.727714, 100.772345
1759229828.320258, 6.087407, 17.734301, -6.798336, 1.677225, -1.205595, -1.883654, -84.144958, -20.555069, -148.705688, 13.727714, 100.772345
1759229828.340253, 11.099968, 10.086173, -2.274940, 1.936400, -0.688960, -1.230742, -84.494858, -22.107376, -147.859573, 13.727714, 100.772345
1759229828.360261, 12.132916, 9.093178, -2.371157, 2.127486, -0.498097, -0.662886, -84.720886, -23.831635, -146.693771, 13.727714, 100.772345
1759229828.380265, 7.171981, 8.671798, -3.470096, 1.376894, -0.650057, -0.964281, -84.652863, -25.365891, -146.531387, 13.727714, 100.772345
1759229828.400255, 5.280861, 8.367585, -3.230377, 0.500451, -0.577584, -1.140172, -84.959946, -26.500839, -145.736710, 13.727714, 100.772345
1759229828.420261, 4.341286, 7.524677, -1.703624, 0.277976, -0.534763, -0.687168, -85.060883, -26.911331, -145.035614, 13.727714, 100.772345
1759229828.440279, 3.093458, 7.013814, -1.153407, 0.168478, -0.270795, -0.178976, -85.096909, -28.014832, -144.187729, 13.727714, 100.772345
1759229828.460259, 2.309507, 5.578191, -0.796970, -0.067125, 0.193033, 0.125591, -85.220718, -28.220352, -144.593002, 13.727714, 100.772345
1759229828.480256, 0.847248, 3.251924, 0.063297, -0.445983, 0.406592, 0.288925, -84.919556, -27.386612, -145.070206, 13.727714, 100.772345
1759229828.500272, 0.633566, 1.425298, -0.234332, -0.671833, 0.645808, 0.498549, -84.576248, -27.280289, -144.460602, 13.727714, 100.772345
1759229828.520245, 1.027861, -0.216825, -0.281468, -1.083517, 1.106695, 0.840778, -84.555176, -26.133881, -145.222641, 13.727714, 100.772345
1759229828.540255, 1.231817, -0.505925, -0.072724, -1.411007, 1.665103, 1.308809, -83.747620, -25.202362, -146.051285, 13.727714, 100.772345
1759229828.559538, 0.983269, -0.234482, -0.028730, -1.477420, 1.903844, 1.513021, -82.957489, -23.594666, -147.285736, 13.727714, 100.772345
1759229828.580253, 1.252018, 2.276886, -0.224007, -1.095253, 2.681846, 1.650947, -81.228058, -22.102875, -148.347488, 13.727714, 100.772345
1759229828.600255, 2.576909, 7.536348, -0.719308, -0.630810, 3.732754, 1.025839, -79.610260, -20.744598, -150.053223, 13.727714, 100.772345
1759229828.620242, 4.000861, 11.191845, -2.387318, -0.235411, 3.361469, 0.130882, -77.010574, -20.044708, -151.731979, 13.727714, 100.772345
1759229828.640271, 4.440646, 16.379781, -6.870910, -0.216517, 2.577090, -0.190364, -75.516953, -19.862152, -152.795929, 13.727714, 100.772345
1759229828.659976, 2.267459, 10.184335, -6.032790, -0.792857, 1.786783, -0.277265, -74.711884, -19.488739, -153.124100, 13.727714, 100.772345
1759229828.680268, 2.772336, 5.922207, -3.557933, -1.226447, 1.315387, -0.151681, -73.762711, -18.890518, -153.502426, 13.727714, 100.772345
1759229828.700272, 5.764639, 4.963629, -4.685303, -0.850550, 0.632614, 0.024313, -73.559326, -18.109299, -153.419617, 13.727714, 100.772345
1759229828.720330, 9.177873, 3.596390, -9.527127, 0.040927, -0.212647, 0.135878, -73.616104, -17.606812, -152.913391, 13.727714, 100.772345
1759229828.740296, 17.611149, 6.898144, -14.699201, 0.406207, -0.766050, 0.339306, -74.346893, -17.941772, -152.688553, 13.727714, 100.772345
1759229828.760334, 16.300024, 16.023793, -1.657386, -1.308252, -1.742826, 0.285308, -75.399216, -17.116577, -151.810776, 13.727714, 100.772345
1759229828.780273, 1.057489, 12.481273, 9.233837, -1.327893, -1.830644, 0.195295, -76.085464, -16.429901, -151.039398, 13.727714, 100.772345
1759229828.800279, -1.610101, 9.563639, 5.327248, -0.456578, -1.746615, -0.128941, -77.445312, -15.472397, -150.249481, 13.727714, 100.772345
1759229828.820332, -3.185036, 20.447979, 4.513519, -2.072482, -7.961384, -1.187570, -81.215424, -15.076202, -146.854919, 13.727714, 100.772345
1759229828.840364, 0.959327, 32.519693, -5.226692, -3.484476, -6.298896, -0.709736, -85.310074, -14.004440, -142.916901, 13.727714, 100.772345
1759229828.860444, 0.731878, 7.994988, -7.511658, -0.611919, 1.715155, -0.636775, -85.247177, -13.902466, -142.497665, 13.727714, 100.772345
1759229828.879542, 3.951331, 2.406322, -4.879383, 1.464847, 3.271015, -0.064045, -83.530167, -14.800842, -144.228378, 13.727714, 100.772345
1759229828.900278, 6.398953, 6.586449, 4.118176, 1.220165, 2.995642, 0.787257, -81.898163, -15.042435, -144.924896, 13.727714, 100.772345
1759229828.920441, 3.666121, 6.665457, 4.458752, 0.263995, 1.670902, 0.602478, -80.581161, -15.344330, -146.730713, 13.727714, 100.772345
1759229828.940328, 2.743007, 12.949788, -5.583278, -0.626748, -1.268063, -0.049752, -81.085815, -15.006149, -145.880417, 13.727714, 100.772345
1759229828.960267, 6.450428, 14.802152, -2.784157, -1.311338, -0.125652, -0.322935, -81.375015, -15.005966, -145.681702, 13.727714, 100.772345
1759229828.980272, 5.021389, 7.514202, -1.579874, -0.801425, 0.260061, -0.045318, -81.354996, -14.398804, -145.669434, 13.727714, 100.772345
1759229829.000279, 4.546739, 2.498649, -2.392406, 0.130825, -0.092456, 0.432046, -81.520477, -13.726700, -146.001602, 13.727714, 100.772345
1759229829.019577, 2.403479, -0.637905, -0.811934, 0.368449, -0.008558, 0.534113, -81.532822, -14.107132, -145.966202, 13.727714, 100.772345
1759229829.040294, 0.808342, 1.834707, -3.011906, 0.142511, -0.633912, 0.252173, -81.646027, -13.983612, -145.679169, 13.727714, 100.772345
1759229829.060262, 0.650475, 11.416002, -2.920178, -0.468483, -1.712232, 0.150796, -82.330139, -13.805344, -144.195938, 13.727714, 100.772345
1759229829.080269, 0.880767, 14.293384, -0.000299, -0.930512, -1.292513, -0.247720, -83.174576, -13.488022, -143.475845, 13.727714, 100.772345
1759229829.100245, -1.225532, 5.591059, -2.866308, -0.470780, -1.260913, -0.443044, -84.261566, -13.670380, -142.462143, 13.727714, 100.772345
1759229829.120330, 1.697190, -0.367959, -2.864662, 0.442678, -1.013603, 0.016575, -84.840714, -13.829956, -141.674271, 13.727714, 100.772345
1759229829.140277, 2.506131, 2.467674, -5.211279, 1.026658, -0.847310, 0.210899, -85.095444, -14.305740, -141.462677, 13.727714, 100.772345
1759229829.160345, 2.808099, 10.741735, -3.114258, 0.783116, 0.062284, 0.236085, -85.215973, -14.504364, -140.819748, 13.727714, 100.772345
1759229829.180319, 2.493860, 10.419416, -1.297508, 0.995446, 0.560192, 0.360151, -85.345322, -14.366104, -141.295563, 13.727714, 100.772345
1759229829.200314, 1.596783, 6.692991, -3.627066, 1.701542, 0.689533, 0.344913, -84.566711, -15.315582, -142.039505, 13.727714, 100.772345
1759229829.220303, 1.839495, 8.113052, -0.985064, 1.883991, 0.763974, -0.031005, -84.637512, -16.042542, -142.150986, 13.727714, 100.772345
1759229829.240443, 1.168370, 16.206650, -5.712116, 1.802771, -1.728204, -0.783727, -85.236679, -17.362808, -141.241379, 13.727714, 100.772345
1759229829.260442, -0.736965, 31.870864, -11.913398, 0.982437, -2.821592, -2.296793, -87.128952, -19.541611, -139.414261, 13.727714, 100.772345
1759229829.280312, 3.077447, 24.128315, -8.818443, 1.026759, -2.110277, -2.470317, -88.230865, -21.653305, -137.688828, 13.727714, 100.772345
1759229829.300366, 10.983550, 14.257770, -2.100613, 1.687296, -0.852710, -1.513223, -88.061264, -23.425980, -136.493210, 13.727714, 100.772345
1759229829.320246, 11.064204, 9.895984, -0.691924, 2.036138, -0.660569, -1.229403, -88.169708, -25.039246, -136.128204, 13.727714, 100.772345
1759229829.340302, 7.130531, 6.546645, -3.356222, 1.183309, -0.451240, -1.655099, -88.118912, -26.581757, -135.429962, 13.727714, 100.772345
1759229829.360439, 5.464616, 4.920384, -3.645172, -0.048960, -0.386368, -1.241623, -87.804886, -27.304657, -134.982315, 13.727714, 100.772345
1759229829.379621, 3.594295, 5.944952, -3.262249, -0.237569, -0.336930, -0.570830, -87.881195, -27.992981, -135.092163, 13.727714, 100.772345
1759229829.400448, 2.545036, 8.254309, -0.895132, -0.249566, -0.275113, -0.076715, -87.974106, -27.885193, -134.315933, 13.727714, 100.772345
1759229829.420341, 2.333598, 7.474997, -0.664391, -0.456389, -0.138763, 0.290424, -88.002106, -27.516220, -134.232391, 13.727714, 100.772345
1759229829.440450, 2.266710, 4.915745, -1.408539, -0.758640, 0.298032, 0.509467, -87.831970, -27.145035, -134.721878, 13.727714, 100.772345
1759229829.460374, 2.550573, 2.850746, -2.377293, -0.902135, 1.022636, 0.697245, -87.625870, -26.177872, -135.468338, 13.727714, 100.772345
1759229829.480021, 1.580023, 1.970727, -2.190096, -1.045708, 1.621700, 0.989029, -87.143509, -25.697372, -136.705139, 13.727714, 100.772345
