SamplingTime, AccelerationX, AccelerationY, AccelerationZ, GyroX, GyroY, GyroZ, MagneticFieldX, MagneticFieldY, MagneticFieldZ, Latitude, Longitude
1759229457.667192, -3.005471, 1.104625, -8.559421, 0.575018, -0.236078, -0.063842, 68.007568, 156.040680, -570.073975, , 
1759229457.686747, -3.665822, 1.395520, -9.265560, 0.686303, -0.043418, 0.096981, 68.145477, 156.020599, -570.572144, , 
1759229457.706393, -3.191920, 0.176722, -9.221567, 0.695970, -0.212716, 0.031746, 68.056412, 155.811035, -570.559204, , 
1759229457.727189, -2.447622, 0.139762, -8.531738, 1.109356, -0.695438, -0.124571, 67.999130, 155.925049, -570.228760, , 
1759229457.747197, -2.933795, 0.000599, -8.864831, 1.456592, -0.953696, -0.266248, 68.176117, 155.879761, -570.361389, , 
1759229457.767186, -3.467851, -0.217573, -8.544457, 1.420551, -0.799709, -0.353983, 68.279648, 155.962097, -570.113586, , 
1759229457.786764, -3.903746, -0.182708, -8.699930, 1.098130, -0.557632, -0.422272, 68.186111, 155.719635, -570.457153, , 
1759229457.807201, -4.332009, -0.560243, -8.845378, 0.717365, -0.317968, -0.320272, 68.049408, 155.723511, -570.569397, , 
1759229457.826612, -4.317195, -0.202310, -8.819640, 0.290444, -0.102289, -0.013929, 68.580978, 155.715103, -570.107544, , 
1759229457.847198, -5.299266, 0.032022, -8.843582, -0.069821, -0.133988, 0.557450, 68.125870, 155.932129, -569.758911, , 
1759229457.867193, -4.141071, -0.129437, -8.766818, -0.031113, -0.121323, 0.610461, 68.356918, 156.322327, -570.167664, , 
1759229457.886776, -3.971232, -0.050428, -8.791957, 0.001141, -0.099671, 0.418199, 68.532089, 156.494705, -570.558594, , 
1759229457.907190, -3.835212, 0.013467, -9.323919, 0.597303, 0.966405, 0.101863, 68.611237, 156.697205, -570.815063, , 
1759229457.927178, -3.507505, -0.278775, -5.769128, 0.339161, -0.290455, 0.158094, 68.882355, 156.882736, -570.606750, , 
1759229457.947198, -4.224718, 0.166996, -9.003994, 0.255686, -0.491816, 0.442472, 68.804947, 156.991638, -570.351562, , 
1759229457.967188, -3.760243, 0.004190, -8.519767, 0.384812, -0.824440, 0.354599, 69.025085, 157.241623, -569.985229, , 
1759229457.986815, -3.578583, 0.296881, -8.296507, 0.376282, -0.985129, 0.337796, 69.236725, 157.503403, -570.134583, , 
1759229458.007212, -4.620360, 0.464475, -9.050830, 0.425005, -0.908395, 0.429511, 69.557632, 157.919266, -569.644653, , 
1759229458.027176, -5.365705, 0.420631, -9.209297, 0.293433, -0.960464, 0.569214, 69.869797, 158.141525, -569.200073, , 
1759229458.047209, -4.441693, 1.080234, -8.491335, 0.136652, -1.601604, 0.498985, 70.077866, 158.250946, -567.484619, , 
1759229458.067193, -3.301006, 1.388038, -8.330475, 0.009569, -2.301148, 0.436029, 70.464188, 158.428436, -567.002747, , 
1759229458.086802, -3.245191, 1.929577, -7.446416, -0.146844, -3.497077, 0.246056, 71.125397, 158.514679, -565.864807, , 
1759229458.107206, -1.885135, 1.760486, -5.152023, -0.684806, -4.473520, 0.443116, 72.114792, 158.709579, -563.027466, , 
1759229458.127193, 0.422277, 4.612280, -3.913472, -1.351609, -5.205344, 1.513060, 74.330566, 159.045227, -560.427368, , 
1759229458.147203, -1.055095, 2.319383, -2.943521, -1.776108, -5.734841, 2.516343, 77.046249, 159.193863, -557.158508, , 
1759229458.167193, -6.203227, 1.634492, -2.759916, -1.117108, -6.007761, 2.340893, 80.623703, 159.587662, -554.325439, , 
1759229458.186816, -4.096329, 5.347150, -5.119102, 0.318374, -5.085859, 2.906853, 84.063828, 160.631073, -553.743958, , 
1759229458.207213, -6.054188, 3.361160, -3.001132, 1.635475, -4.103688, 3.203881, 87.324631, 161.894958, -553.149048, , 
1759229458.227174, -7.632116, 3.599981, -1.691952, 2.816203, -2.461266, 3.896137, 90.823639, 163.373276, -553.669434, , 
1759229458.247206, -12.344055, 5.885097, 0.484676, 3.464366, -1.207533, 4.350355, 93.609314, 165.023148, -554.411499, , 
1759229458.267195, -16.654965, 6.053589, 2.998289, 3.358768, -1.490948, 4.242503, 96.363571, 166.463104, -556.776184, , 
1759229458.286839, -17.829919, 6.830208, 3.271976, 2.624437, -2.259223, 3.718042, 99.049088, 167.260971, -558.769409, , 
1759229458.307198, -19.523069, 8.764274, 3.630807, 1.552849, -3.062085, 2.698021, 101.363937, 167.769089, -559.688171, , 
1759229458.327183, -19.672108, 6.320243, 2.471115, 0.246311, -2.615349, 1.690982, 103.085175, 167.565262, -560.488403, , 
1759229458.346713, -18.268656, 3.009212, -0.672172, -1.641060, -0.597276, 0.426294, 103.321045, 167.242340, -560.043945, , 
1759229458.366559, -14.966005, 3.577386, -3.671957, -3.559393, 2.376688, -0.881801, 102.292221, 166.155350, -557.968689, , 
1759229458.386841, -9.608979, 7.125294, -3.660884, -4.662099, 4.130249, -1.468637, 100.436493, 164.799759, -554.894836, , 
1759229458.407217, -6.325630, 7.632565, -2.497302, -5.048840, 4.039981, -0.765390, 98.176102, 162.525742, -551.912292, , 
1759229458.427202, -4.859780, 7.929895, 0.464026, -4.557909, 0.830612, -0.023570, 97.546432, 160.443253, -549.478149, , 
1759229458.447203, -4.905869, 7.759907, -5.687725, -0.621029, -2.949255, 0.946751, 98.235062, 159.749466, -549.803101, , 
1759229458.467165, -4.389320, 5.011363, -2.688389, 1.334942, -2.980695, 0.731067, 100.485077, 159.948532, -550.219788, , 
1759229458.486867, -5.811476, 6.020819, -3.270629, 1.417874, -2.795446, 0.812395, 101.574188, 160.834473, -551.804993, , 
1759229458.507231, -4.734833, 5.248240, -1.286584, 0.456578, -0.049767, 0.250464, 102.483780, 161.107239, -551.244507, , 
1759229458.527166, -0.284760, 10.620679, 7.768287, 0.522511, -3.350536, 2.365128, 103.960876, 160.873352, -552.001160, , 
1759229458.547190, -8.461857, 5.480627, 0.389507, -0.549905, -4.479730, 1.549467, 106.678680, 160.482391, -552.633240, , 
1759229458.566362, -6.731747, 6.528389, -2.398990, -0.499890, -1.206702, 0.938013, 108.167755, 160.008041, -552.890991, , 
1759229458.586876, -7.295881, 5.480627, -0.149189, -0.297678, 0.110852, 0.483473, 107.975876, 159.630768, -553.663391, , 
1759229458.607199, -3.229928, 8.769512, -0.175974, 0.737627, 1.294200, 0.311863, 108.621628, 159.685455, -552.510559, , 
1759229458.627167, -2.902521, 5.999271, 6.411822, 0.321771, 0.587738, 1.872185, 108.557053, 159.490402, -552.937378, , 
1759229458.647191, -6.936152, 5.468357, 4.326472, -0.782165, -0.797494, 2.270060, 109.733734, 158.678268, -552.533630, , 
1759229458.667160, -11.886762, 4.260781, 1.260248, -0.732649, -0.308000, 1.738562, 110.376999, 157.740509, -552.372498, , 
1759229458.686890, -12.707225, 3.951480, 0.601842, 0.131908, 0.182615, 0.837713, 111.267487, 157.447495, -552.530029, , 
1759229458.707186, -13.205369, 2.758120, 3.191321, 0.106057, 0.046456, 0.358757, 111.389908, 157.393936, -552.274536, , 
1759229458.726729, -14.736012, 0.990451, 1.150264, -0.692448, 0.197828, -0.469144, 111.365143, 157.206985, -552.443970, , 
1759229458.746791, -14.930242, 1.016488, -2.978387, -0.221240, 0.426252, -1.427456, 110.811798, 157.149338, -551.779541, , 
1759229458.767164, -9.711929, 3.372233, -3.063381, 1.042356, -0.500079, -1.425188, 110.371521, 157.985046, -551.956909, , 
1759229458.786899, -9.827899, 2.781763, -0.481983, 1.416948, -0.680792, -1.194688, 109.893890, 159.085678, -553.165405, , 
1759229458.807177, -8.373421, 4.494365, 0.608875, 1.164609, -0.114951, -1.305217, 109.372864, 159.894791, -553.558594, , 
1759229458.827164, -6.639869, 5.143044, -1.713500, 1.393841, -0.329469, -1.374285, 108.706421, 160.867722, -554.818359, , 
1759229458.847192, -5.851130, 5.336227, -1.827973, 1.729018, -0.144531, -1.299461, 107.901215, 161.807022, -554.875305, , 
1759229458.866748, -6.697779, 4.632631, -0.776021, 1.566254, 0.331898, -1.295321, 107.597748, 162.840042, -555.603271, , 
1759229458.886919, -6.800281, 6.425888, 0.114922, 1.338371, 0.745912, -1.081501, 106.770798, 163.542221, -556.741699, , 
1759229458.907178, -7.527220, 6.997952, 0.161908, 1.306186, 1.163205, -1.057890, 105.990448, 164.242630, -556.567871, , 
1759229458.927165, -8.370578, 8.067562, 0.883161, 0.838228, 1.272577, -0.901738, 104.998764, 164.747940, -557.143616, , 
1759229458.947173, -8.944588, 4.715081, -2.018162, 0.463297, 0.484088, -0.842893, 104.249329, 164.925476, -557.027405, , 
1759229458.967180, -8.211214, 3.821445, -1.367837, 0.322506, 0.248675, -0.796732, 103.780121, 165.405899, -557.208679, , 
1759229458.986934, -8.626757, 4.671836, -0.284910, 0.001485, 0.883477, -1.128022, 102.985153, 165.452667, -557.593567, , 
1759229459.007173, -7.120805, 7.011270, -0.535403, -0.208864, 1.196134, -0.871039, 102.247940, 165.581238, -556.980530, , 
1759229459.027155, -8.247576, 5.196315, -1.634791, -0.322935, 1.106973, -0.441537, 101.564789, 165.610092, -556.767395, , 
1759229459.047182, -7.755118, 3.617788, -1.817648, -0.977518, 1.313603, -0.271906, 100.787399, 165.196106, -556.118713, , 
1759229459.067169, -5.315726, 3.600580, -1.792210, -1.107677, 1.264609, 0.070890, 100.404404, 164.689941, -555.092773, , 
1759229459.086943, -4.838682, 6.000169, -0.749684, -1.321228, 1.155441, 0.813391, 100.226562, 164.278946, -555.359741, , 
1759229459.107168, -4.848408, 7.062895, 0.530016, -1.159448, 1.059420, 1.667092, 100.500961, 163.640137, -554.488953, , 
1759229459.127154, -5.510554, 8.394819, 0.615011, -0.629348, 0.399341, 2.352801, 101.256516, 163.181702, -553.677734, , 
1759229459.147176, -6.620716, 7.958326, -3.482516, -0.528633, 0.768459, 2.840433, 102.202316, 162.811966, -553.317993, , 
1759229459.167040, -12.885743, 10.428694, -4.603152, -0.079155, 1.150424, 1.874236, 103.035324, 162.142899, -552.735229, , 
1759229459.186958, -10.304345, 13.712940, -1.061380, -0.324764, 1.466108, 0.887227, 102.935287, 161.899612, -552.583618, , 
1759229459.207186, -10.617835, 12.914174, -1.812261, -0.069445, 0.234563, 0.292202, 102.819031, 161.777267, -552.395935, , 
1759229459.227154, -6.226271, 7.721151, -1.969680, -0.271520, -0.848229, 0.072857, 103.112228, 161.722412, -552.873596, , 
1759229459.247173, -4.776881, 7.611766, -2.685696, -0.483761, -0.651711, 0.243708, 103.829269, 161.569138, -552.510315, , 
1759229459.267172, -4.478504, 5.318120, -1.570297, -0.598030, 0.006699, 0.968866, 104.235123, 161.267151, -551.963257, , 
1759229459.286985, -8.366089, 6.161927, -2.123657, -0.714284, 0.451317, 2.016064, 105.047256, 160.647797, -551.179993, , 
1759229459.307156, -7.664139, 7.022193, 0.267702, -0.757433, -0.221645, 3.318991, 106.060516, 159.815796, -551.336304, , 
1759229459.327155, -7.007379, 8.168717, -1.245583, -0.328667, -0.572015, 3.878443, 107.369217, 158.934036, -551.489197, , 
1759229459.346834, -5.768230, 8.306982, -0.831686, 0.121711, -0.559010, 3.901715, 108.518784, 157.788956, -552.007935, , 
1759229459.367146, -5.116259, 7.836821, -1.045668, 0.553408, -0.847477, 2.531242, 109.444901, 156.964981, -552.218750, , 
1759229459.386983, -4.839879, 7.671172, -1.849072, 0.430276, -0.770134, 1.256370, 110.221085, 156.695923, -553.355408, , 
1759229459.407164, -2.305766, 7.979874, -1.543063, 0.035284, -0.288361, -0.513977, 110.905746, 157.124649, -552.882629, , 
1759229459.427154, -3.453486, 9.036465, -0.562188, 0.145365, -0.311588, -0.311437, 110.863113, 157.286163, -552.554993, , 
1759229459.447181, -3.620931, 8.432229, -0.839168, 0.035027, -0.265906, -0.202040, 110.699844, 157.354828, -553.327148, , 
1759229459.467167, -2.233042, 4.546439, 1.470339, 0.479174, -0.564005, 1.893041, 110.799805, 156.870285, -552.640320, , 
1759229459.487003, -2.003947, 6.070049, 1.376965, 0.299455, -1.345094, 1.523258, 112.632187, 156.517090, -553.834717, , 
1759229459.507180, -1.458817, 7.399430, -1.823185, -0.044085, -1.564971, 1.651881, 114.437546, 156.268707, -554.096619, , 
1759229459.527177, -1.063923, 5.497835, -2.274940, -0.220557, -0.027354, 2.328978, 114.969559, 155.014664, -553.838684, , 
1759229459.547176, -0.638055, 6.121375, 0.651522, -0.681685, -0.284761, 2.951247, 115.524384, 153.712524, -554.558350, , 
1759229459.567181, 2.568679, 5.293879, 0.305261, -1.614871, -0.618265, 3.836616, 116.626816, 151.371140, -554.277527, , 
1759229459.587016, 1.919402, 4.945972, 0.597353, -1.447308, -1.513548, 4.132382, 117.643875, 148.993973, -555.508911, , 
1759229459.607171, 0.827496, 3.926491, 2.143708, -1.017906, -2.324068, 3.509305, 118.922943, 146.729507, -556.398376, , 
1759229459.627170, 0.388459, 4.955997, 1.993173, -1.132377, -2.309304, 2.626451, 120.606461, 144.850800, -557.201721, , 
1759229459.646886, -0.411803, 5.760300, -0.124199, -0.441404, -1.756188, 2.323806, 121.702515, 143.556625, -556.910034, , 
1759229459.667166, -3.458574, 55.593961, -3.749021, 1.910324, 2.072811, 2.064263, 120.032578, 142.723373, -555.610352, , 
1759229459.687033, -7.387608, 15.654787, -0.359878, 0.319934, 1.034006, 2.818013, 119.976730, 141.865067, -556.988342, , 
1759229459.707175, -8.229769, 8.909573, -2.806753, 0.003484, 0.879798, 0.419932, 119.298553, 141.195038, -557.712280, , 
1759229459.727166, 4.567089, 9.993697, 1.798345, 0.178957, 0.414974, -1.580348, 119.692749, 141.862198, -555.999756, , 
1759229459.747164, 8.463503, 13.101969, 1.225233, -0.231320, -0.485830, -0.850147, 119.652771, 142.524765, -557.016418, , 
1759229459.767171, 4.310610, 8.871116, -1.054795, -0.049154, -0.037794, -0.839306, 120.244446, 142.737991, -555.724182, , 
1759229459.787045, 1.924190, 8.351873, -0.687734, -0.172649, 0.619901, 0.070752, 120.373581, 142.953568, -555.341492, , 
1759229459.807168, -0.262015, 8.681525, -0.279373, 0.045290, 1.079657, 0.605599, 119.564377, 142.404129, -555.744202, , 
1759229459.827165, -1.596035, 7.444172, 1.735796, 0.109821, 0.455566, 0.151421, 119.237915, 142.353210, -554.921265, , 
1759229459.846957, 0.069881, 10.016741, 1.846378, 0.079396, -0.762559, -0.137950, 119.512970, 142.752975, -555.700623, , 
1759229459.867176, 1.430236, 10.153660, 0.305859, -0.086831, -0.805341, -0.095423, 119.705338, 142.519867, -555.410767, , 
1759229459.887058, 1.667412, 9.708338, -0.423175, -0.161953, -0.583237, -0.061564, 119.890961, 142.585129, -555.996765, , 
1759229459.907173, 1.559972, 9.853038, -0.696563, -0.134234, -0.374583, -0.074872, 119.957993, 142.719193, -556.634033, , 
1759229459.927145, 1.272967, 9.823110, -0.489465, -0.042008, -0.274035, -0.063606, 120.086044, 142.533798, -556.454651, , 
1759229459.947173, 1.331326, 9.770887, -0.141258, 0.016274, -0.273093, -0.059278, 120.159058, 142.724808, -557.157349, , 
1759229459.967169, 1.133954, 9.775376, 0.133028, 0.028898, -0.305573, -0.025339, 120.337234, 142.655792, -555.964478, , 
1759229459.987075, 0.780959, 9.876531, 0.019453, 0.003481, -0.252446, 0.000766, 120.415543, 142.881454, -557.127441, , 
1759229460.007160, 0.550966, 9.725397, -0.050129, -0.012620, -0.143392, 0.016278, 120.668137, 142.800980, -557.318909, , 
1759229460.027164, 0.206201, 9.614815, -0.000299, -0.028994, -0.058622, 0.018791, 120.756042, 142.877731, -556.496704, , 
1759229460.047166, -0.021398, 9.583690, 0.139163, -0.034402, -0.115546, 0.001575, 120.687546, 142.727036, -557.216858, , 
1759229460.067160, 0.046986, 9.712977, 0.097863, -0.036530, -0.203094, -0.025713, 120.778839, 142.723740, -556.429443, , 
1759229460.087081, 0.194978, 9.851541, -0.086191, -0.057411, -0.136302, -0.044275, 120.415070, 142.745743, -556.839722, , 
1759229460.107187, 0.413149, 9.918878, -0.136619, -0.046316, 0.022462, -0.037832, 120.686218, 142.860275, -557.052124, , 
1759229460.127146, 0.467468, 9.853786, -0.080655, -0.001509, 0.106282, -0.015890, 120.860535, 142.606964, -556.403625, , 
1759229460.147145, 0.334290, 9.692776, 0.104297, 0.029188, 0.089638, 0.003586, 120.763596, 142.815506, -557.389404, , 
1759229460.167144, 0.358831, 9.630527, 0.185700, 0.025506, 0.106308, 0.020215, 120.707306, 142.915115, -557.263916, , 
1759229460.187104, 0.552013, 9.971401, 0.253486, -0.025776, 0.138962, 0.037767, 120.661957, 142.805817, -556.440918, , 
1759229460.207048, 0.488866, 9.892841, 0.202609, -0.041953, 0.184314, 0.016324, 120.508118, 142.605331, -556.755859, , 
1759229460.226359, 0.725892, 9.588628, 0.395193, -0.024141, 0.161028, 0.009729, 120.378448, 142.847565, -556.907898, , 
1759229460.247147, 0.857872, 9.620052, 0.285808, -0.007172, 0.050286, -0.002019, 120.520370, 142.698746, -557.286438, , 
1759229460.267150, 1.061380, 9.652673, 0.250942, -0.007568, -0.060305, -0.023819, 120.343018, 142.658447, -557.357666, , 
1759229460.287115, 1.332672, 9.756372, 0.197971, -0.026523, -0.057358, -0.023736, 120.421829, 142.779831, -556.137512, , 
1759229460.307144, 1.529446, 10.092308, 0.131831, -0.051441, 0.004195, -0.000880, 120.217133, 142.832092, -556.488403, , 
1759229460.326168, 1.382203, 10.146776, 0.164601, -0.014706, 0.023008, 0.012287, 120.161652, 142.777039, -556.581482, , 
1759229460.346995, 1.115249, 9.497648, 0.394145, 0.077523, 0.063181, 0.034190, 120.328705, 142.763260, -556.915466, , 
1759229460.367213, 0.938826, 9.124751, 0.505925, -0.074892, -0.143227, 0.013370, 120.711838, 142.734695, -556.786804, , 
1759229460.387134, 0.581342, 9.760412, -0.002095, -0.077173, -0.138773, 0.017139, 120.562576, 142.698273, -556.427002, , 
1759229460.407164, 0.471209, 9.884013, 0.227898, -0.044501, -0.037026, 0.040351, 120.807739, 142.520645, -556.484436, , 
1759229460.427167, 0.357484, 9.799916, 0.175375, -0.036126, 0.068202, 0.077414, 120.605118, 142.630859, -555.916870, , 
1759229460.447143, 0.141557, 9.924864, 0.178218, -0.016028, 0.171318, 0.104225, 120.397598, 142.417816, -556.460022, , 
1759229460.467164, 0.026336, 9.782558, 0.213682, -0.018305, 0.240771, 0.090342, 120.234985, 142.369812, -556.580139, , 
1759229460.486693, 0.073173, 9.610176, 0.187047, -0.014479, 0.257413, 0.055280, 120.295013, 142.454651, -556.183899, , 
1759229460.507171, 0.273687, 9.627534, 0.275632, -0.010358, 0.219883, 0.004360, 120.239502, 142.333221, -556.127075, , 
1759229460.527165, 0.789189, 9.888053, 0.488268, -0.017683, 0.099272, -0.045136, 120.227753, 142.300735, -555.844788, , 
1759229460.547155, 1.206079, 9.883414, 0.325761, -0.025778, 0.048346, -0.055917, 120.066223, 142.562424, -556.158142, , 
1759229460.567157, 1.307982, 10.112060, -0.351050, 0.031014, 0.233521, -0.015103, 119.954895, 142.594833, -556.369568, , 
1759229460.586701, 1.260697, 9.508871, 0.072874, 0.086442, 0.311008, 0.034226, 120.057556, 142.405029, -555.742065, , 
1759229460.607162, 1.291073, 9.483582, 0.380229, 0.042767, 0.221260, -0.013539, 119.998520, 142.727814, -555.892334, , 
1759229460.627159, 1.459266, 9.630078, 0.521038, 0.040469, 0.190381, 0.009723, 119.891006, 142.573105, -555.488464, , 
1759229460.647155, 1.267730, 9.641600, 0.522086, -0.028811, 0.095983, 0.015492, 119.963623, 142.489716, -555.795532, , 
1759229460.667157, 1.013944, 9.676914, 0.452205, -0.015544, 0.098168, 0.028809, 119.896103, 142.538620, -556.070068, , 
1759229460.686717, 0.908749, 9.830592, 0.300622, -0.035562, 0.033317, 0.022631, 119.858566, 142.361664, -555.677307, , 
1759229460.707156, 1.010802, 9.693674, 0.108936, -0.017144, 0.058567, -0.004890, 119.764023, 142.424255, -555.650391, , 
1759229460.727158, 1.063325, 9.687538, 0.014515, -0.004957, 0.090893, -0.012430, 119.694519, 142.363968, -554.844727, , 
1759229460.747154, 1.027861, 9.876980, 0.297779, -0.004719, 0.082120, 0.033059, 119.710678, 142.461746, -555.494263, , 
1759229460.767153, 0.781707, 9.946860, 0.304064, -0.002027, 0.010027, 0.048574, 119.732422, 142.336655, -555.633911, , 
1759229460.786735, 0.842160, 9.889849, 0.270694, -0.000988, -0.007750, 0.021028, 119.668243, 142.285629, -555.327393, , 
1759229460.807153, 1.127669, 9.592070, 0.315885, -0.019295, -0.015465, -0.003683, 119.609039, 142.366638, -555.438721, , 
1759229460.827156, 1.148918, 10.139893, 0.145448, -0.010266, 0.020101, 0.030240, 119.800247, 142.101883, -554.932312, , 
1759229460.847077, 1.029806, 9.913192, 0.324265, -0.017699, -0.053095, 0.051401, 119.683380, 142.329941, -555.355103, , 
1759229460.867154, 0.963666, 9.744101, 0.787094, -0.186659, -0.377457, 0.031529, 119.819489, 142.201721, -555.619873, , 
1759229460.886744, 0.848146, 9.355642, -0.091129, -0.046526, -0.333263, -0.047157, 119.885559, 142.157410, -555.627197, , 
1759229460.907131, 1.492186, 9.580996, 0.146196, 0.015531, -0.128588, -0.004967, 119.930893, 142.252167, -556.387573, , 
1759229460.927163, 1.294665, 9.565434, 0.093823, -0.010171, -0.105694, 0.001349, 120.129150, 142.023651, -555.295959, , 
1759229460.947144, 0.859219, 9.894038, -0.002544, 0.021873, -0.083923, 0.007662, 119.999252, 142.317047, -555.993896, , 
1759229460.967167, 0.866252, 9.856479, 0.083647, 0.011392, -0.173339, 0.009952, 120.057602, 142.288635, -556.347595, , 
1759229460.986769, 0.952892, 9.683049, 0.022446, -0.001164, -0.198115, -0.006579, 120.215195, 142.283295, -555.970154, , 
1759229461.007155, 1.015441, 9.795278, 0.087837, -0.013536, -0.185742, -0.003121, 120.251495, 142.407120, -556.655823, , 
1759229461.027133, 1.019930, 9.787496, 0.128090, -0.042720, -0.133116, 0.011423, 120.292465, 142.111435, -556.020447, , 
1759229461.047171, 1.071256, 9.638906, 0.090680, -0.075341, -0.102258, 0.019463, 120.397171, 142.238373, -556.625366, , 
1759229461.067149, 1.107767, 9.632921, -0.095618, -0.089872, -0.130194, 0.031537, 120.446838, 142.212692, -556.876221, , 
1759229461.086786, 1.106271, 9.502886, -0.385766, -0.093777, -0.145696, 0.032801, 120.347778, 142.072433, -556.571899, , 
1759229461.107153, 1.016339, 9.370157, -0.574159, -0.084053, -0.162828, 0.020675, 120.468307, 142.225311, -556.743591, , 
1759229461.127155, 0.922516, 9.892243, -0.599897, -0.083144, -0.151028, -0.003219, 120.453415, 141.962585, -556.179199, , 
1759229461.147151, 0.801609, 10.205135, -0.359579, -0.097832, -0.131372, -0.018735, 120.525070, 141.988739, -556.859070, , 
1759229461.167153, 0.660051, 9.754127, -0.064643, -0.102095, -0.134627, -0.028754, 120.723557, 142.007095, -557.630554, , 
1759229461.186799, 0.667533, 9.382727, 0.168342, -0.136563, -0.154940, -0.041958, 120.817932, 141.765503, -556.851501, , 
1759229461.207151, 0.758363, 9.266458, 0.133926, -0.177258, -0.171685, -0.062822, 120.612213, 142.022598, -557.136292, , 
1759229461.227152, 0.831087, 9.651925, -0.219518, -0.231061, -0.069353, -0.078258, 120.808762, 141.670731, -556.625183, , 
1759229461.247150, 0.794875, 9.533561, -0.234332, -0.283079, 0.014617, -0.090534, 120.759369, 141.573914, -557.208923, , 
1759229461.267166, 0.767791, 9.446472, 0.040253, -0.276646, -0.042457, -0.094508, 120.717834, 141.721436, -557.443909, , 
1759229461.286820, 1.117943, 9.564836, 0.139612, -0.219991, -0.128613, -0.081507, 120.595840, 141.528412, -556.931824, , 
1759229461.307139, 1.249175, 9.418789, 0.005686, -0.235388, -0.002207, -0.071024, 120.690567, 141.613724, -557.312866, , 
1759229461.327133, 1.018284, 9.337985, 0.081702, -0.240286, 0.098685, -0.053500, 120.635498, 141.221237, -556.568054, , 
1759229461.347141, 0.355090, 9.370157, 0.547524, -0.184654, 0.022566, -0.034226, 120.843964, 141.128204, -557.331726, , 
1759229461.367137, -0.159214, 9.650428, 1.118092, -0.130050, -0.020356, -0.038939, 120.833130, 141.229492, -556.693542, , 
1759229461.386831, -0.528670, 10.397868, 1.638083, -0.131026, 0.002405, -0.039713, 120.940720, 141.155792, -556.691223, , 
1759229461.407126, -0.854730, 10.706271, 1.807173, -0.130920, 0.004290, -0.029695, 120.592102, 140.993759, -557.343750, , 
1759229461.427131, -0.786795, 10.317214, 1.655740, -0.095491, -0.111266, -0.024166, 120.765289, 140.848618, -556.369019, , 
1759229461.447163, -0.707786, 10.102633, 1.445350, -0.085726, -0.185887, -0.035701, 120.822571, 140.962524, -556.899292, , 
1759229461.467197, -0.224756, 10.044723, 0.660351, -0.051019, -0.287094, -0.014181, 120.913879, 140.884155, -557.304688, , 
1759229461.486847, -0.030077, 9.962872, 0.666336, -0.036214, -0.089130, -0.011064, 121.040939, 140.643005, -556.948669, , 
1759229461.507147, 0.535703, 9.950003, 0.762254, 0.017357, -0.187472, 0.010676, 120.860703, 141.053696, -557.524597, , 
1759229461.527146, 0.860117, 9.929951, 1.024269, -0.029862, -0.164779, 0.009621, 121.130264, 140.870758, -557.099487, , 
1759229461.547162, 0.873884, 9.741258, 1.282843, -0.066456, -0.204288, 0.026218, 121.092621, 140.612183, -557.715332, , 
1759229461.566392, 0.712724, 9.431359, 1.148618, -0.107067, -0.165207, 0.023168, 120.921768, 140.718842, -557.716431, , 
1759229461.586872, 0.701651, 9.512762, 1.107917, -0.127262, -0.095152, 0.051726, 121.302444, 140.521637, -557.374939, , 
1759229461.607146, 0.656759, 9.631574, 1.214309, -0.159762, -0.075919, 0.107445, 121.355438, 140.480743, -558.083923, , 
1759229461.627147, 0.575207, 9.562142, 1.064223, -0.241975, -0.216871, 0.135512, 121.590668, 140.311508, -557.393921, , 
1759229461.647166, 0.618602, 9.621848, 0.510115, -0.288725, -0.242821, 0.151287, 121.525406, 140.064224, -557.629761, , 
1759229461.667218, 0.791583, 9.696517, 0.076166, -0.242004, -0.216441, 0.182088, 121.701385, 140.089600, -558.513916, , 
1759229461.686879, 0.854580, 9.764602, 0.028581, -0.197381, -0.290001, 0.218145, 121.531998, 139.945618, -557.979004, , 
1759229461.707144, 0.676961, 9.693973, 0.162207, -0.150615, -0.342898, 0.280969, 121.810745, 139.794342, -558.688232, , 
1759229461.727126, 0.111031, 9.915437, 0.465523, -0.129384, -0.199247, 0.327333, 121.944656, 139.109955, -557.840271, , 
1759229461.747143, -0.120758, 9.728689, 0.621295, -0.141272, -0.131413, 0.347505, 122.047379, 139.094025, -558.750427, , 
1759229461.767141, -0.267552, 9.778219, 0.718709, -0.098201, -0.218883, 0.325752, 122.018524, 139.016098, -559.088867, , 
1759229461.786902, -0.342371, 9.854384, 0.802207, -0.041982, -0.328903, 0.290717, 122.014435, 138.580963, -558.072449, , 
1759229461.807127, -0.348656, 10.220997, 0.616806, 0.005285, -0.426068, 0.234155, 122.226303, 138.631424, -559.380981, , 
1759229461.827147, -0.326360, 10.686519, 0.176722, 0.062622, -0.321477, 0.189864, 122.391754, 138.342621, -558.403564, , 
1759229461.847144, -0.322170, 10.480767, 0.155025, 0.105065, -0.074190, 0.150946, 122.354752, 138.414505, -559.061340, , 
1759229461.867142, -0.386364, 10.794258, 0.597054, 0.238194, 0.047612, 0.115311, 122.220688, 138.194473, -558.791931, , 
1759229461.886905, -0.536600, 10.891672, 1.388487, 0.346452, 0.075406, 0.017295, 121.988297, 138.383423, -558.743347, , 
1759229461.907145, -0.531662, 10.360608, 1.271620, 0.391846, 0.032318, -0.078508, 122.098618, 138.513947, -559.607300, , 
1759229461.927147, 0.201412, 10.582371, 0.153977, 0.416109, 0.049738, -0.154245, 122.034592, 138.667862, -558.502075, , 
1759229461.947144, 1.949628, 10.703727, -0.397886, 0.526270, 0.125766, -0.166457, 121.969177, 139.108170, -558.780518, , 
1759229461.967161, 2.686743, 10.929082, -0.341473, 0.705087, -0.067452, -0.015543, 121.933777, 139.126709, -559.065735, , 
1759229461.986935, 2.528726, 10.824485, -0.557849, 0.879151, -0.186583, 0.037613, 122.021469, 139.410599, -559.133423, , 
1759229462.007149, 2.007388, 10.213814, -0.951546, 1.160607, -0.500883, 0.072489, 122.412933, 139.717606, -559.789246, , 
1759229462.027156, 0.357335, 8.547898, -1.249923, 1.391435, -0.641438, -0.145059, 122.430634, 139.992065, -559.660034, , 
1759229462.047158, -0.027982, 8.443302, -2.175431, 1.698849, -1.064717, -0.472512, 122.880432, 140.805374, -560.385620, , 
1759229462.067153, -0.094421, 9.355343, -2.519598, 1.863028, -1.420723, -0.853779, 123.223663, 141.998642, -561.335876, , 
1759229462.086950, 0.330849, 10.484808, 0.202609, 1.444126, -1.348543, -0.983326, 123.419830, 142.799866, -562.132202, , 
1759229462.107158, -0.604686, 11.904120, 2.600851, 0.736104, -0.751729, -1.153138, 123.639206, 143.603195, -562.858826, , 
1759229462.127154, -0.406266, 12.029816, 2.707842, 0.189079, -0.925097, -1.198479, 123.597641, 144.242569, -562.952026, , 
1759229462.147150, 0.456245, 11.831845, 0.314688, 0.142638, -0.857596, -1.082799, 123.616669, 144.963623, -563.768677, , 
1759229462.167154, 1.671452, 11.584345, -0.792780, 0.251166, -0.033110, -0.887449, 123.501083, 145.688934, -564.060242, , 
1759229462.186966, 2.244115, 9.458144, -1.178546, 0.346437, 0.726221, -0.699446, 123.372437, 146.096344, -563.285583, , 
1759229462.207142, 1.906982, 8.179790, -1.487697, 0.249310, 1.056881, -0.655737, 123.348465, 146.508560, -563.397766, , 
1759229462.227126, 1.794903, 8.130260, -1.132906, 0.058175, 0.909245, -0.489026, 122.916641, 146.924759, -561.944641, , 
1759229462.247157, 2.041955, 7.911939, -0.972944, -0.027682, 0.707327, -0.242105, 122.522232, 147.113983, -562.104858, , 
1759229462.267153, 2.321179, 7.634361, -0.873435, -0.114150, 0.416914, -0.062815, 122.578461, 147.190384, -562.209717, , 
1759229462.286982, 2.466776, 7.285406, -0.502782, -0.271107, 0.078720, 0.014451, 122.685074, 146.924896, -562.015930, , 
1759229462.307151, 2.752584, 7.267450, -0.015113, -0.343957, -0.112461, 0.203105, 122.647842, 146.738281, -562.634155, , 
1759229462.327152, 2.777424, 7.440131, 0.712574, -0.370182, -0.189410, 0.461750, 122.636169, 146.354843, -561.955444, , 
1759229462.347022, 2.800917, 7.640047, 1.644517, -0.677824, -0.459809, 0.712359, 122.942215, 145.697174, -562.151306, , 
1759229462.367148, 2.931251, 7.970297, 0.973991, -0.917157, -0.498857, 0.963107, 123.085068, 144.927048, -562.066589, , 
1759229462.386999, 3.101239, 9.072827, -0.001347, -0.829992, -0.086372, 1.175736, 123.241653, 144.274139, -562.633972, , 
1759229462.407152, 3.085527, 10.811467, -0.574608, -0.639431, 0.337359, 1.348826, 123.317154, 143.139511, -562.333923, , 
1759229462.427151, 1.096095, 13.431322, -2.691532, -0.709380, 1.721636, 1.194925, 122.924789, 142.327682, -560.967529, , 
1759229462.447149, 0.423624, 15.595830, -5.467758, -0.593808, 2.923447, 1.061473, 122.371338, 141.481003, -559.494080, , 
1759229462.467153, -7.411999, 12.294226, -4.919635, -0.007921, -0.394346, -0.290853, 122.688339, 141.421341, -559.295288, , 
1759229462.487014, -3.770419, 9.943419, -0.356886, -0.276325, -3.961018, -0.878145, 123.864075, 141.926407, -561.578247, , 
1759229462.507144, -2.080561, 8.083124, -1.691803, 0.428564, -3.724042, -0.588230, 124.465485, 142.223709, -563.911011, , 
1759229462.527150, 1.720683, 7.882610, -0.330101, 0.876372, -0.893865, -0.157927, 124.627441, 142.431961, -564.328491, , 
1759229462.547152, 4.053832, 9.605387, 2.058265, 0.233371, 0.847675, -0.121526, 124.368439, 142.731033, -564.180420, , 
1759229462.567149, 4.933552, 9.071929, -0.539444, -0.450586, 1.974195, 0.346733, 124.301529, 142.598816, -563.370850, , 
1759229462.587030, 3.616142, 8.615984, -0.640898, -0.580375, 2.769287, 0.624660, 123.545609, 141.982941, -561.769897, , 
1759229462.607141, 0.885106, 9.441085, -0.906505, -0.554246, 1.952992, 0.692366, 123.272995, 141.413528, -560.690735, , 
1759229462.627138, -1.599027, 10.378565, -2.020856, 0.132158, -0.177705, 0.252433, 123.146439, 141.155914, -559.593933, , 
1759229462.647141, -2.253093, 10.364798, 1.353771, 0.368221, -1.050775, -0.237252, 123.569550, 141.345535, -560.474121, , 
1759229462.667122, -0.559645, 10.783484, 1.130362, -0.171900, -0.207405, -0.145922, 123.702332, 141.400787, -560.864868, , 
1759229462.687039, 1.432331, 9.926959, -0.718709, -0.199259, -0.004129, -0.221127, 123.354980, 141.557800, -561.419800, , 
1759229462.707140, 2.845658, 9.688287, -1.692701, -0.169126, 0.382461, -0.196323, 123.332672, 141.666260, -560.942627, , 
1759229462.727138, 3.175460, 9.474604, -1.456273, -0.008391, 0.370961, 0.000891, 123.332138, 141.469986, -560.033691, , 
1759229462.747142, 2.134281, 9.562441, -1.456124, 0.103230, 0.164494, 0.097842, 123.228729, 141.450821, -559.937012, , 
1759229462.767139, 0.843956, 9.728390, 0.067187, 0.064837, 0.059836, 0.094504, 123.170181, 141.442200, -560.253479, , 
1759229462.787055, 1.067066, 9.968259, 0.971148, -0.031712, 0.159655, 0.017581, 123.168304, 141.418625, -560.564941, , 
1759229462.807140, 1.616685, 9.658808, 0.356287, -0.020946, -0.020929, 0.027113, 123.050293, 141.453079, -560.448120, , 
1759229462.826201, 1.762282, 9.483882, -0.699406, -0.111684, -0.025091, 0.062749, 122.978867, 141.322495, -559.957886, , 
1759229462.846874, 1.333720, 9.658808, -1.113753, -0.125953, -0.038756, 0.090263, 123.259537, 141.172119, -560.016846, , 
1759229462.867135, 0.809988, 9.917531, -0.628328, -0.123890, -0.065631, 0.063119, 123.291412, 141.098511, -559.542542, , 
1759229462.887073, 0.451307, 9.921123, -0.062399, -0.107748, -0.093617, 0.013351, 123.233597, 141.082809, -560.568054, , 
1759229462.907139, 0.166846, 9.916334, -0.216825, -0.043325, -0.040225, 0.004759, 122.998962, 141.287369, -560.704590, , 
1759229462.927140, 0.285957, 9.759813, -0.505326, -0.012894, -0.008509, 0.004771, 123.081207, 141.118988, -560.204163, , 
1759229462.947137, 0.658106, 9.482236, -0.527772, -0.042809, -0.005373, 0.002207, 122.991882, 141.243088, -560.541687, , 
1759229462.967158, 0.851588, 9.789891, -0.492906, -0.055245, 0.087389, 0.016676, 123.163055, 141.016342, -560.540405, , 
1759229462.987086, 0.717812, 9.896133, -0.455497, -0.039557, 0.177343, 0.032554, 122.986038, 141.066864, -560.413696, , 
1759229463.007131, 0.441581, 9.832537, -0.509965, -0.018177, 0.176410, 0.035526, 122.795441, 141.046494, -560.186951, , 
1759229463.027133, 0.353294, 9.561693, -0.543783, -0.032770, 0.150038, 0.011780, 122.952652, 140.924759, -559.761902, , 
1759229463.047151, 0.511312, 9.614366, -0.386664, -0.042096, 0.171253, -0.010571, 122.787018, 140.943375, -559.689392, , 
1759229463.066332, 0.845004, 9.720608, -0.021398, -0.053538, 0.168490, -0.022432, 122.873932, 140.910706, -559.948608, , 
1759229463.087103, 1.147720, 9.800964, 0.090381, -0.076795, 0.092393, -0.030173, 122.714874, 140.902618, -559.995972, , 
1759229463.107131, 1.409137, 9.857976, -0.092626, -0.102570, 0.023823, -0.041226, 122.907700, 140.938095, -560.022888, , 
1759229463.127139, 1.601571, 9.991153, -0.387412, -0.119283, -0.015313, -0.045823, 122.728561, 140.911987, -559.196594, , 
1759229463.147164, 1.802535, 9.690980, -0.366014, -0.114602, -0.020009, -0.023320, 122.722076, 140.744705, -559.836792, , 
1759229463.167178, 1.760337, 9.550470, -0.408810, -0.121321, -0.028132, 0.012424, 122.831161, 140.713730, -559.835083, , 
1759229463.186615, 1.504008, 9.698911, -0.362422, -0.107019, -0.020925, 0.045917, 122.781570, 140.811295, -559.992554, , 
1759229463.207129, 1.313519, 9.775825, -0.382025, -0.093531, -0.047890, 0.053267, 122.543152, 140.759018, -560.174316, , 
1759229463.227130, 1.003470, 9.549722, -0.400580, -0.096974, -0.133236, 0.043339, 122.746765, 140.637955, -559.842712, , 
1759229463.247132, 0.676661, 9.750835, -0.290746, -0.093465, -0.167681, 0.009924, 122.810989, 140.704269, -559.949463, , 
1759229463.267129, 0.593912, 9.901670, -0.152481, -0.093467, -0.198282, -0.012002, 122.904236, 140.619507, -559.825562, , 
1759229463.286640, 0.588525, 9.763854, 0.021548, -0.115843, -0.190762, -0.023028, 122.877838, 140.655563, -560.441284, , 
1759229463.307120, 0.723947, 9.715072, 0.057162, -0.144466, -0.165869, -0.023847, 122.992905, 140.447220, -560.600342, , 
1759229463.327116, 0.753126, 9.828198, -0.064494, -0.128084, -0.144794, -0.011603, 123.081818, 140.422653, -560.110840, , 
1759229463.346827, 0.681599, 9.889400, -0.266205, -0.116485, -0.103245, 0.000607, 123.063354, 140.240173, -560.180603, , 
1759229463.367116, 0.483928, 9.851092, -0.233435, -0.098759, -0.060672, -0.000183, 123.175812, 140.303162, -559.985962, , 
1759229463.386646, 0.433650, 9.762357, -0.127342, -0.084214, -0.042399, -0.005739, 123.237457, 140.256546, -560.689941, , 
1759229463.407156, 0.388459, 9.642797, 0.006285, -0.046156, 0.048315, 0.000627, 123.025131, 140.282516, -561.032166, , 
1759229463.427137, 0.398934, 9.813234, 0.027533, -0.035455, 0.103715, 0.005647, 123.175766, 140.122009, -560.169006, , 
1759229463.447140, 0.448015, 9.835530, -0.042497, -0.022920, 0.196634, 0.014091, 123.183975, 140.184982, -560.264954, , 
1759229463.467131, 0.463428, 9.774927, 0.005836, -0.017016, 0.219871, 0.000956, 123.034561, 139.813080, -559.792908, , 
1759229463.486671, 0.569221, 10.043676, 0.027683, -0.014998, 0.162861, -0.030926, 123.222672, 140.176346, -560.201477, , 
1759229463.507137, 0.815375, 9.790190, -0.167295, 0.030167, 0.164115, -0.042299, 123.029724, 140.103928, -560.215942, , 
1759229463.527062, 1.035941, 9.417443, -0.203058, 0.050644, 0.186179, -0.037727, 122.909973, 140.032211, -559.858887, , 
1759229463.547132, 1.149965, 9.422680, -0.144999, 0.033682, 0.197841, -0.036113, 122.835129, 140.222427, -559.587952, , 
1759229463.567140, 1.218499, 9.622446, -0.054618, -0.016877, 0.198518, -0.025894, 122.837570, 139.996704, -559.303772, , 
1759229463.586686, 1.180641, 9.673921, 0.101903, -0.047002, 0.178302, -0.012378, 122.756119, 140.107849, -559.622314, , 
1759229463.607132, 1.118092, 9.519795, 0.181211, -0.074759, 0.110891, 0.005278, 122.758743, 140.012665, -559.784668, , 
1759229463.627129, 0.943016, 9.356241, 0.088885, -0.113087, 0.119253, 0.006889, 122.787766, 140.138367, -559.496521, , 
1759229463.647126, 0.574908, 9.496451, -0.137517, -0.131637, 0.235181, -0.009278, 122.418015, 139.944016, -559.053833, , 
1759229463.667125, 0.577152, 9.972748, -0.187197, -0.099498, 0.257966, -0.028399, 122.507278, 139.747391, -558.606079, , 
1759229463.686695, 0.598850, 10.247482, -0.147393, -0.085161, 0.114754, -0.055802, 122.251709, 139.888550, -559.091492, , 
1759229463.707131, 0.512658, 9.999383, 0.000150, -0.081994, -0.017026, -0.072633, 122.350540, 139.947769, -559.723694, , 
1759229463.727128, 0.572813, 9.618855, 0.084246, -0.074713, -0.027454, -0.099099, 122.489136, 139.887009, -558.955383, , 
1759229463.747132, 0.687585, 9.649381, -0.031723, -0.096222, 0.057682, -0.091199, 122.437210, 139.929459, -559.181763, , 
1759229463.767125, 0.755071, 9.728539, 0.060304, -0.128146, 0.159274, -0.076435, 122.413635, 139.740952, -558.136230, , 
1759229463.786717, 1.044919, 9.798121, 0.175375, -0.143125, 0.161103, -0.068597, 122.303986, 139.814133, -558.644775, , 
1759229463.807129, 1.184980, 9.659706, 0.056413, -0.162057, 0.102946, -0.053065, 122.000565, 139.996536, -558.705933, , 
1759229463.826993, 1.004667, 9.563639, -0.092027, -0.140243, 0.051163, -0.005051, 122.264267, 139.803543, -558.276855, , 
1759229463.846660, 0.559645, 9.401132, 0.027982, -0.089509, 0.061834, 0.010425, 122.181519, 139.897339, -558.624512, , 
1759229463.867139, 0.253785, 9.700407, 0.467618, -0.079880, 0.137116, 0.006262, 122.414474, 139.626862, -558.026123, , 
1759229463.886735, 0.135871, 9.753678, 0.949750, -0.097280, 0.184220, 0.026087, 122.420547, 139.840164, -558.473938, , 
1759229463.907134, 0.025738, 9.827749, 0.878672, -0.108092, 0.207765, 0.049491, 122.051743, 139.547318, -558.758484, , 
1759229463.927133, -0.158765, 9.871443, 0.700603, -0.122694, 0.251408, 0.047874, 121.842896, 139.341705, -558.099304, , 
1759229463.947127, -0.126593, 9.919327, 0.625934, -0.112554, 0.226133, 0.031609, 122.038406, 139.424896, -558.541077, , 
1759229463.967128, 0.036512, 10.225785, 0.621595, -0.062055, 0.087180, 0.011264, 122.226822, 139.141968, -557.234070, , 
1759229463.986750, 0.296881, 10.215011, 0.205004, -0.031526, -0.050345, -0.002113, 122.198532, 139.264496, -557.979736, , 
1759229464.007134, 0.664840, 10.036344, -0.146645, 0.005357, -0.093980, -0.030419, 122.144852, 139.343628, -558.488403, , 
1759229464.027135, 0.700304, 9.914239, 0.097115, 0.077501, -0.132131, -0.013656, 122.412598, 139.327026, -557.913391, , 
1759229464.047129, 0.347010, 9.897480, 0.249895, 0.130585, -0.108777, -0.010771, 122.240067, 139.250412, -558.429199, , 
1759229464.067135, 0.025887, 9.697863, 0.347758, 0.108619, 0.025316, -0.034813, 122.466354, 139.355667, -557.731567, , 
1759229464.086766, -0.108038, 9.704448, 0.360477, 0.085943, 0.086229, -0.043876, 122.476868, 139.428329, -558.349426, , 
1759229464.107134, -0.224307, 9.631275, 0.544232, 0.083740, 0.092769, -0.030137, 122.725616, 139.508408, -558.506653, , 
1759229464.127136, -0.315137, 9.426570, 0.645686, -0.025056, 0.193271, 0.005059, 122.512146, 139.429962, -558.192078, , 
1759229464.147128, -0.330101, 9.590424, 0.343418, -0.127659, 0.314324, 0.037144, 122.457443, 139.477768, -558.380859, , 
1759229464.167155, -0.389507, 9.612570, 0.158466, -0.146460, 0.319874, 0.034248, 122.517242, 139.234802, -557.236389, , 
1759229464.186778, -0.083498, 9.401282, 0.004040, -0.123252, 0.215377, -0.011657, 122.529800, 139.269547, -557.740479, , 
1759229464.207137, 0.188094, 9.281871, -0.322319, -0.075746, 0.153687, -0.048470, 122.520233, 139.364639, -557.945374, , 
1759229464.227130, 0.180762, 9.586383, -0.484527, 0.036580, 0.226613, -0.054671, 122.518661, 139.295990, -557.330872, , 
1759229464.247140, 0.141108, 9.537602, -0.101305, 0.160738, 0.189990, -0.056090, 122.467682, 139.587372, -557.707031, , 
1759229464.267129, 0.197671, 9.010428, -0.184802, 0.193012, 0.110360, -0.012289, 122.424393, 139.400253, -556.813416, , 
1759229464.286799, 0.359729, 8.606407, -1.817349, 0.250596, 0.014900, 0.024851, 122.736984, 139.610046, -557.205811, , 
1759229464.307131, 0.460136, 8.985888, -1.093701, 0.405712, 0.057611, 0.116213, 122.647614, 139.538391, -557.429016, , 
1759229464.327134, -0.051625, 8.864681, 0.015113, 0.334855, 0.232862, 0.171003, 122.722748, 139.534348, -556.761169, , 
1759229464.346270, -0.676512, 8.169914, -0.100556, 0.319718, 0.164789, 0.141215, 122.744415, 139.656982, -557.325012, , 
1759229464.367131, -1.064372, 7.438635, -0.641197, 0.442208, -0.044362, 0.034767, 123.010468, 139.685272, -556.520203, , 
1759229464.386815, -1.174805, 6.808661, -1.109114, 0.657318, -0.253369, -0.104939, 123.188950, 139.964264, -557.161560, , 
1759229464.407129, -1.162535, 6.721871, -2.331803, 0.866769, -0.663026, -0.296990, 123.349960, 140.570297, -557.832886, , 
1759229464.427132, -0.228796, 6.824821, -3.600580, 1.176287, -0.709857, -0.334822, 123.699539, 140.924469, -557.642334, , 
1759229464.447131, 1.378462, 6.979547, -1.339705, 1.135820, 0.103629, -0.085213, 123.787994, 141.421494, -557.867554, , 
1759229464.467108, 0.986261, 7.259219, 0.974141, 0.820801, 0.433001, 0.153942, 123.838959, 141.615967, -557.023682, , 
1759229464.486830, -0.077512, 7.533655, 1.645565, 0.615472, 0.607121, 0.247023, 123.876999, 141.819168, -557.306335, , 
1759229464.507128, -2.239476, 7.083246, 1.775450, 0.483702, -0.042027, 0.117121, 123.991455, 141.894424, -557.493164, , 
1759229464.527130, -3.483414, 7.782652, 0.552612, 0.356197, -1.784972, -0.195413, 124.544525, 142.119247, -557.675964, , 
1759229464.547125, -2.851494, 8.795100, -2.919430, 0.136686, -1.933658, -0.176194, 125.253967, 142.411118, -559.245422, , 
1759229464.567134, -3.709516, 8.227225, -5.532701, 0.721827, -0.926338, -0.087471, 126.119049, 142.616623, -559.011719, , 
1759229464.586846, -3.390190, 12.896667, -5.276521, 1.296335, 0.178540, -0.411588, 126.124466, 143.140823, -559.705872, , 
1759229464.607122, -2.963273, 15.304186, -3.469049, 1.524074, 0.246611, -1.069314, 125.632202, 144.324112, -559.704956, , 
1759229464.627118, -2.617760, 17.241993, -4.130447, 1.762527, 0.052101, -1.774985, 125.669724, 145.573196, -559.396973, , 
1759229464.647159, -0.325462, 23.309199, 0.072125, 1.188143, 0.409402, -2.329645, 125.262772, 147.524902, -559.711060, , 
1759229464.666971, 4.299986, 31.153053, 5.955277, -0.061511, -1.266545, -2.234230, 124.560242, 148.964203, -558.823792, , 
1759229464.686867, 3.635595, 17.639131, -7.205500, -0.195560, -0.158876, -2.120381, 124.430573, 150.514755, -560.478882, , 
1759229464.707119, 1.770512, 11.374104, -4.179827, -0.079249, 1.230402, -1.469772, 124.105118, 151.744217, -559.701233, , 
1759229464.727112, -1.405396, 8.308478, -2.216432, 0.227553, 1.346795, -0.872689, 122.701065, 152.687515, -558.537048, , 
1759229464.747102, 0.027533, 5.657050, -1.571943, 0.496497, 0.389575, -0.541370, 122.055161, 153.297638, -559.239563, , 
1759229464.767102, 1.722628, 5.366154, -3.838354, 0.394902, 0.408536, -0.629230, 121.375671, 153.943695, -559.429871, , 
1759229464.786871, 2.413355, 6.216994, -5.162497, 0.443325, 1.024731, -0.905740, 121.280319, 154.283401, -558.787781, , 
1759229464.807141, 1.326837, 7.105691, -2.945467, 0.381595, 1.460360, -0.681652, 120.672821, 155.139664, -557.422607, , 
1759229464.826133, -0.055665, 8.301745, -1.590348, 0.440778, 1.572751, -0.381604, 120.301971, 155.338898, -556.681396, , 
1759229464.846122, -0.269946, 8.305336, 0.371251, 0.627281, 1.065947, -0.122774, 119.786957, 155.762131, -556.763855, , 
1759229464.867098, -0.193182, 7.279570, 0.254683, 0.678835, 0.351827, 0.060327, 119.291489, 155.965652, -556.503723, , 
1759229464.886885, 0.664690, 6.203825, -0.836025, 0.361224, -0.260705, 0.085538, 119.018997, 156.214157, -556.302490, , 
1759229464.907103, 1.057788, 5.636549, -2.041655, -0.113392, -0.616555, 0.026344, 119.417160, 156.232254, -556.949646, , 
1759229464.927102, 0.677858, 6.342240, -2.489371, -0.518760, -0.763846, 0.031516, 119.643341, 155.928055, -556.684692, , 
1759229464.947100, 0.231190, 7.332691, -2.505532, -0.716368, -0.605114, 0.141341, 120.033264, 155.837646, -556.773254, , 
1759229464.967104, -0.481235, 7.883508, -1.873313, -0.762289, -0.264148, 0.339855, 120.513092, 155.340805, -556.970154, , 
1759229464.986903, -0.713173, 7.316231, -1.300949, -0.750601, -0.219189, 0.664367, 120.925079, 154.887451, -556.299438, , 
1759229465.007163, -0.603788, 6.238092, -1.077989, -0.750108, -0.503918, 1.053115, 121.176743, 154.250061, -556.667603, , 
1759229465.026188, -0.439486, 5.749975, -0.776769, -0.819396, -0.906906, 1.380425, 121.446304, 153.609161, -556.494629, , 
1759229465.047110, -0.152331, 5.899612, -0.517746, -0.952918, -1.052559, 1.592642, 122.736572, 151.797897, -557.220398, , 
1759229465.067099, 0.101005, 7.766641, -1.121384, -0.868393, -0.736688, 1.867997, 123.273941, 150.675766, -557.685669, , 
1759229465.086921, -1.605462, 9.475203, -2.623446, -0.413504, 0.334903, 1.699764, 123.648514, 149.429504, -556.827087, , 
1759229465.107122, -2.819771, 9.129390, -2.889053, -0.766121, 1.130139, 1.168236, 123.736435, 148.637863, -556.093628, , 
1759229465.126176, -3.553893, 8.080880, -2.772486, -1.205684, 0.815472, 0.623838, 123.461288, 148.168869, -555.486267, , 
1759229465.147110, -4.342633, 7.524377, -2.650531, -0.990894, -0.316756, 0.195514, 123.907761, 147.252396, -555.133057, , 
1759229465.167113, -4.810699, 7.707534, -3.065027, -0.382338, -1.158713, 0.008118, 124.217712, 147.176849, -555.853882, , 
1759229465.186935, -3.382408, 8.451681, -2.204012, -0.119599, -1.760363, -0.169473, 124.518280, 147.174728, -556.236633, , 
1759229465.206115, -2.076521, 8.708609, -2.351106, -0.204282, -1.843649, -0.288071, 124.748871, 147.356888, -557.102478, , 
1759229465.227111, 1.699734, 8.510040, -3.756802, -0.550541, -0.577179, -0.132155, 125.121857, 147.134018, -557.350098, , 
1759229465.247168, 1.596484, 7.852533, -3.107524, -0.492019, 0.194274, 0.239590, 125.141006, 146.835190, -557.833252, , 
1759229465.267108, -0.113575, 9.688885, -2.991256, -0.645937, 0.755525, 0.408611, 124.668213, 146.596436, -557.076843, , 
1759229465.286952, -1.673846, 16.055217, -1.530194, -0.301237, 0.293384, 0.240341, 124.617188, 146.174088, -556.065796, , 
1759229465.306136, -1.442357, 17.050307, 0.529418, -0.005363, -0.154248, 0.131135, 124.467697, 146.090286, -556.366577, , 
1759229465.327097, 1.180192, 17.147721, 1.789965, -1.016362, -0.682587, -0.250933, 124.409805, 145.881607, -556.406616, , 
1759229465.347091, 3.882198, 23.808091, -3.258359, -1.257827, -1.185458, -0.063562, 125.316849, 145.496841, -556.650635, , 
1759229465.367095, -2.853439, 19.065327, -4.191499, 0.074368, -1.221879, 0.377289, 125.814911, 145.509979, -558.326904, , 
1759229465.386965, -6.132598, 12.110321, -0.323068, 0.491384, 0.176382, -0.237410, 126.024612, 145.819046, -558.135986, , 
1759229465.406134, -6.305280, 10.989535, -1.530643, 0.679049, -0.163238, -0.418689, 125.991959, 146.410904, -558.988037, , 
1759229465.427088, 0.010026, 8.570793, -1.462857, 0.942353, 1.187938, -0.291705, 125.378281, 146.379166, -557.753540, , 
1759229465.447144, 0.938377, 9.684097, 1.507000, 0.910154, 1.898240, -0.307504, 124.365860, 146.838287, -557.674744, , 
1759229465.467108, 5.398027, 10.250026, 17.616835, -0.340114, -1.512119, -0.092454, 125.330276, 146.828064, -559.757751, , 
1759229465.486983, 2.106299, 5.840805, 1.064821, -1.751075, -2.557964, -0.129272, 125.707214, 146.472794, -559.795349, , 
1759229465.506210, 4.376601, 6.917298, -5.824793, -1.699618, 0.146874, 0.056765, 126.067551, 145.766891, -559.260620, , 
1759229465.527110, 1.480514, 9.743952, -5.083638, -0.224752, -0.167961, 0.952730, 126.145935, 145.024017, -558.853760, , 
1759229465.547140, -1.665467, 9.551219, -2.489970, 0.060905, 0.409698, 1.017411, 126.117188, 144.534943, -558.591003, , 
1759229465.567112, -2.287360, 9.192388, -0.210839, -0.211690, 0.654097, 0.640466, 126.072495, 144.218414, -558.639587, , 
1759229465.587008, -3.004274, 8.680777, -0.724246, -0.148605, 0.293929, 0.469406, 125.905182, 144.089569, -557.854431, , 
1759229465.606163, -4.510077, 9.408165, -0.786795, -0.090431, 0.387315, 0.233056, 125.935822, 144.066055, -557.873352, , 
1759229465.627110, -4.573374, 9.931148, -1.993173, 0.090446, 0.014017, 0.105788, 125.878891, 143.685867, -556.986633, , 
1759229465.647143, -4.437054, 7.608324, -2.798223, 0.230698, 0.347523, -0.054434, 125.598633, 143.937042, -557.607727, , 
1759229465.667174, -3.046771, 6.118682, -3.405303, 0.588052, 0.542050, -0.137648, 125.326691, 144.485748, -557.529724, , 
1759229465.687024, -1.868375, 6.443545, -3.267187, 0.904583, 0.802790, -0.218478, 124.870667, 144.652893, -556.661438, , 
1759229465.706188, -0.672471, 7.236624, -1.322647, 1.071172, 1.245275, -0.020565, 124.047958, 145.200272, -556.103394, , 
1759229465.726479, -0.592715, 5.888689, -0.087388, 0.958417, 1.312989, 0.251630, 123.820419, 145.371033, -554.830933, , 
1759229465.747137, -0.842460, 5.013159, 0.293739, 0.884762, 1.285812, 0.383884, 123.076172, 145.420471, -555.062622, , 
1759229465.767161, -1.189020, 6.075586, 0.976236, 0.845826, 1.021349, 0.269303, 122.519333, 145.630020, -555.067017, , 
1759229465.787040, -0.654814, 6.753444, 1.526004, 0.788841, 0.075595, 0.098836, 122.438507, 145.959702, -554.666992, , 
1759229465.806212, -0.190189, 7.321918, -0.311545, 0.741735, -1.033658, -0.112753, 122.812454, 146.327469, -555.915710, , 
1759229465.827107, 0.100706, 7.793126, -3.112163, 0.718010, -1.049646, -0.198877, 123.312347, 146.447144, -555.232849, , 
1759229465.847122, -0.999579, 7.938724, -4.901380, 1.210295, -0.488133, -0.228066, 123.023468, 147.232162, -556.115662, , 
1759229465.867110, -2.550124, 11.574618, -3.997269, 1.564889, -0.287144, -0.665178, 122.980835, 148.045303, -556.544434, , 
1759229465.887049, -3.208529, 15.258397, -3.293075, 1.695322, -0.424387, -1.336161, 122.951538, 149.356705, -556.441895, , 
1759229465.906220, -4.081964, 16.543335, -3.399617, 1.774242, -0.238396, -1.800263, 122.328888, 151.010788, -557.113525, , 
1759229465.927108, -4.045453, 22.226721, 0.926556, 0.828682, 0.018201, -2.452462, 121.944565, 152.411499, -555.606567, , 
1759229465.947141, -0.284162, 30.700249, -0.173729, -0.200758, -1.262326, -2.252186, 121.574951, 153.562988, -557.503296, , 
1759229465.967150, 2.307561, 17.490541, -8.404097, -0.384377, -1.047720, -1.435950, 121.208893, 154.274048, -558.795410, , 
1759229465.987065, 3.155109, 11.252299, -6.270414, -0.357583, 0.600512, -1.215249, 121.024139, 154.613495, -557.812622, , 
1759229466.007110, 0.809539, 9.268553, -2.264017, -0.247008, 0.264786, -0.476010, 120.703766, 154.795303, -558.278198, , 
1759229466.027104, 0.571915, 7.392995, -1.516727, -0.124659, -0.265685, -0.081438, 120.419861, 154.640381, -557.544067, , 
1759229466.047125, 0.337732, 5.602582, -2.708291, -0.068546, -0.061074, -0.202973, 120.329376, 154.858307, -558.263245, , 
1759229466.067106, 0.135572, 6.067954, -2.445827, -0.057122, 0.497597, -0.445691, 120.300873, 155.059647, -557.530334, , 
1759229466.087079, 0.170437, 6.704513, -1.578078, -0.151388, 1.006287, -0.324304, 119.631699, 155.116898, -556.956421, , 
1759229466.106254, 1.957858, 5.569811, 0.137367, -0.267182, 1.022209, -0.020738, 119.213638, 155.060791, -557.448608, , 
1759229466.127106, 3.409044, 4.613776, 0.852037, -0.394441, 1.061266, 0.397332, 118.767136, 154.522507, -555.826782, , 
1759229466.147110, 4.105457, 3.718046, 0.955735, -0.400921, 0.946554, 0.796255, 118.550629, 154.080139, -556.423462, , 
1759229466.167104, 3.077746, 2.694225, 0.972495, -0.585156, 0.566142, 0.989815, 118.696838, 153.458572, -555.677246, , 
1759229466.187078, 1.638232, 2.898780, 0.060903, -1.000922, 0.050715, 1.163510, 119.180176, 152.510422, -554.891663, , 
1759229466.206269, 1.295562, 4.151995, -0.728286, -1.513379, -0.653307, 1.544868, 120.060654, 151.072220, -554.998657, , 
1759229466.227100, -0.095768, 7.720851, -2.599205, -1.767283, -0.667527, 1.891889, 120.144745, 149.194016, -553.727966, , 
1759229466.247105, -2.267459, 11.598860, -5.739201, -1.148494, 0.849361, 1.537940, 120.607880, 148.017365, -553.472351, , 
1759229466.267103, -2.382829, 12.030714, -4.074333, -1.209963, 1.614684, 1.212864, 120.017944, 146.849121, -552.579041, , 
1759229466.287078, -1.760935, 10.136900, -4.774337, -1.097013, 1.245964, 0.964866, 119.335739, 145.893066, -551.465515, , 
1759229466.306285, -5.523124, 7.705738, -3.633800, -0.590362, 0.316746, 0.431248, 119.693451, 145.267395, -551.551392, , 
1759229466.327101, -7.836072, 7.747188, -3.307290, -0.046008, -1.201498, -0.336705, 120.026672, 145.193085, -550.934326, , 
1759229466.347104, -4.233397, 8.055890, -2.587683, 0.638747, -3.487401, -0.833340, 120.907547, 145.983307, -553.702515, , 
1759229466.367102, 0.063297, 8.363844, -4.191050, 0.804905, -4.028244, -1.113777, 122.193451, 146.887512, -556.172241, , 
1759229466.387077, 3.809923, 8.764274, -4.964377, 0.779770, -2.558827, -1.013618, 122.686859, 147.748383, -557.088318, , 
1759229466.406311, 5.413889, 11.414356, -3.482965, 0.480174, -0.875027, -0.336707, 123.041229, 147.855728, -557.648560, , 
1759229466.427097, 6.550985, 16.566529, -3.702334, 0.286405, 0.554618, 0.657805, 122.571472, 147.422592, -556.447754, , 
1759229466.446354, -0.087089, 17.413478, 2.259827, 0.075337, 0.329670, 0.754728, 123.027283, 146.890839, -556.914307, , 
1759229466.467127, -4.046949, 16.515053, 5.418378, -0.395455, 1.462218, 0.553199, 122.849670, 146.424576, -555.815369, , 
1759229466.486340, -8.487295, 21.369896, 4.768202, -1.110725, 0.702154, -0.174802, 122.532959, 146.070679, -554.741821, , 
1759229466.506316, -12.784139, 17.798944, -0.298677, -0.832968, -6.991285, -1.343235, 125.526245, 147.050583, -557.444580, , 
1759229466.527102, -4.931756, 10.936264, -17.496526, -1.025358, -3.746588, -0.141311, 125.172699, 146.630920, -561.139343, , 
1759229466.547118, 1.521066, 9.193435, -8.951172, 1.099153, 3.416491, -0.433388, 124.389252, 147.024139, -559.838440, , 
1759229466.567099, 3.983652, 12.306496, 3.431041, 1.141907, 4.273413, 0.387311, 123.075684, 147.196640, -556.913818, , 
1759229466.586975, 3.782240, 13.054833, 10.664223, 0.023201, 2.365612, 0.956391, 121.962036, 146.442551, -555.773804, , 
1759229466.606333, 0.523133, 8.501660, 7.745093, -1.603678, -1.327148, 0.550964, 122.785629, 146.005676, -556.517090, , 
1759229466.627098, -0.477045, 5.787384, -2.070984, -1.435090, -0.523322, 0.529395, 123.473083, 145.218369, -555.775085, , 
1759229466.647131, -2.248904, 6.342539, -5.746982, -1.048268, 0.007565, 0.646001, 123.400848, 144.265747, -556.455933, , 
1759229466.667100, 0.153977, 6.382493, -5.076156, -0.200908, 0.452052, 0.399083, 123.475494, 143.805893, -556.225525, , 
1759229466.687073, -0.279523, 7.162105, 0.189441, -0.090852, 0.529331, 0.360697, 123.014359, 143.626297, -555.806885, , 
1759229466.706359, -0.943016, 7.637503, 1.042824, -0.118733, 0.172520, 0.330508, 123.083694, 143.650497, -555.710022, , 
1759229466.726542, -1.123778, 7.389554, -1.511041, 0.001503, 0.095638, 0.323659, 123.303299, 143.251343, -554.876770, , 
1759229466.747135, -1.928529, 7.454347, -2.499247, 0.153927, 0.428967, 0.251312, 123.040436, 143.194580, -555.412903, , 
1759229466.767098, -3.649661, 7.132776, -2.246659, 0.444041, 0.616065, 0.078721, 122.603180, 143.287308, -555.005554, , 
1759229466.787072, -4.659116, 5.414337, -2.072032, 0.722876, 0.064494, -0.108155, 122.724243, 143.672577, -554.555664, , 
1759229466.806362, -2.808847, 5.059098, -2.607585, 0.930155, -0.131188, -0.275389, 122.506729, 143.979523, -555.569092, , 
1759229466.827100, -1.397466, 6.157438, -2.067393, 1.085651, 0.244382, -0.237872, 122.526016, 144.424515, -554.702026, , 
1759229466.846452, -0.615011, 6.296152, -0.569970, 1.016668, 0.628872, -0.068818, 122.012711, 144.905365, -554.883911, , 
1759229466.867099, -1.238251, 6.415712, 0.335637, 0.885547, 0.469061, 0.014287, 121.688705, 145.111496, -554.513062, , 
1759229466.887073, -1.211167, 7.815273, -0.265457, 0.759309, -0.368934, -0.052690, 121.460861, 145.384216, -554.437744, , 
1759229466.906376, -1.117494, 7.429806, -1.864784, 0.956861, -0.484025, -0.096984, 121.690826, 145.750961, -555.180298, , 
1759229466.927095, -2.963124, 10.998813, -3.808576, 1.263667, -0.834242, -0.462075, 122.099838, 146.306091, -554.322632, , 
1759229466.947103, -3.806631, 15.106066, -5.592705, 1.536429, -0.905142, -1.056903, 122.141403, 147.261749, -555.209839, , 
1759229466.967098, -4.237587, 15.707160, -5.703437, 1.916630, -0.612206, -1.596587, 122.073746, 148.758179, -556.034912, , 
1759229466.987066, -5.347449, 18.783859, -1.034145, 1.484086, 0.105670, -2.530367, 121.756714, 150.453094, -556.166382, , 
1759229467.006412, -3.319112, 27.631930, 0.438139, 0.691014, -0.329179, -2.862487, 121.426895, 152.261169, -555.645874, , 
1759229467.027096, 5.047576, 24.433875, -4.738873, 0.759945, -1.435444, -1.322592, 120.721024, 153.408173, -557.018372, , 
1759229467.047092, 4.848408, 10.528801, -6.096685, 0.528460, -0.335152, -1.087657, 120.180954, 154.143051, -558.602112, , 
1759229467.066296, 4.046799, 7.509713, -2.248904, 0.082378, 0.585798, -1.087172, 120.255539, 154.748550, -558.312866, , 
1759229467.087013, -0.543783, 4.572327, -1.387290, -0.257412, 0.173372, -0.626420, 120.006302, 155.111969, -558.289185, , 
1759229467.106397, -3.418321, 5.453842, 0.276979, -0.482843, -0.435714, -0.487089, 120.272720, 155.318146, -557.933044, , 
1759229467.127093, -3.446902, 7.594408, -1.383250, -0.708756, -0.793580, -0.415021, 119.900970, 155.269379, -557.688965, , 
1759229467.147090, 0.129287, 9.970802, -2.934094, -0.666398, -0.321701, -0.161722, 119.829514, 155.226593, -557.698975, , 
1759229467.167090, 3.960608, 9.107842, -2.858826, -0.504968, 0.665286, 0.349065, 119.603516, 155.090698, -557.983704, , 
1759229467.187069, 5.490802, 5.830480, -0.741903, -0.615674, 1.268739, 0.745114, 119.592224, 154.398895, -557.754883, , 
1759229467.206403, 5.497087, 3.154061, 0.323068, -0.813223, 0.823856, 1.033672, 119.124954, 153.521301, -557.254333, , 
1759229467.227094, 3.762937, 2.061857, -0.678008, -0.931654, 0.060225, 1.353034, 119.769363, 152.702393, -555.947510, , 
1759229467.247093, 1.575534, 1.920748, -1.369334, -1.055020, -0.440562, 1.818679, 120.527725, 151.377243, -555.768677, , 
1759229467.267090, -0.457592, 3.553295, -2.120664, -1.023484, -0.922119, 2.144561, 121.078690, 150.018082, -555.915161, , 
1759229467.287068, -2.728193, 7.116764, -3.750367, -0.565208, 0.066485, 2.099788, 121.718765, 148.718124, -555.919373, , 
1759229467.306448, -3.581426, 7.920917, -3.332280, -0.569075, 0.752712, 1.918121, 121.776993, 147.213501, -555.016846, , 
1759229467.327074, -3.228880, 9.652823, -1.682974, -1.289397, 0.600200, 1.114389, 121.378067, 145.984131, -553.627197, , 
1759229467.347074, -2.926014, 10.558729, -3.847931, -0.922470, -0.327921, 0.915584, 121.657806, 144.973221, -553.636902, , 
1759229467.367075, -4.771345, 7.846846, -1.051803, -0.725930, -0.389028, 0.369376, 121.576523, 144.235504, -553.822754, , 
1759229467.386983, -5.065831, 7.305308, -0.498592, -0.642224, -0.588146, 0.101179, 121.957489, 144.063065, -554.153076, , 
1759229467.406456, -4.590882, 8.310573, -0.622193, -0.690725, -1.577883, -0.147255, 122.339005, 143.562393, -554.554871, , 
1759229467.427075, -3.156007, 16.751182, -9.272743, -0.198736, -3.979770, -0.725716, 123.308167, 143.739944, -556.150452, , 
1759229467.447091, -2.073678, 16.396840, -7.697508, 0.271250, -3.243397, -0.877110, 124.449921, 144.260818, -557.882935, , 
1759229467.467154, -1.889025, 12.044480, 0.567127, -0.522029, 0.337082, -0.922410, 124.172409, 144.569138, -557.635254, , 
1759229467.486637, 1.271321, 15.016134, 3.024026, -1.020282, 1.571785, -0.519248, 123.524948, 144.271545, -556.327698, , 
1759229467.506471, 1.505504, 20.263775, -0.036811, -0.459079, 1.605300, 0.259795, 122.709579, 144.048050, -555.047791, , 
1759229467.527095, -7.354239, 25.762508, -2.729540, 0.249433, -3.085189, -0.068217, 124.330826, 144.402237, -556.680298, , 
1759229467.547091, -3.916914, 12.697798, -11.434557, 0.393753, -2.447519, -0.837018, 124.729965, 144.791092, -559.047363, , 
1759229467.567093, 3.108871, 11.698518, -0.907103, 1.671735, 1.608672, -0.397151, 123.753067, 145.624405, -558.301575, , 
1759229467.587065, 3.306991, 12.024130, 5.240459, 1.294166, 2.514740, 0.072805, 123.021072, 145.791840, -557.572937, , 
1759229467.606487, 5.760898, 10.253468, 18.150892, -0.507089, -1.530151, 0.406114, 123.580872, 145.458954, -558.488403, , 
1759229467.627091, 0.744148, 6.087108, -0.266654, -1.932886, -1.150708, 0.186487, 124.587936, 144.824417, -558.067810, , 
1759229467.646764, -0.039953, 8.044069, -4.344279, -1.867553, 1.133990, 0.440436, 124.455826, 143.765854, -557.133362, , 
1759229467.667090, -4.109348, 9.002946, -7.203854, -0.412969, -0.609743, 0.797426, 124.725006, 143.352493, -557.626160, , 
1759229467.687071, -3.057396, 7.136966, -3.181445, 0.064205, 0.216585, 0.580946, 124.528381, 143.045578, -557.666382, , 
1759229467.706514, -1.782333, 7.064541, 1.225532, -0.249663, 0.082981, 0.363288, 124.457642, 142.675385, -557.911743, , 
1759229467.727098, -2.328660, 7.695413, -0.181810, -0.165129, 0.235241, 0.292837, 124.654800, 142.366776, -556.790955, , 
1759229467.747091, -3.002927, 8.563760, -0.966210, -0.016313, 0.420096, 0.278264, 124.433273, 142.383881, -556.535889, , 
1759229467.767095, -3.525911, 8.858247, -2.556858, 0.007167, 0.493020, 0.185101, 124.205536, 142.156174, -555.870178, , 
1759229467.787070, -3.587412, 8.138789, -3.534889, 0.331993, 0.645368, 0.107545, 124.060944, 142.232132, -555.647827, , 
1759229467.806524, -2.419341, 7.044041, -2.314744, 0.632653, 0.852613, 0.112127, 123.616821, 142.424988, -555.978577, , 
1759229467.827130, -2.217779, 6.538116, -1.005565, 0.662312, 1.060984, 0.198477, 123.330429, 142.306168, -554.947388, , 
1759229467.847087, -2.711733, 5.710021, -0.188843, 0.658517, 1.212654, 0.239474, 122.660767, 142.426392, -554.640259, , 
1759229467.867117, -3.055600, 5.106383, 0.023792, 0.777162, 1.155229, 0.155615, 122.267502, 142.535187, -553.923340, , 
1759229467.887070, -2.251148, 5.171476, 0.017657, 0.936807, 0.380387, 0.140490, 121.911575, 142.729797, -554.040161, , 
1759229467.906546, -0.678756, 6.314408, -0.328455, 0.839803, -0.012687, 0.109776, 121.700882, 142.833954, -553.902283, , 
1759229467.927085, 0.264709, 8.686313, -0.477494, 0.716184, -0.045979, 0.146262, 121.838882, 142.944290, -552.839783, , 
1759229467.947081, -0.600496, 9.626187, -0.681599, 0.638390, 0.110534, 0.140191, 121.856979, 143.038452, -553.872742, , 
1759229467.967089, -2.982726, 8.982895, -2.606089, 0.980822, -0.689473, -0.023348, 122.298447, 143.250717, -553.391602, , 
1759229467.987060, -3.929483, 8.066664, -4.769399, 1.502347, -1.121999, -0.356250, 122.512192, 143.984344, -554.507324, , 
1759229468.007084, -4.466682, 11.145907, -5.728127, 1.795478, 0.594133, -0.545849, 122.081100, 144.538849, -554.626709, , 
1759229468.027081, -2.654870, 14.074763, -4.268862, 2.076784, 1.065978, -1.045170, 121.301620, 145.726654, -553.501709, , 
1759229468.047081, -3.307889, 15.905879, -1.875857, 1.822901, 1.389828, -1.842339, 120.386841, 147.423248, -553.926819, , 
1759229468.067081, -2.556409, 23.850139, 2.700360, 0.786200, 0.118004, -3.011601, 119.924744, 148.751419, -552.141113, , 
1759229468.087060, 5.773019, 31.591940, 3.220351, -0.313240, -3.347779, -2.508139, 120.466980, 150.504349, -554.299194, , 
1759229468.106570, 3.308338, 14.027777, -12.782194, -0.173417, -1.304630, -1.763609, 121.180664, 151.419449, -556.041626, , 
1759229468.127081, 0.752976, 9.555259, -4.638317, 0.062077, 0.625482, -1.007879, 120.788651, 151.766602, -555.147583, , 
1759229468.147083, -2.921525, 7.132177, -1.867028, 0.241424, 1.075374, -0.691916, 120.483719, 152.231125, -555.759094, , 
1759229468.167079, -3.277363, 6.105663, 0.757017, 0.096462, 0.936501, -0.689516, 119.678558, 152.676102, -554.514343, , 
1759229468.187059, -1.042974, 5.306748, 0.324115, -0.420547, -0.082170, -0.661614, 119.296402, 153.198944, -555.514832, , 
1759229468.206586, 1.232715, 6.498163, -2.578406, -0.663475, -0.117722, -0.455279, 119.196625, 153.272430, -555.309937, , 
1759229468.226345, 2.886360, 6.162077, -2.502240, -0.762027, 0.545182, 0.043816, 119.349442, 152.897186, -554.505310, , 
1759229468.247087, 3.522768, 4.793192, -1.417367, -0.962070, 1.245408, 0.466771, 118.822876, 152.397034, -554.380737, , 
1759229468.267081, 3.694253, 3.392434, 0.317830, -1.048664, 1.036918, 0.845773, 118.535004, 151.349503, -552.456604, , 
1759229468.287057, 3.882797, 2.311602, 0.115670, -0.920941, 0.306951, 1.269203, 118.885025, 150.387756, -552.575317, , 
1759229468.306602, 3.376124, 2.182614, -0.205602, -1.073260, -0.566918, 1.714724, 119.297638, 149.128494, -552.489990, , 
1759229468.327080, 1.541267, 2.507627, -0.976086, -1.342583, -1.448537, 1.969774, 120.152786, 147.450012, -552.128418, , 
1759229468.347078, 0.498592, 6.652888, -3.079841, -1.093835, -1.211001, 2.227982, 121.264862, 145.518524, -552.742432, , 
1759229468.367081, -2.171990, 12.502671, -4.172046, -0.658846, 0.580937, 2.157710, 121.399094, 143.986160, -551.528809, , 
1759229468.387058, -3.913323, 14.290840, -3.293224, -1.067269, 1.074595, 1.438475, 121.087997, 142.425201, -551.643677, , 
1759229468.406613, -2.590676, 11.870601, -5.568913, -0.667217, 0.434834, 0.982325, 120.977966, 141.451050, -551.006958, , 
1759229468.426289, -5.977124, 6.316203, -2.738967, -0.405756, -0.590642, 0.456132, 121.220032, 140.705490, -550.600708, , 
1759229468.447080, -7.262212, 5.488109, -3.778798, 0.073017, -1.447693, -0.015032, 121.614914, 140.594940, -551.884521, , 
1759229468.467107, -5.110573, 6.306477, -3.122039, 0.425916, -2.395663, -0.489014, 122.739426, 140.471573, -551.757996, , 
1759229468.487054, -1.853711, 10.364349, -1.954267, 0.442669, -2.417537, -0.540577, 123.362976, 140.930908, -554.250977, , 
1759229468.506626, 0.486322, 15.608848, -0.072125, -0.133779, -1.133113, -0.685231, 123.709549, 141.165222, -554.980225, , 
1759229468.527082, 2.207005, 13.851504, 1.374122, -0.724326, 0.291948, -0.735888, 123.650528, 141.340729, -554.154297, , 
1759229468.547081, 4.282179, 19.716700, 0.477494, -1.177285, 0.529363, -0.177600, 123.718811, 140.832428, -553.549194, , 
1759229468.567081, 0.822708, 21.846192, 0.718560, -0.716869, -0.976985, 0.405368, 124.136551, 140.324463, -552.771606, , 
1759229468.586642, -8.977059, 21.271734, -2.804807, -0.569095, -1.329990, 0.209165, 124.754044, 139.692566, -554.116028, , 
1759229468.606646, -9.859173, 10.947936, -10.892720, 0.428233, -2.716015, -0.616842, 126.517075, 140.186371, -556.043213, , 
1759229468.627054, 1.119439, 11.179425, -4.039317, 1.471666, 1.079825, 0.088608, 125.532364, 140.266495, -556.622681, , 
1759229468.647105, 1.145625, 11.230601, 1.889324, 1.418543, 3.646297, 0.204994, 124.617310, 140.886108, -555.890747, , 
1759229468.667078, 2.879177, 12.123639, 10.558130, 0.540217, 2.422176, 0.361267, 123.335983, 140.741211, -552.791382, , 
1759229468.686624, 1.717092, 9.559149, 9.353547, -1.517226, -1.527628, 0.392162, 123.724762, 140.427780, -553.993774, , 
1759229468.706663, -0.454150, 9.365219, -1.443704, -2.011380, 0.764718, 0.457226, 124.237778, 139.617233, -553.580933, , 
1759229468.727075, -1.375469, 7.778612, -4.614824, -1.296452, 0.011620, 0.737083, 123.862869, 138.572052, -553.221863, , 
1759229468.747106, 1.086070, 6.121674, -6.706159, -0.083585, 0.062473, 0.682640, 123.756348, 137.816803, -554.248291, , 
1759229468.767115, 1.356166, 6.486341, -2.119168, 0.232418, 0.398504, 0.758319, 124.014771, 137.472977, -552.352295, , 
1759229468.786631, -2.536956, 6.626851, 1.973720, -0.098391, 0.801268, 0.629165, 123.833282, 137.086838, -552.796875, , 
1759229468.806681, -2.765901, 6.886771, 0.366313, -0.115120, 0.656937, 0.492485, 123.639313, 136.817581, -552.129883, , 
1759229468.826091, -3.966294, 8.115895, -1.665766, -0.108223, 0.348824, 0.285646, 123.541931, 136.486481, -551.463013, , 
1759229468.847108, -4.523545, 6.708104, -2.686594, 0.144279, 0.103982, -0.119836, 123.631897, 136.384354, -551.915039, , 
1759229468.867112, -3.789722, 4.800674, -3.211073, 0.663838, -0.585724, -0.315400, 123.930374, 136.333328, -550.942810, , 
1759229468.886053, -0.701800, 4.313304, -4.075231, 1.075132, -0.118781, -0.162283, 124.050934, 137.020325, -552.232178, , 
1759229468.906696, 0.153528, 6.111499, -1.935712, 1.149144, 1.013078, 0.065786, 123.986267, 137.261978, -551.651428, , 
1759229468.927073, -2.891447, 6.834847, -0.576105, 1.204227, 1.207820, 0.175409, 123.597839, 137.486557, -549.975891, , 
1759229468.947098, -3.604171, 7.305906, 0.279373, 1.095957, 0.953384, 0.026594, 123.413071, 137.945557, -550.082947, , 
1759229468.967084, -3.769371, 6.868216, 0.034267, 1.001960, 0.358307, -0.095010, 123.473984, 138.088928, -548.737244, , 
1759229468.987050, -2.766350, 7.467964, -0.397737, 0.966571, 0.352870, -0.208634, 122.942215, 138.603088, -549.454468, , 
1759229469.006711, -2.834585, 8.541314, -0.987159, 1.167526, 0.148541, -0.507824, 122.826675, 139.192429, -548.557861, , 
1759229469.027051, -3.995324, 12.682535, -2.028487, 1.286507, -0.402827, -1.061249, 123.116043, 140.014099, -548.272339, , 
1759229469.047094, -3.156905, 15.942390, -3.931279, 1.021190, -0.562105, -1.697873, 123.404190, 141.193848, -548.953003, , 
1759229469.066270, -2.340631, 17.664420, -5.058200, 1.042783, -0.271028, -2.349169, 123.813034, 142.701004, -548.115845, , 
1759229469.086620, -1.947982, 23.186646, -1.187374, 0.339862, -0.078631, -2.907525, 123.763229, 144.630020, -548.751221, , 
1759229469.106728, 3.080440, 28.130223, -3.618237, -0.354257, -0.349312, -2.516403, 123.696625, 146.270615, -547.869812, , 
1759229469.127075, 3.407099, 15.698331, -5.961861, -0.178015, -0.411158, -1.486863, 123.618591, 147.292435, -548.783813, , 
1759229469.147070, 0.802207, 11.766603, -5.321861, -0.047709, 0.435942, -1.032685, 123.913605, 148.190659, -549.297791, , 
1759229469.167076, -1.848473, 10.351481, -2.539949, 0.059314, 0.916987, -0.597847, 123.621094, 148.575119, -548.003296, , 
1759229469.186628, -1.138293, 7.311892, -0.463278, 0.199017, 0.678496, -0.441238, 122.758713, 149.112839, -548.863525, , 
1759229469.206740, 1.247529, 4.850204, -1.709310, -0.077143, 0.235678, -0.399229, 122.447220, 149.561478, -548.291992, , 
1759229469.227069, 2.183512, 5.747880, -3.457078, -0.326748, 0.291371, -0.222468, 122.382645, 149.804367, -548.143311, , 
1759229469.247085, 2.703054, 6.892009, -2.733879, -0.407048, 0.448453, 0.263239, 122.263626, 149.802704, -547.953979, , 
1759229469.267059, 2.830096, 6.086360, -1.336264, -0.382685, 0.864100, 0.623005, 121.974976, 149.291473, -546.791626, , 
1759229469.287048, 3.729418, 4.668693, 0.730980, -0.389473, 0.544320, 0.915127, 121.709763, 148.780945, -547.156494, , 
1759229469.306778, 4.374805, 3.567809, 1.126173, -0.461882, 0.058218, 1.252222, 121.763641, 147.984482, -546.597656, , 
1759229469.327101, 3.871873, 3.148375, 1.009904, -0.674157, -0.359610, 1.585010, 122.221756, 146.832825, -546.383057, , 
1759229469.346899, 2.759766, 3.532196, 0.560393, -0.789326, -0.558944, 1.692846, 123.043762, 145.721802, -546.825439, , 
1759229469.367054, 0.022895, 6.990919, -1.023222, -0.854603, -0.255625, 2.173465, 124.106445, 143.104813, -546.324951, , 
1759229469.387048, -1.681029, 8.098237, -1.210119, -1.003731, 0.143969, 2.222383, 124.025879, 142.076065, -545.860291, , 
1759229469.406786, -4.365976, 7.787590, -0.681749, -1.402859, 0.363378, 2.019520, 124.221802, 140.001633, -545.079041, , 
1759229469.427068, -6.487987, 6.279692, -3.085378, -1.533862, 0.202264, 1.607211, 124.338928, 138.008621, -544.590454, , 
1759229469.447076, -9.054871, 5.730073, -4.920084, -1.359648, 0.302992, 0.905230, 124.191330, 136.438339, -545.217041, , 
1759229469.467090, -7.939322, 7.433547, -5.728576, -0.801350, 0.289890, -0.122424, 124.035080, 135.577728, -544.138367, , 
1759229469.486611, -3.062782, 9.734674, -3.222147, -0.395922, -0.977220, -1.095591, 124.242432, 135.851135, -545.604248, , 
1759229469.506807, 2.608632, 11.175535, -4.656722, 0.054147, -2.450310, -1.349570, 126.951004, 137.064133, -547.124817, , 
1759229469.527054, 3.446753, 10.016592, -7.462128, 0.812280, -2.897065, -0.842496, 128.285828, 137.562271, -547.508911, , 
1759229469.547058, 3.416675, 13.318345, -7.442226, 0.835737, -1.656875, -0.300910, 129.055786, 137.889297, -548.670959, , 
1759229469.566279, 2.139219, 14.592958, 0.806247, -0.223686, 0.457729, -0.100932, 128.853897, 137.677322, -547.640381, , 
1759229469.586628, 2.693327, 21.451149, 5.302109, -0.182092, 0.767011, 0.112268, 128.888748, 137.535782, -546.205200, , 
1759229469.606796, 0.342371, 23.922115, 7.402872, -0.099166, 0.044762, 0.239722, 130.015533, 137.106735, -547.330078, , 
1759229469.627112, -9.345766, 16.737714, -1.700631, -1.577175, -3.704989, 0.526217, 131.628036, 136.365524, -549.247925, , 
1759229469.647067, -10.217704, 10.859051, -11.923424, 0.053349, -1.340480, -0.112860, 131.752335, 136.761490, -550.626099, , 
1759229469.667066, -0.058209, 13.635577, -2.603994, 0.833034, 0.259975, -0.194025, 131.606689, 137.240005, -550.412231, , 
1759229469.687044, 1.716493, 13.384784, 2.956839, 0.777406, 0.225083, 0.032404, 131.255402, 137.335861, -550.176208, , 
1759229469.706813, 3.348590, 12.343756, 5.272481, 0.483760, 0.328583, -0.005194, 131.382401, 137.681244, -550.666260, , 
1759229469.727065, 3.412037, 11.302278, 7.756465, -1.011075, -0.093698, 0.059440, 131.539474, 137.164703, -549.413452, , 
1759229469.747065, 1.670554, 9.146150, -0.256928, -1.656346, 0.884323, 0.399440, 131.588196, 136.175476, -549.698120, , 
1759229469.767074, 0.418985, 6.472874, -2.667290, -1.078184, -0.580763, 0.814072, 131.688446, 135.380737, -550.423035, , 
1759229469.787042, -0.866252, 4.850802, -2.304868, -0.509563, -0.796959, 0.671268, 131.916412, 134.650452, -550.643921, , 
1759229469.806831, 0.600945, 4.621408, 0.089034, -0.410326, -0.550599, 0.581080, 132.332062, 134.117050, -551.178955, , 
1759229469.827065, 0.325761, 4.642058, 0.114622, -0.480525, -0.351183, 0.609446, 132.415421, 133.215637, -550.660583, , 
1759229469.847069, -0.929100, 6.994511, -0.825551, -0.592160, 0.154621, 0.595981, 132.542450, 132.638229, -551.213501, , 
1759229469.867070, -1.675792, 8.694094, -1.320851, -0.470279, 0.389425, 0.563830, 132.205902, 132.229614, -550.630981, , 
1759229469.887042, -2.754080, 8.851064, -0.905008, -0.241364, 0.514032, 0.448238, 132.387222, 131.561050, -549.982056, , 
1759229469.906858, -5.146037, 9.037363, -1.122731, -0.184701, -0.065013, 0.091394, 133.070694, 131.620346, -550.873047, , 
1759229469.926843, -8.434922, 10.348188, -4.671536, 0.389657, -2.242040, -0.565283, 134.316772, 132.378494, -551.330566, , 
1759229469.947069, -5.134665, 8.556877, -6.261586, 1.060703, -1.144373, -0.655427, 134.362640, 133.385803, -553.322998, , 
1759229469.967063, 1.610101, 7.170185, -2.255787, 1.675608, -0.048581, -0.179551, 134.546143, 134.325867, -553.091431, , 
1759229469.987042, 1.151312, 5.020342, -0.924012, 1.558455, 1.076325, 0.163655, 134.129776, 134.669952, -550.963074, , 
1759229470.006876, -0.147393, 4.367922, -0.707337, 1.637638, 2.379825, 0.433955, 133.327240, 135.285751, -549.551270, , 
1759229470.027064, -3.147627, 5.282656, -0.257077, 1.850778, 1.819439, 0.303883, 132.483398, 135.808899, -547.445923, , 
1759229470.047084, -1.493982, 8.196100, 0.946607, 1.502809, 0.922835, 0.053422, 132.626144, 136.579102, -547.178833, , 
1759229470.067061, -1.315614, 8.671499, 1.076792, 1.112471, 0.741665, -0.044298, 132.264771, 137.349106, -546.486938, , 
1759229470.087040, -2.465878, 8.157195, 1.042525, 1.087159, -0.640936, -0.333116, 132.815796, 138.125854, -546.205933, , 
1759229470.106886, -3.136404, 14.216919, -1.746121, 0.820627, -2.239969, -1.100977, 134.034653, 139.579300, -548.319824, , 
1759229470.127063, -3.669862, 19.704729, -5.339219, 0.470357, -1.808956, -1.972161, 135.545975, 141.526001, -548.546387, , 
1759229470.147083, -2.906860, 17.535881, -5.908142, 0.500517, -0.585782, -2.833155, 135.837769, 144.027649, -549.560791, , 
1759229470.167059, 0.135871, 23.665187, -1.014842, 0.089234, 0.206740, -3.036850, 135.503525, 146.657516, -549.099731, , 
1759229470.187047, 2.968660, 23.599646, -1.238850, -0.284607, -0.166845, -2.060977, 135.632385, 148.139893, -548.896484, , 
1759229470.206914, 1.982698, 14.789732, -8.592939, 0.820294, 1.461210, -0.529098, 134.080429, 149.528015, -548.919800, , 
1759229470.226732, -0.348207, 13.292159, -6.049699, 1.984207, 3.638144, -0.313829, 132.201431, 150.589340, -545.593567, , 
1759229470.247062, 0.172083, 7.824101, 0.756717, 0.362721, 1.069770, -0.211582, 131.733887, 151.098953, -546.843750, , 
1759229470.267060, 1.568501, 3.637541, -0.228497, -0.334552, -0.721843, -0.237376, 132.003220, 151.305527, -547.491272, , 
1759229470.287038, 1.634791, 3.365050, 0.151134, -0.765959, -1.635041, -0.212019, 133.013412, 151.146957, -547.980164, , 
1759229470.306927, 0.035614, 4.140921, -1.329231, -1.147131, -2.039420, -0.000854, 134.396271, 150.707062, -549.248596, , 
1759229470.327059, 0.485424, 5.146486, -3.343652, -0.794390, -1.016836, 0.362584, 135.131088, 150.130371, -548.898743, , 
1759229470.347064, 1.078139, 5.893477, -2.358588, -0.463661, 0.408277, 0.688543, 134.884232, 149.440445, -549.607361, , 
1759229470.366864, 1.649605, 5.872977, 0.071078, -0.427692, 0.860524, 0.876529, 134.645523, 148.686188, -548.616516, , 
1759229470.387073, 1.822586, 5.904700, 1.036989, -0.657247, 0.223431, 0.980216, 134.950714, 147.494339, -548.393066, , 
1759229470.406939, 1.695394, 6.696582, 0.534206, -0.952123, -0.544034, 1.136459, 135.637085, 146.312485, -548.790710, , 
1759229470.427093, 1.405995, 7.850438, 0.845602, -1.384584, -1.332644, 1.262571, 136.429855, 144.412277, -548.888367, , 
1759229470.447094, 0.498293, 10.270975, -1.807922, -1.380703, -1.347346, 1.291012, 137.565399, 142.872314, -550.139832, , 
1759229470.466720, -0.357035, 10.657639, -3.524863, -0.941640, -0.803691, 1.306938, 138.407898, 141.139755, -550.609924, , 
1759229470.486589, -1.524358, 9.636213, -3.626617, -0.758564, -0.079784, 1.203640, 138.766800, 139.580383, -549.928040, , 
1759229470.506950, -2.211045, 10.574141, -4.403685, -0.846620, 0.713885, 1.127268, 138.393021, 138.361221, -549.783081, , 
1759229470.527061, -5.278317, 10.413131, -4.546739, -0.590981, 0.277767, 0.824328, 138.432526, 137.351028, -548.462891, , 
1759229470.547064, -7.907150, 8.434772, -5.270087, 0.127175, -1.559992, -0.111657, 139.373108, 137.658813, -550.727966, , 
1759229470.567058, -5.857714, 7.781455, -4.138078, 0.580306, -2.031799, -0.956659, 140.570831, 138.479523, -552.487793, , 
1759229470.586974, -1.682076, 8.180987, 0.456694, 0.275499, -0.808068, -1.054369, 141.068970, 139.468033, -552.882751, , 
1759229470.606961, 0.108188, 6.804620, 1.892018, -0.159166, -1.192655, -0.701937, 141.790649, 140.236084, -553.853943, , 
1759229470.627059, -1.225233, 4.594772, -2.278532, 0.009520, -1.332393, -0.205951, 142.941818, 140.510910, -554.347168, , 
1759229470.646733, -0.787243, 5.095609, -3.057695, 0.324355, -1.087284, 0.304636, 143.176132, 140.599289, -556.061157, , 
1759229470.667071, -1.341052, 5.309441, -2.922722, 0.289114, -0.025795, 0.630804, 143.498169, 140.032013, -556.296509, , 
1759229470.687041, -0.814477, 6.405537, -3.624522, -0.045238, 0.765905, 0.686441, 143.472305, 139.500961, -554.677002, , 
1759229470.706986, -1.310975, 15.644163, -5.993734, -0.163813, 0.076316, 0.487984, 143.779327, 138.905487, -554.511658, , 
1759229470.727069, -2.651878, 17.583915, 6.555175, -0.071575, 0.310942, -0.044507, 144.006119, 138.904022, -553.926270, , 
1759229470.747087, 0.450110, 13.535918, 7.830835, -0.414120, 0.143262, 0.049809, 144.019363, 138.823120, -554.683594, , 
1759229470.767084, 4.475661, 23.339426, 5.827038, -1.626390, -1.085792, 0.433907, 144.762802, 138.009674, -554.568115, , 
1759229470.787040, 5.018845, 34.529326, -1.283442, -1.550996, -0.532428, 1.006909, 144.379166, 136.367767, -555.603088, , 
1759229470.807005, -5.601833, 13.871556, -16.053870, 0.365307, -3.870650, -0.430720, 146.399307, 137.115417, -559.631714, , 
1759229470.827063, 2.203114, 9.171588, -5.013758, 1.369613, -0.187663, -0.336453, 146.572952, 137.794708, -560.012085, , 
1759229470.847069, 1.512387, 8.618976, 3.934571, 1.565577, 2.000612, -0.114097, 145.615433, 138.489716, -559.040344, , 
1759229470.867069, 1.540369, 9.081506, 10.690410, 0.632489, 1.436337, -0.296209, 145.293152, 139.077240, -556.906860, , 
1759229470.887066, 3.920505, 8.502558, 15.157691, -1.113182, -2.851067, 0.189476, 146.047592, 139.079239, -559.657227, , 
1759229470.907007, 0.024541, 5.863849, -0.134075, -1.939959, -1.871829, -0.067148, 146.654343, 138.628693, -562.140076, , 
1759229470.927065, 3.181595, 6.952013, -3.173365, -2.220864, -0.606467, 0.078112, 147.062973, 137.797562, -561.760620, , 
1759229470.947066, 5.247791, 8.379706, -7.870938, -0.822958, -1.750213, 0.865863, 147.270401, 136.920807, -564.079102, , 
1759229470.967081, 2.532317, 8.247127, -4.951359, 0.177364, -1.496169, 1.354006, 147.811569, 135.596680, -565.472046, , 
1759229470.987038, -1.473182, 8.708160, 0.568623, -0.150590, -0.538995, 1.474034, 147.894302, 134.042633, -566.273621, , 
1759229471.007032, -3.956867, 10.713155, 2.068141, -0.642334, 0.608834, 1.094954, 147.763199, 132.668350, -565.756836, , 
1759229471.027060, -5.079897, 11.727698, 0.844704, -0.536823, 0.412221, 0.647317, 147.549393, 131.740387, -564.589661, , 
1759229471.047058, -5.995231, 11.684303, 0.228347, -0.032125, -0.175943, 0.151503, 147.512741, 131.651733, -565.164246, , 
1759229471.067056, -1.854608, 12.960113, 1.673397, 0.401943, -1.242915, -0.086278, 147.277542, 131.789505, -566.641968, , 
1759229471.087036, 1.155651, 11.561001, 0.766145, -0.053531, -1.270642, -0.179551, 147.469666, 132.059280, -567.776001, , 
1759229471.107047, 2.370858, 9.607333, -2.537704, -0.078626, 0.036469, -0.072271, 147.881592, 132.322128, -568.924805, , 
1759229471.127062, 1.207875, 8.739884, -2.534262, 0.649687, 1.253697, 0.476481, 147.647781, 131.960144, -566.316223, , 
1759229471.147059, -0.401178, 8.464550, 0.575955, 0.647414, 1.063667, 0.584391, 147.027756, 131.597992, -565.827881, , 
1759229471.167058, 0.515801, 8.308179, 2.076222, 0.207265, -0.248574, 0.389475, 147.194763, 131.197083, -565.756287, , 
1759229471.187035, 1.230171, 8.801983, 2.108543, -0.202717, -1.015568, 0.217192, 147.343979, 131.097015, -566.760559, , 
1759229471.207041, 1.004667, 9.240272, 1.623718, -0.488573, -0.990012, 0.173696, 147.600235, 130.880585, -568.041443, , 
1759229471.227063, 0.726640, 10.016592, 0.463727, -0.512080, -0.646212, 0.214361, 147.666672, 130.560822, -568.290894, , 
1759229471.247046, 0.774225, 10.497527, -1.624915, -0.362067, -0.438020, 0.162884, 147.635208, 130.452728, -569.211914, , 
1759229471.267045, 1.382502, 10.672004, -1.898752, -0.131460, -0.188842, 0.143376, 147.768143, 130.204239, -569.244934, , 
1759229471.287035, 2.345420, 10.224887, -0.888997, 0.169055, -0.134512, 0.184116, 147.636215, 130.187958, -569.105652, , 
1759229471.307039, 2.502240, 10.693702, -0.360627, 0.218431, -0.329899, 0.216196, 147.623764, 130.041489, -570.356140, , 
1759229471.327056, 2.120365, 10.685921, -0.377536, 0.221298, -0.491861, 0.131265, 147.568466, 129.977509, -569.908569, , 
1759229471.347041, 1.614440, 9.432556, 0.609923, 0.202578, -0.508987, 0.029097, 147.901474, 129.892776, -570.625366, , 
1759229471.367036, 1.832462, 8.703522, 1.174356, 0.043702, -0.587305, 0.018381, 147.665253, 129.870193, -571.269287, , 
1759229471.387074, 1.811962, 8.565406, 1.026664, -0.013692, -0.660627, 0.052997, 147.797653, 129.846420, -572.022644, , 
1759229471.407057, 1.330727, 8.850017, 0.709133, -0.102702, -0.838505, 0.104674, 148.128906, 129.853622, -573.196533, , 
1759229471.427074, 0.973093, 9.104700, 0.507421, -0.164626, -1.043872, 0.094872, 147.988800, 129.477997, -573.920166, , 
1759229471.447061, 1.212962, 9.678560, 0.405668, -0.218027, -1.236864, 0.047720, 147.569290, 129.640518, -575.465698, , 
1759229471.467062, 1.618630, 10.291027, 0.184054, -0.253123, -1.241549, 0.012064, 147.677673, 129.527161, -576.818726, , 
1759229471.487029, 2.061707, 10.649259, -0.143203, -0.223011, -1.077470, -0.021048, 147.633484, 129.529343, -577.848938, , 
1759229471.507055, 2.454057, 10.602722, -0.042347, -0.121429, -1.003644, -0.036483, 147.500473, 129.664062, -579.545410, , 
1759229471.527062, 2.296638, 10.224737, 0.284611, -0.018467, -1.059941, 0.003562, 147.566666, 129.470627, -579.918640, , 
1759229471.547061, 1.865382, 9.812187, 0.206350, 0.051145, -1.068383, 0.063872, 147.575623, 129.614136, -581.580872, , 
1759229471.567059, 1.041178, 9.315839, 0.101604, 0.063708, -1.091650, 0.102419, 147.189240, 129.353455, -582.854736, , 
1759229471.587032, 0.220267, 9.272893, 0.210091, 0.041707, -1.072402, 0.123045, 146.737915, 129.285797, -583.351257, , 
1759229471.607044, -0.627730, 9.295488, 0.234183, 0.036053, -0.985064, 0.113892, 146.512054, 129.142792, -584.500854, , 
1759229471.627048, -1.170316, 9.469217, 0.707786, 0.022633, -0.828390, 0.094525, 146.549728, 128.949600, -584.764587, , 
1759229471.647046, -1.247529, 9.723601, 0.529867, -0.025751, -0.591393, 0.073158, 146.291595, 129.059982, -585.578735, , 
1759229471.666840, -0.988356, 9.954941, -0.154576, -0.035309, -0.267196, 0.055400, 146.421829, 128.882980, -585.866516, , 
1759229471.687024, -0.530016, 10.141539, -0.369455, -0.024863, -0.005720, 0.036898, 146.218231, 128.982773, -586.157898, , 
1759229471.707046, 0.310498, 10.021979, -0.396091, 0.006032, 0.089454, 0.025564, 146.259262, 128.966827, -586.436523, , 
1759229471.727046, 1.062726, 9.787197, -0.323217, 0.031397, 0.095562, 0.039246, 146.248795, 128.911087, -585.593384, , 
1759229471.747043, 1.865981, 9.861567, -0.423923, 0.033811, 0.098141, 0.075727, 146.409653, 128.992081, -585.938965, , 
1759229471.767104, 2.147749, 9.476400, -0.532111, 0.042112, 0.101952, 0.152792, 146.318466, 128.748627, -585.794189, , 
1759229471.787023, 1.522862, 9.164705, -0.332644, 0.071499, 0.175244, 0.218270, 146.131165, 128.531570, -585.550720, , 
1759229471.807044, 1.031452, 9.321675, -0.014515, 0.088284, 0.212701, 0.234058, 146.107697, 128.356659, -585.307129, , 
1759229471.827043, 0.544831, 9.527426, 0.262464, 0.063040, 0.171270, 0.208664, 146.246292, 127.955887, -584.660095, , 
1759229471.847049, 0.501286, 9.435698, 0.184802, 0.015386, 0.099589, 0.160383, 146.320312, 128.076065, -585.228271, , 
1759229471.867104, 0.712874, 9.609727, -0.201412, -0.014062, 0.130161, 0.125887, 146.545151, 127.881989, -584.712769, , 
1759229471.887043, 0.766593, 9.823110, -0.232088, -0.005879, 0.195583, 0.117855, 146.461273, 127.713211, -584.593262, , 
1759229471.907046, 0.695665, 9.740211, -0.285957, 0.025849, 0.255372, 0.128319, 146.524658, 127.626785, -584.397461, , 
1759229471.927047, 0.711078, 9.753828, -0.339079, 0.093125, 0.326322, 0.135416, 146.479996, 127.430649, -583.673706, , 
1759229471.947046, 0.757615, 9.942820, -0.387112, 0.145780, 0.399762, 0.127064, 146.684967, 127.431580, -583.593323, , 
1759229471.967046, 0.780809, 10.090961, -0.254833, 0.172101, 0.462816, 0.121315, 146.841217, 127.278671, -583.191833, , 
1759229471.987021, 0.806996, 9.890447, 0.044442, 0.173502, 0.540190, 0.127381, 146.790207, 127.256378, -582.653198, , 
1759229472.007041, 0.926107, 9.849147, 0.240318, 0.165946, 0.598196, 0.128320, 147.065140, 127.008987, -582.223938, , 
1759229472.027052, 1.179893, 9.811588, 0.348506, 0.164861, 0.604658, 0.137204, 147.104080, 126.855728, -581.085693, , 
1759229472.047046, 1.435474, 9.737667, 0.257826, 0.148689, 0.593041, 0.145074, 147.198578, 126.994400, -581.117920, , 
1759229472.067039, 1.498770, 9.607482, 0.035314, 0.152262, 0.614841, 0.147498, 147.377762, 126.951187, -580.088806, , 
1759229472.087022, 1.453280, 9.726594, -0.100257, 0.179419, 0.678020, 0.136395, 147.492523, 126.848312, -579.747864, , 
1759229472.107047, 1.552640, 9.691429, 0.134823, 0.205266, 0.683821, 0.120948, 147.559616, 126.622070, -578.844116, , 
1759229472.127044, 1.618480, 9.589526, 0.344466, 0.177480, 0.630071, 0.088757, 147.352325, 126.646042, -577.285583, , 
1759229472.147041, 1.777096, 9.517550, 0.352097, 0.140529, 0.560626, 0.061254, 147.491150, 126.630219, -577.528687, , 
1759229472.167041, 1.765125, 9.603592, 0.434099, 0.098250, 0.530653, 0.048215, 147.765625, 126.707443, -576.735657, , 
1759229472.187019, 1.748665, 9.615862, 0.502483, 0.058123, 0.534418, 0.038729, 147.888626, 126.626312, -576.567871, , 
1759229472.207046, 1.723825, 9.642348, 0.375890, 0.058667, 0.557336, 0.040861, 147.852783, 126.805984, -575.829468, , 
1759229472.227041, 1.812710, 9.622596, 0.337732, 0.066117, 0.598798, 0.042196, 147.744766, 126.721085, -574.697144, , 
1759229472.247041, 2.084751, 9.526828, 0.271443, 0.056975, 0.608995, 0.059761, 148.094025, 126.736969, -574.677124, , 
1759229472.267045, 2.271499, 9.438691, 0.125696, 0.047297, 0.632891, 0.088287, 147.914917, 126.749725, -574.043091, , 
1759229472.287020, 2.366968, 9.346963, -0.040851, 0.044196, 0.641015, 0.135315, 148.060806, 126.736710, -573.409058, , 
1759229472.307051, 2.168399, 9.409661, -0.272939, 0.061611, 0.685344, 0.183692, 148.158844, 126.601288, -572.590576, , 
1759229472.327039, 1.716942, 9.627983, -0.381576, 0.081841, 0.724061, 0.219491, 148.218277, 126.248169, -571.393738, , 
1759229472.347040, 1.315614, 9.718663, -0.338780, 0.094915, 0.705990, 0.236179, 148.013184, 126.231598, -570.938721, , 
1759229472.367041, 1.121235, 9.841665, -0.407762, 0.105293, 0.626078, 0.219501, 148.178055, 125.886230, -570.004028, , 
1759229472.387046, 1.011999, 9.586533, -0.463727, 0.127728, 0.606538, 0.164456, 148.256485, 125.801453, -569.830200, , 
1759229472.407044, 1.091606, 9.566931, -0.669778, 0.164604, 0.633720, 0.095167, 148.176239, 125.829453, -569.018921, , 
1759229472.427040, 1.155651, 9.613468, -1.091756, 0.243285, 0.662367, 0.016381, 148.030334, 125.865234, -567.648865, , 
1759229472.447039, 1.262492, 9.488820, -1.503559, 0.382931, 0.638100, -0.092506, 148.098724, 125.975250, -567.284363, , 
1759229472.467043, 1.222689, 9.473108, -1.667113, 0.542516, 0.393854, -0.228391, 148.114716, 126.242859, -566.508545, , 
1759229472.487017, 1.089960, 9.685593, -1.654842, 0.681683, -0.118162, -0.442301, 148.191711, 126.976364, -567.037781, , 
1759229472.507038, 0.475848, 10.116101, -1.576731, 0.719157, -0.738110, -0.742434, 148.739212, 127.828629, -567.098938, , 
1759229472.527042, -0.264709, 10.639832, -1.215955, 0.568895, -1.257062, -1.047156, 149.097214, 129.063583, -567.568848, , 
1759229472.547036, -1.246332, 10.901698, -0.709582, 0.278376, -1.525061, -1.342131, 149.644379, 130.779648, -569.743164, , 
1759229472.567039, -0.750582, 11.355998, -1.401955, 0.025085, -1.679516, -1.453043, 150.015137, 132.338501, -571.091858, , 
1759229472.587015, 1.203386, 11.771392, -3.738845, -0.137222, -1.218375, -1.352453, 150.044678, 134.272415, -573.154114, , 
1759229472.607045, 3.424756, 11.518953, -4.793042, 0.114475, 0.277428, -1.070742, 150.267334, 135.639160, -573.664795, , 
1759229472.627017, 2.822464, 10.725724, -1.838747, 0.618978, 1.690016, -0.725029, 150.337204, 136.439850, -571.736389, , 
1759229472.647057, 1.095946, 10.283545, 0.872986, 0.657049, 0.800471, -0.627337, 150.251144, 137.321503, -570.936035, , 
1759229472.667056, 0.270994, 9.496002, 0.546477, 0.237675, -0.231491, -0.793167, 150.381714, 138.381104, -570.575684, , 
1759229472.687015, 0.615160, 8.630199, -0.078560, -0.044825, -0.672960, -0.912722, 150.342392, 139.587997, -571.267944, , 
1759229472.707039, 0.349553, 8.223335, -0.836624, -0.227119, -0.624094, -0.961816, 150.394852, 140.895264, -572.158203, , 
1759229472.727037, -0.221164, 8.230367, -1.463605, -0.232859, -0.380404, -0.919115, 150.627365, 141.908890, -572.200378, , 
1759229472.747068, -0.211438, 8.382848, -2.252345, -0.132958, 0.129185, -0.832329, 150.507248, 142.964874, -572.794434, , 
1759229472.767059, 0.034117, 8.536975, -2.271499, 0.043578, 0.550245, -0.709965, 150.468628, 143.658478, -571.790588, , 
1759229472.786076, 0.358981, 8.510788, -2.312350, 0.186902, 0.715169, -0.529113, 150.217499, 144.621338, -571.238403, , 
1759229472.807042, 0.646285, 7.663690, -1.867477, 0.185385, 0.575220, -0.436078, 150.028732, 145.242371, -570.561462, , 
1759229472.827035, 0.594061, 7.280618, -1.910423, 0.123924, 0.251866, -0.393332, 150.189240, 145.941772, -569.917175, , 
1759229472.847052, -0.029628, 7.344363, -1.684471, 0.028828, -0.121504, -0.256156, 150.304077, 146.373123, -570.222778, , 
1759229472.867041, -0.836025, 7.735067, -1.653795, -0.060891, -0.422992, -0.136356, 150.433533, 146.370941, -569.972107, , 
1759229472.887060, -1.642123, 7.580491, -2.117522, -0.138494, -0.414655, -0.013632, 150.598694, 146.948471, -571.037537, , 
1759229472.907043, -1.890521, 7.707683, -2.242020, -0.306511, -0.333661, 0.137118, 150.921585, 146.767044, -571.303467, , 
1759229472.927049, -1.970727, 8.844331, -3.093159, -0.528625, -0.033828, 0.304111, 151.083908, 146.488388, -570.995972, , 
1759229472.947054, -2.719065, 10.009858, -3.277512, -0.660082, 0.366975, 0.407793, 151.634338, 146.374176, -571.060547, , 
1759229472.967044, -3.571700, 10.743381, -2.467823, -0.635487, 0.172718, 0.550661, 151.821793, 145.613983, -569.976318, , 
1759229472.987019, -4.235941, 11.715876, -1.788020, -0.526124, -0.245026, 0.556114, 151.758713, 145.333420, -570.674316, , 
1759229473.007040, -3.402609, 11.949460, -2.867356, -0.326771, -0.250010, 0.383470, 151.989883, 145.113739, -571.127991, , 
1759229473.027043, 0.482881, 12.100744, -1.752256, -0.245317, -1.224522, 0.897044, 152.169250, 144.452255, -571.180786, , 
1759229473.047060, 2.497601, 13.542652, -1.361553, -0.205347, -2.612501, 1.774273, 152.156891, 143.204224, -574.092529, , 
1759229473.067044, 2.397494, 15.124022, -0.660351, -0.384008, -3.329650, 1.754849, 151.681610, 141.072769, -577.264404, , 
1759229473.087017, 5.392341, 12.153865, -7.149834, -0.264114, -1.361554, 0.691710, 150.905853, 140.020752, -581.759827, , 
1759229473.107039, 3.010409, 7.755567, 0.091877, -0.159530, -1.048722, -0.514196, 151.799088, 140.275696, -582.112976, , 
1759229473.127015, 2.556259, 5.867590, 2.211494, -0.356205, -1.717468, -0.006800, 151.649796, 140.704376, -582.943604, , 
1759229473.147038, 2.259528, 5.755362, 2.556110, -0.098037, -1.679730, 0.606171, 151.667633, 140.234940, -585.559204, , 
1759229473.167042, 2.114529, 7.149834, 5.942708, -0.167512, -1.035975, 0.844237, 151.068451, 139.489044, -586.527466, , 
1759229473.187015, 2.149544, 9.243863, 4.618116, -0.394971, -0.480433, 1.038628, 151.020035, 138.353790, -587.939087, , 
1759229473.207036, -0.084695, 12.193669, 1.178546, -0.475792, 0.260875, 0.786101, 150.904282, 137.468842, -587.960693, , 
1759229473.227083, -2.615815, 13.693936, 1.164330, -1.552405, 0.372929, 0.320685, 151.397781, 137.087494, -586.577637, , 
1759229473.247020, -3.379865, 10.967987, 0.220267, -1.624844, -0.918384, -0.122534, 151.684128, 137.502411, -587.361633, , 
1759229473.267008, -2.911948, 8.625111, -0.115670, -0.659862, -2.192422, -0.214763, 151.162292, 137.993347, -588.369751, , 
1759229473.287015, -0.018106, 8.488343, -1.007510, -0.230068, -2.141813, -0.204962, 150.190826, 138.601578, -591.839294, , 
1759229473.307038, 1.971625, 9.687239, -2.254739, -0.412188, -1.529216, -0.121227, 149.662918, 138.917480, -593.477051, , 
1759229473.327014, 2.881721, 9.517700, -1.113902, -0.287780, -0.478075, 0.216543, 149.450256, 138.976547, -593.876038, , 
1759229473.347034, 2.209399, 9.332448, 1.172411, -0.204055, -0.742195, 0.301194, 149.685471, 138.802002, -594.923340, , 
1759229473.367057, 0.101005, 9.539248, 2.591274, -0.428722, -1.241254, 0.279363, 149.275375, 138.438156, -595.538513, , 
1759229473.387037, -0.020051, 9.700856, 2.354398, -0.490250, -1.265321, 0.297702, 148.870270, 138.570297, -597.420166, , 
1759229473.407037, -0.467618, 9.584139, 1.109413, -0.603419, -0.905564, 0.202440, 148.553345, 138.705093, -597.895081, , 
1759229473.427043, -0.559495, 9.243713, -0.500987, -0.706189, -0.790877, 0.061905, 148.540649, 138.897339, -599.014771, , 
1759229473.447037, 0.043245, 9.340679, -1.453430, -0.518745, -0.809436, 0.116767, 148.345779, 139.103012, -600.598877, , 
1759229473.467036, 1.303942, 9.701305, 0.317232, -0.389584, -0.744066, 0.356783, 148.291077, 138.848114, -600.377441, , 
1759229473.487008, 0.897975, 9.211691, 0.843956, -0.418109, -0.398766, 0.543402, 148.018372, 138.745804, -601.580444, , 
1759229473.507027, -0.568324, 9.919028, 0.044143, -0.304930, -0.214796, 0.616859, 148.265518, 138.320038, -601.694580, , 
1759229473.527031, -1.326986, 10.405500, -0.142156, -0.260074, -0.107267, 0.564824, 148.463211, 138.013214, -601.652161, , 
1759229473.547036, -1.564910, 10.485406, 0.396390, 0.004861, -0.209667, 0.421332, 148.521652, 137.776276, -602.250244, , 
1759229473.566228, -0.794725, 10.005518, 1.111807, 0.141202, -0.492361, 0.227633, 148.458740, 137.331757, -601.915649, , 
1759229473.586585, 1.028609, 9.671976, -1.010054, 0.132511, -0.280460, -0.102960, 148.620712, 137.635162, -602.849365, , 
1759229473.607025, 1.635539, 11.470620, -2.127099, 0.421565, -0.171575, -0.093012, 149.235947, 137.512024, -602.762512, , 
1759229473.627027, 0.478391, 14.304307, -1.364695, 1.004149, -0.308013, -0.165541, 148.990570, 137.268326, -602.227905, , 
1759229473.646718, -0.042497, 14.174871, -0.266654, 1.298136, -0.825266, -0.519904, 148.455017, 137.079758, -603.397949, , 
1759229473.667033, 0.801160, 12.497733, -2.894739, 1.912789, -1.929369, -1.305228, 147.886703, 137.492065, -604.233154, , 
1759229473.686580, 2.765303, 11.806557, -3.808576, 2.736619, -2.801204, -1.583286, 145.988098, 137.902344, -607.310486, , 
1759229473.707028, 2.832341, 13.288268, -1.700781, 2.690916, -2.996408, -2.042523, 144.506180, 138.080719, -609.532532, , 
1759229473.727027, 4.725855, 13.816489, 2.801665, 1.960259, -3.800386, -1.739879, 141.860977, 138.625061, -612.251099, , 
1759229473.747032, 2.292298, 11.064653, 5.019145, 0.473066, -3.123691, -1.480930, 139.351181, 139.827301, -615.423218, , 
1759229473.767040, 2.510620, 9.141361, -0.376638, -0.218452, -2.787167, -1.198688, 136.972870, 141.443878, -616.970459, , 
1759229473.787002, -0.754174, 8.287230, -4.793491, 0.581463, -1.329730, -1.076626, 135.686142, 142.399338, -618.497437, , 
1759229473.807028, -1.357662, 8.967632, -1.077540, 0.850373, -0.291998, -1.156555, 135.069641, 142.757874, -617.968750, , 
1759229473.827024, -0.946159, 9.242965, -0.706140, 0.856962, -0.284680, -1.148706, 134.786484, 143.289047, -617.558777, , 
1759229473.847029, 0.453402, 9.271247, -0.983418, 0.665575, 0.301925, -1.006005, 134.581192, 143.956894, -617.969971, , 
1759229473.867026, 1.209521, 8.030601, 0.276530, 0.533880, 0.480905, -0.940414, 134.870422, 144.526779, -616.968994, , 
1759229473.887030, 2.394202, 6.488137, 0.794576, 0.422588, 0.455730, -0.792942, 134.905823, 145.276093, -616.598816, , 
1759229473.907037, 3.135057, 5.159505, 1.004667, 0.149548, 0.335312, -0.602140, 135.465637, 145.661545, -615.315186, , 
1759229473.927041, 2.847903, 5.014955, 0.264859, -0.280748, -0.115653, -0.448971, 135.417587, 146.708328, -615.539978, , 
1759229473.947039, 2.077120, 5.497835, -0.495151, -0.650854, -0.488652, -0.224624, 135.155563, 147.676437, -616.058167, , 
1759229473.967036, 1.919551, 5.962909, -0.402376, -0.850173, -0.731895, 0.117077, 134.629074, 148.547302, -615.400146, , 
1759229473.987014, 1.932719, 5.890335, 0.149338, -0.952392, -0.727664, 0.491700, 134.018845, 149.252457, -616.695801, , 
1759229474.007038, 2.133383, 5.462820, 0.978929, -1.126303, -0.891419, 0.833539, 133.966522, 149.853058, -616.580566, , 
1759229474.027041, 1.577480, 5.358972, -0.009427, -1.237137, -1.017656, 1.150102, 133.472321, 150.429337, -617.394043, , 
1759229474.047040, 2.050634, 5.925948, 0.019453, -1.497758, -1.112461, 1.496811, 133.651001, 150.845978, -618.014099, , 
1759229474.067025, 2.358588, 9.613917, -1.377863, -1.879777, -1.385187, 2.395943, 133.445999, 150.862320, -617.908325, , 
1759229474.087005, -5.441721, 18.022353, -4.326622, -1.179903, -2.161413, 1.994858, 132.189819, 150.653961, -619.640625, , 
1759229474.107030, -16.019903, 21.676952, -1.694047, -0.868892, -2.691629, -1.168143, 131.004623, 151.839493, -620.802856, , 
1759229474.127036, -13.687501, 21.141998, -6.999000, -0.632500, -1.914325, -2.581095, 128.939911, 154.471176, -620.657410, , 
1759229474.147049, -5.612009, 16.296583, -5.656301, 0.373309, -2.274486, -1.481171, 126.895432, 156.062683, -622.349792, , 
1759229474.167028, 0.524480, 14.353838, -0.622343, 1.144637, -3.192893, 0.897283, 122.855392, 154.990738, -624.240051, , 
1759229474.187023, 4.573224, 16.079608, -1.688810, 1.017765, -2.300516, 1.407896, 118.502258, 152.595490, -626.546143, , 
1759229474.207044, 3.809175, 6.352416, -3.972280, 0.848675, 1.524587, 0.321319, 120.693283, 151.753998, -626.162109, , 
1759229474.227014, 7.133673, 4.081066, 4.773589, -0.165769, 2.054450, -0.114229, 122.516922, 152.213562, -624.063660, , 
1759229474.247027, 6.340594, 1.730260, 3.751564, -0.745168, 1.020636, 0.067382, 123.753067, 153.004807, -623.209412, , 
1759229474.267002, 6.468235, 4.078971, 1.608155, -0.754217, 0.188904, 0.541353, 124.237259, 153.182114, -622.504883, , 
1759229474.286999, 8.230667, 9.489119, 3.055151, 0.123973, -1.499954, 1.646854, 123.158951, 152.032425, -622.987793, , 
1759229474.306110, 4.399645, 13.193548, 1.919850, 0.546202, -1.376558, 1.941254, 122.675262, 151.358231, -623.516113, , 
1759229474.327015, -0.014814, 14.398430, 2.677466, -0.350044, -0.170030, 1.265286, 122.862289, 150.036438, -623.282227, , 
1759229474.347013, -3.259706, 13.197737, 2.850896, -1.276047, -0.084936, 0.189772, 122.952118, 151.335175, -623.301880, , 
1759229474.367009, -3.436727, 11.045949, 1.843535, -1.215250, -1.111253, -0.140275, 122.261185, 152.376221, -623.851318, , 
1759229474.387010, -3.397522, 8.050503, 0.776320, -0.637162, -2.477355, -0.192663, 119.582596, 153.013779, -624.916199, , 
1759229474.407004, -2.423680, 7.074417, -0.907402, -0.198255, -2.692928, -0.237611, 116.498260, 153.431992, -625.979614, , 
1759229474.427003, 1.083825, 9.385719, -0.834978, -0.243970, -2.290053, -0.299064, 114.249817, 153.572998, -626.114563, , 
1759229474.447061, 2.523937, 9.862614, 0.452205, -0.187468, -2.127069, 0.009739, 112.101196, 153.992844, -627.177185, , 
1759229474.467026, 1.549647, 9.304466, 1.349432, -0.281684, -1.393853, 0.266842, 110.537933, 154.297745, -627.811829, , 
1759229474.486999, 0.572065, 9.363124, 1.571344, -0.404128, -1.196645, 0.421764, 109.405609, 154.469116, -627.323975, , 
1759229474.507022, -1.017236, 9.578303, 0.570718, -0.513064, -1.580278, 0.390572, 108.245575, 154.912781, -628.412598, , 
1759229474.527026, -1.631050, 9.781212, -0.424522, -0.466932, -1.689763, 0.294317, 106.591080, 155.252548, -627.094299, , 
1759229474.547028, -1.087416, 10.395175, -0.709731, -0.294906, -1.282768, 0.372886, 105.538376, 155.812439, -628.349304, , 
1759229474.567029, -1.941548, 10.645069, -0.656610, -0.342809, -0.598212, 0.469893, 105.293076, 155.998077, -628.066589, , 
1759229474.587002, -2.644845, 9.757868, -0.184952, -0.162643, 0.017534, 0.492797, 105.436844, 156.288177, -627.236450, , 
1759229474.607022, -2.418443, 10.026767, 1.032499, 0.079492, -0.005838, 0.516349, 105.346756, 156.168961, -627.910400, , 
1759229474.627031, -0.392799, 9.796175, 1.548899, 0.148787, -0.829871, 0.347590, 104.288895, 155.868896, -627.087158, , 
1759229474.647026, 2.584391, 9.192986, -0.416142, 0.026745, -0.978499, -0.133548, 103.331161, 155.910156, -628.122253, , 
1759229474.667028, 4.675427, 10.219051, -0.426318, 0.083172, -1.043933, 0.017343, 102.264160, 155.985870, -628.190918, , 
1759229474.686998, 2.161665, 9.969456, -0.366911, 0.293525, -0.882254, 0.223588, 101.798508, 155.589005, -627.020996, , 
1759229474.707025, -1.093103, 10.913070, 1.207426, 0.630296, -0.952720, 0.202685, 100.524384, 154.964645, -627.674072, , 
1759229474.727029, -1.542464, 11.710489, 1.829469, 0.747696, -1.432783, -0.390434, 98.735199, 154.147949, -627.689087, , 
1759229474.747028, 0.392499, 11.278934, -0.160112, 0.912372, -1.883731, -0.990594, 96.456940, 153.518616, -628.263794, , 
1759229474.767029, 2.740164, 11.475259, -0.824952, 1.386435, -2.751195, -1.098327, 93.097717, 152.085068, -628.520569, , 
1759229474.786992, 4.181623, 12.167931, -2.112733, 1.723977, -3.197665, -1.083099, 89.646301, 150.247665, -627.985596, , 
1759229474.807034, 5.789180, 12.074109, -3.931429, 1.908698, -2.738576, -0.818509, 86.306427, 147.917313, -628.233337, , 
1759229474.827029, 5.071817, 10.592547, -1.648857, 2.081187, -2.594140, -0.554618, 83.459900, 145.599716, -627.326782, , 
1759229474.847022, 2.007837, 8.942343, 1.545906, 1.458463, -2.535577, -0.637358, 80.802887, 144.049530, -627.387085, , 
1759229474.867024, 0.520290, 9.406369, 1.765873, 0.672950, -2.109948, -0.817813, 78.565628, 142.794266, -626.309753, , 
1759229474.887000, -0.179116, 9.909451, -0.116418, 0.603585, -1.764927, -0.691933, 76.502029, 142.003098, -625.168701, , 
1759229474.907031, -0.659603, 9.716119, 0.034267, 0.636717, -1.285782, -0.509197, 75.221725, 141.126358, -624.994751, , 
1759229474.927028, -0.850391, 9.476849, 1.114052, 0.351241, -1.128760, -0.403386, 73.947586, 140.494385, -623.248474, , 
1759229474.947023, -0.352546, 9.102156, -0.417788, 0.136400, -0.704861, -0.236639, 73.248734, 140.493820, -624.179199, , 
1759229474.967028, 0.380379, 8.265233, -0.946009, -0.039963, -0.078383, -0.045306, 72.939163, 140.368790, -623.901245, , 
1759229474.987000, 1.403750, 6.861483, -0.444124, -0.159607, 0.215917, 0.206041, 73.222168, 140.698730, -623.438782, , 
1759229475.006200, 2.224962, 5.408502, 0.079308, -0.256638, 0.208662, 0.563480, 73.066971, 141.317505, -624.251953, , 
1759229475.026683, 2.860772, 4.859631, 0.865654, -0.418346, -0.243052, 0.894014, 73.163574, 141.918961, -622.996460, , 
1759229475.047016, 3.348141, 5.763891, 0.683545, -0.877161, -0.962994, 1.184016, 72.040176, 143.638428, -623.565796, , 
1759229475.067017, 3.012205, 6.714090, 0.647482, -1.347122, -1.726462, 1.387718, 70.914658, 145.226868, -622.512695, , 
1759229475.086991, 2.919430, 7.889643, -0.358083, -1.290630, -1.931494, 1.569817, 69.397064, 147.192551, -621.437134, , 
1759229475.107015, 2.998139, 10.441413, -1.247828, -0.794445, -0.568501, 1.734316, 68.878601, 149.010681, -621.353882, , 
1759229475.127022, 0.434847, 12.666674, -3.272574, -0.642731, 2.345771, 1.742080, 71.282364, 150.591782, -620.501953, , 
1759229475.147019, -0.475548, 16.413300, -2.284517, -0.761011, 4.534516, 1.848327, 75.852066, 152.265503, -623.334900, , 
1759229475.166924, -4.136283, 19.182793, -2.110040, -0.563422, 2.609908, 0.865773, 79.085297, 153.123550, -623.829834, , 
1759229475.186535, -4.767753, 14.659098, -2.804807, -0.679119, -2.876981, -0.301562, 77.551926, 153.771317, -622.520996, , 
1759229475.207050, -3.506608, 9.443629, -4.376750, -0.403508, -4.136427, -0.812961, 73.286972, 154.037338, -621.704712, , 
1759229475.227000, -0.514155, 7.305757, -4.840776, 0.239291, -3.436993, -1.102222, 69.324509, 153.352921, -619.531189, , 
1759229475.246994, 4.569932, 6.880936, -5.521029, 0.780831, -1.682285, -1.104782, 67.071869, 152.242493, -619.510010, , 
1759229475.267007, 5.159505, 6.385934, -4.775983, 0.740203, -0.545281, -0.820142, 67.424728, 151.036362, -619.345215, , 
1759229475.286015, 3.607763, 6.737732, -0.205901, 0.203618, 1.544401, -0.138193, 69.038940, 150.730209, -619.990967, , 
1759229475.306257, 1.600225, 8.589198, 1.493982, 0.095380, 2.127760, 0.437030, 71.338730, 150.694687, -621.807007, , 
1759229475.327039, 0.963965, 10.424204, 3.264344, 0.578325, 0.904264, 0.815903, 72.405579, 150.449951, -621.853516, , 
1759229475.347012, 1.138293, 10.854562, 3.263895, 0.395021, 0.430532, 0.739572, 72.641693, 150.641586, -622.573181, , 
1759229475.367026, 1.040879, 11.017069, 1.238401, -0.528366, 0.228251, 0.377097, 73.401642, 151.635956, -622.143494, , 
1759229475.386621, 0.264559, 10.894815, -0.990900, -1.197659, 0.088469, -0.029563, 73.120850, 152.446991, -621.647827, , 
1759229475.406271, 0.756418, 9.730784, -2.693477, -0.823711, -0.439812, -0.296799, 72.785797, 152.884338, -621.600708, , 
1759229475.427012, 2.322974, 9.249100, -3.013402, -0.204566, -0.504467, -0.318421, 72.200180, 152.856247, -620.887512, , 
1759229475.447048, 2.764405, 9.181614, -1.942745, 0.183198, -0.096824, -0.119102, 72.175751, 152.615829, -621.280518, , 
1759229475.467011, 2.026392, 9.690531, -0.444124, 0.123777, 0.068193, 0.053832, 72.365402, 152.385193, -621.273560, , 
1759229475.487006, 1.370082, 9.640103, 0.194828, 0.070501, 0.018493, 0.103784, 72.230820, 152.235260, -621.105408, , 
1759229475.506288, 1.231218, 9.329007, 0.274286, -0.020456, 0.145009, 0.134100, 72.519302, 152.460678, -621.813293, , 
1759229475.526293, 1.079935, 9.121010, 0.477045, -0.118292, 0.296907, 0.153871, 72.977142, 152.469635, -621.585266, , 
1759229475.547009, 0.816572, 9.385869, 0.571765, -0.213043, 0.180661, 0.153163, 73.297333, 152.480789, -621.888672, , 
1759229475.566217, 0.704195, 10.041880, 0.300023, -0.275919, -0.099398, 0.081105, 73.336243, 152.732941, -621.805359, , 
1759229475.586570, 0.819416, 10.350732, -0.217124, -0.335531, -0.342435, -0.052805, 72.753784, 153.002182, -621.216675, , 
1759229475.607006, 1.267281, 10.191069, -0.752079, -0.328686, -0.332929, -0.100989, 72.509415, 153.319016, -621.627991, , 
1759229475.626726, 1.441758, 9.812187, -0.746243, -0.208475, -0.220183, -0.043826, 72.370117, 153.296631, -620.876648, , 
1759229475.647029, 1.458069, 9.314941, -0.668581, -0.140672, -0.110351, -0.001782, 72.421707, 153.357849, -621.180176, , 
1759229475.666176, 1.305588, 9.091382, -0.403872, -0.127879, 0.048184, 0.035093, 72.700302, 153.372681, -621.167053, , 
1759229475.686556, 1.018882, 9.304167, 0.069881, -0.157299, 0.048116, 0.035243, 72.701599, 153.384415, -620.955566, , 
1759229475.706324, 0.752528, 9.677962, 0.206650, -0.208572, -0.072015, -0.011323, 72.585785, 153.630295, -621.008484, , 
1759229475.726361, 0.753425, 9.922170, 0.092626, -0.228729, -0.184522, -0.062389, 72.694931, 153.559326, -620.636719, , 
1759229475.747006, 0.925658, 10.088567, 0.103998, -0.215648, -0.157316, -0.075177, 72.535492, 153.784241, -620.700073, , 
1759229475.767004, 1.153107, 9.873538, 0.001347, -0.193812, -0.049286, -0.049339, 72.633560, 153.972549, -620.911377, , 
1759229475.786984, 1.195754, 9.617358, -0.007482, -0.141257, 0.015082, 0.006995, 72.568268, 153.898880, -620.436646, , 
1759229475.806332, 1.079635, 9.724499, 0.009577, -0.090479, 0.123693, 0.041649, 72.727844, 154.057297, -620.902222, , 
1759229475.826812, 1.101183, 9.902717, 0.420033, -0.042613, 0.209406, 0.046744, 72.942245, 153.748032, -620.611328, , 
1759229475.847020, 0.987608, 9.921123, 0.979677, -0.019898, 0.163131, 0.037846, 73.239914, 153.943909, -621.111206, , 
1759229475.867049, 0.683694, 9.785850, 1.193958, -0.043924, 0.076687, 0.010149, 73.231918, 153.838104, -621.043579, , 
1759229475.886983, 0.538396, 9.914539, 1.070657, -0.077234, -0.036375, -0.036614, 73.351776, 153.738373, -620.714600, , 
1759229475.906345, 0.407912, 10.015394, 0.760608, -0.099256, -0.217893, -0.059937, 73.108734, 153.854584, -621.182861, , 
1759229475.927007, 0.482432, 9.821314, 0.526724, -0.096117, -0.278535, -0.074460, 72.887695, 153.621185, -620.517334, , 
1759229475.947020, 0.716764, 9.595960, 0.660800, -0.070376, -0.227151, -0.073993, 72.849289, 153.699814, -620.770874, , 
1759229475.967006, 0.774674, 9.504681, 0.947505, -0.064975, -0.207289, -0.059057, 72.751617, 153.675171, -620.512207, , 
1759229475.986981, 0.764798, 9.479841, 1.051653, -0.094425, -0.146590, -0.023886, 72.552109, 153.906250, -620.036987, , 
1759229476.006362, 0.803105, 9.631724, 0.854281, -0.133962, -0.059050, 0.004055, 72.681427, 154.032623, -620.368347, , 
1759229476.027003, 1.215057, 9.844059, 0.525677, -0.208810, -0.027306, -0.007323, 72.851135, 154.024338, -619.934082, , 
1759229476.047010, 1.402703, 9.513660, 0.003591, -0.222145, -0.190189, 0.025249, 72.399796, 154.413010, -620.011902, , 
1759229476.066211, 1.390433, 9.433304, -0.259771, -0.151459, -0.245954, 0.083104, 72.208496, 154.498993, -620.122131, , 
1759229476.086981, 1.215955, 9.583690, 0.073921, -0.083226, -0.187915, 0.152771, 72.197281, 154.443436, -619.373047, , 
1759229476.107010, 0.793977, 10.164882, 0.064195, -0.080956, -0.174743, 0.166878, 72.275772, 154.784225, -619.870972, , 
1759229476.127005, 0.249745, 10.502764, -0.054318, -0.070734, -0.186051, 0.146574, 72.401703, 154.889206, -618.916687, , 
1759229476.147003, -0.291943, 10.150218, -0.237026, -0.004809, -0.184895, 0.139684, 72.271622, 154.879349, -619.382568, , 
1759229476.166375, -0.718709, 9.661053, -0.070928, 0.062423, -0.111048, 0.120480, 72.123062, 154.824371, -618.716919, , 
1759229476.186982, -0.902464, 9.738415, 0.105644, 0.055910, -0.040841, 0.095287, 72.151047, 154.912979, -619.049622, , 
1759229476.206892, -0.748038, 9.638607, 0.166996, -0.013004, -0.028478, 0.054975, 72.022430, 155.064987, -618.744934, , 
1759229476.227003, -0.101903, 9.320926, -0.055964, -0.070094, -0.013516, 0.011807, 72.127396, 154.824524, -618.533386, , 
1759229476.247001, 0.373495, 9.259725, -0.397288, -0.071372, 0.028292, -0.001180, 72.272583, 155.089401, -618.628540, , 
1759229476.267002, 0.638803, 8.859893, -0.327108, -0.031115, -0.044965, 0.003017, 72.424240, 155.055481, -618.787231, , 
1759229476.286979, 0.703895, 8.362946, -0.480187, 0.127164, -0.091961, -0.032894, 72.114853, 154.946472, -618.862793, , 
1759229476.306406, 0.719607, 7.966556, -0.225803, 0.285902, -0.045406, -0.065461, 72.210159, 154.691498, -618.653503, , 
1759229476.327013, 0.711228, 8.038382, -0.925957, 0.152084, 0.267046, -0.029327, 72.542282, 154.619858, -618.496216, , 
1759229476.347000, 0.248847, 7.165397, -2.044349, 0.363298, 0.142895, 0.050455, 72.900040, 154.577164, -619.252258, , 
1759229476.366999, -0.156072, 6.100875, -2.198476, 0.686815, 0.104105, 0.051124, 73.212311, 153.770966, -619.313904, , 
1759229476.386982, -0.791284, 5.958569, -0.716315, 0.782109, 0.406576, -0.021404, 73.626495, 153.098389, -619.042908, , 
1759229476.406996, -1.436072, 5.295675, 0.006734, 0.726045, 0.807538, -0.123614, 74.522141, 152.568741, -620.149536, , 
1759229476.427005, -1.738490, 6.889615, -0.494852, 0.802420, 0.281326, -0.191321, 74.987854, 151.910965, -620.055786, , 
1759229476.446999, -0.947954, 8.340351, -0.667833, 0.822190, -0.353307, -0.160187, 74.728958, 151.485916, -620.808899, , 
1759229476.467019, 0.107141, 7.689128, -1.534384, 0.730664, -0.273370, 0.046190, 74.336792, 150.899765, -620.652588, , 
1759229476.486678, 1.063026, 7.251139, -1.791162, 0.767243, 0.126461, 0.255723, 74.544556, 150.557007, -620.920532, , 
1759229476.507005, 0.339827, 7.816021, -1.084873, 0.834315, 0.457858, 0.378589, 75.355423, 150.093155, -621.720093, , 
1759229476.526891, -1.621473, 8.022670, -0.852485, 0.982629, 0.109683, 0.254963, 75.305359, 149.609055, -621.617065, , 
1759229476.547004, -3.336470, 8.041525, -3.681085, 1.721895, -1.347860, -0.375967, 73.941467, 148.296906, -622.220703, , 
1759229476.566213, -3.041235, 13.722816, -7.298574, 2.223778, -1.769978, -1.357988, 72.322845, 145.833679, -621.013550, , 
1759229476.586977, -0.293140, 17.987637, -8.087314, 2.730272, -1.138346, -1.975327, 70.658295, 142.801163, -620.830872, , 
1759229476.606452, 0.435894, 21.413291, -2.124405, 2.566879, -0.448343, -2.545337, 69.778824, 139.005341, -620.827209, , 
1759229476.627002, 4.309264, 28.981661, 13.215844, 0.596208, -2.128198, -2.828600, 68.003128, 136.452194, -618.580139, , 
1759229476.646676, 2.648735, 26.389789, -2.397045, -1.887376, -3.986164, -2.557552, 64.649033, 136.730255, -617.406799, , 
1759229476.667011, 0.337134, 17.333421, -11.830050, -1.109419, -0.450086, -2.445145, 64.752167, 136.144974, -615.962524, , 
1759229476.686982, -2.807052, 12.037298, -3.963302, -0.365755, 0.716671, -1.419743, 65.501755, 135.382187, -616.181885, , 
1759229476.707005, -2.585738, 8.844181, -0.497994, 0.218953, 0.846823, -0.635356, 65.800995, 134.698364, -616.814087, , 
1759229476.727008, -0.873135, 5.372589, -1.748815, 0.703228, 1.096089, -0.560119, 66.244370, 133.460480, -617.497192, , 
1759229476.747023, 4.409820, 3.825336, -4.101417, 0.502922, 1.626277, -0.553940, 67.343781, 132.779251, -618.405518, , 
1759229476.767008, 6.311265, 1.773655, -3.482366, 0.126768, 1.210733, -0.908632, 68.758881, 132.221710, -618.560913, , 
1759229476.786980, 2.889053, 3.618686, -3.623475, -0.051641, 1.658211, -0.492202, 70.653931, 131.791885, -618.928894, , 
1759229476.807000, 1.132906, 5.267992, -0.079158, 0.167608, 1.863426, 0.061978, 72.298996, 131.571533, -619.618286, , 
1759229476.827008, 1.534384, 5.721244, 2.798074, 0.196338, 0.939532, 0.523642, 73.229721, 131.268829, -619.760254, , 
1759229476.847025, 3.675548, 4.904821, 1.199495, 0.040556, -0.259383, 0.933883, 73.011185, 131.762360, -620.287231, , 
1759229476.867007, 4.077026, 4.469526, -0.543035, -0.367909, -0.868100, 1.165755, 72.205215, 132.343491, -620.006042, , 
1759229476.886979, 3.346795, 5.058798, -1.264887, -0.828938, -1.503173, 1.310018, 70.874771, 133.682251, -619.806335, , 
1759229476.906498, 2.537554, 6.295703, -1.649156, -1.277234, -1.771770, 1.429209, 69.445404, 135.356537, -618.896851, , 
1759229476.926995, 1.326986, 8.049156, -2.006640, -1.606736, -1.394617, 1.632505, 67.864975, 137.432175, -617.851929, , 
1759229476.947020, -0.305560, 12.181698, -2.635268, -0.682330, -0.394706, 1.751825, 67.662994, 139.313828, -617.736084, , 
1759229476.966996, -3.275268, 11.510124, -1.148319, 0.246180, 0.690509, 1.684613, 67.736374, 140.370209, -617.900085, , 
1759229476.986972, -5.613056, 8.427291, 0.671723, -0.782855, 0.650263, 1.316076, 68.911072, 141.402588, -618.464600, , 
1759229477.007000, -5.094263, 7.113472, -2.693776, -1.331068, -0.097628, 1.244362, 69.316238, 143.320145, -619.135010, , 
1759229477.026997, -6.245874, 4.816984, -4.165612, -0.970392, -1.059861, 0.916959, 68.409851, 144.690857, -617.900452, , 
1759229477.046994, -6.515221, 5.752069, -3.821595, -0.509230, -0.933265, 0.127065, 67.430008, 145.748291, -617.939453, , 
1759229477.066991, -3.673005, 8.747365, -1.537826, -0.279684, -0.938875, -0.236590, 66.567886, 145.872421, -617.542297, , 
1759229477.086972, -2.367566, 9.719561, -0.911143, -0.426952, -1.961514, -0.434737, 64.623566, 146.257462, -616.932678, , 
1759229477.106998, -0.591069, 8.591742, -5.232977, -0.502047, -1.825927, -0.683336, 62.762192, 146.295609, -615.748657, , 
1759229477.126994, 2.481440, 10.537480, -7.347057, -0.204234, -0.476334, -0.511770, 61.619110, 146.182251, -614.477661, , 
1759229477.146990, 0.391153, 13.713688, -2.956689, 0.217251, -0.491069, -0.447282, 61.038559, 145.799210, -614.761230, , 
1759229477.166991, 0.195726, 14.923957, 1.559822, 0.103999, -0.090535, -0.412450, 61.030045, 145.370758, -614.243530, , 
1759229477.186968, 2.953996, 19.560777, 3.262549, -0.449284, 1.026230, 0.249321, 61.205597, 145.410828, -614.733459, , 
1759229477.206522, 3.344251, 26.588807, 2.653823, -0.843193, 1.198104, 0.499559, 62.088760, 146.250885, -615.037292, , 
1759229477.226978, -5.984457, 17.722180, -1.889474, -0.226469, -2.143463, 0.014747, 62.170364, 146.965118, -613.817627, , 
1759229477.246975, -6.076484, 7.975535, -10.428993, -0.226666, -2.842952, -0.216647, 59.709106, 146.945633, -612.432556, , 
1759229477.266977, 0.811634, 9.921871, -5.284901, 1.290609, 2.808871, -0.220989, 60.162216, 145.774628, -612.785217, , 
1759229477.286540, 1.474379, 9.982773, 0.970849, 1.360733, 3.959745, -0.096725, 63.187149, 144.543106, -615.482300, , 
1759229477.305996, 2.980931, 10.974272, 8.161684, 0.670310, 2.904665, 0.160829, 65.125061, 144.028793, -616.822144, , 
1759229477.326994, 2.931999, 8.894010, 15.592687, -1.336325, -2.498497, 0.264731, 63.552734, 145.139084, -615.145508, , 
