SamplingTime, AccelerationX, AccelerationY, AccelerationZ, GyroX, GyroY, GyroZ, MagneticFieldX, MagneticFieldY, MagneticFieldZ, Latitude, Longitude
1759228601.159717, 1.118391, 1.104924, -9.644443, -0.601463, -0.245780, 0.808004, -107.876846, -159.567657, -883.879395, 13.728214, 100.772481
1759228601.179702, 0.211438, 0.863559, -10.548553, -0.101588, -0.622982, 0.905071, -107.489197, -159.564529, -883.585022, 13.728214, 100.772481
1759228601.199724, -1.168819, 0.351798, -11.907113, 0.614771, -0.618788, 0.718895, -107.073883, -159.686218, -883.818420, 13.728214, 100.772481
1759228601.219633, -1.220145, 0.079458, -11.703756, 1.274916, -0.440624, 0.319898, -106.566864, -159.915756, -884.297546, 13.728214, 100.772481
1759228601.239710, -0.559046, 0.099958, -10.413281, 1.604956, -0.225404, 0.103339, -106.593002, -160.297546, -885.426086, 13.728214, 100.772481
1759228601.259721, 0.265906, 0.189142, -9.261670, 1.643134, 0.111836, 0.169483, -106.921768, -160.283020, -886.546143, 13.728214, 100.772481
1759228601.279691, 0.981024, -0.279523, -8.113949, 1.219009, 0.018966, 0.454402, -106.674347, -160.485245, -887.276184, 13.728214, 100.772481
1759228601.299706, 0.329053, -1.100734, -7.885004, 0.607657, 0.247718, 0.699774, -106.195221, -160.659729, -887.989319, 13.728214, 100.772481
1759228601.319658, -0.345962, -1.637185, -8.108413, -0.072306, 0.318786, 0.563059, -105.846817, -160.771332, -888.046265, 13.728214, 100.772481
1759228601.339723, -0.299874, -1.463456, -9.048885, -0.385131, 0.524894, 0.360729, -105.402222, -160.706284, -888.135925, 13.728214, 100.772481
1759228601.359731, -0.033220, -1.109862, -9.495105, -0.385700, 0.475683, 0.222920, -105.116180, -160.391769, -887.717834, 13.728214, 100.772481
1759228601.379684, -0.037858, -1.016339, -9.617807, -0.298975, 0.371235, 0.055117, -105.143570, -160.518539, -887.310852, 13.728214, 100.772481
1759228601.399705, 0.003891, -1.011550, -9.165453, -0.292044, 0.206908, -0.110175, -105.136429, -160.459351, -887.370911, 13.728214, 100.772481
1759228601.419709, 0.121955, -0.910246, -9.088090, -0.354448, 0.024121, -0.247920, -105.007462, -160.442642, -887.014587, 13.728214, 100.772481
1759228601.439711, 0.429610, -0.376787, -9.416694, -0.380732, -0.138385, -0.263947, -105.156647, -160.246185, -886.753906, 13.728214, 100.772481
1759228601.459730, 0.604835, 0.059855, -9.705345, -0.340074, -0.231890, -0.175119, -105.303894, -160.354111, -886.747009, 13.728214, 100.772481
1759228601.479340, 0.085144, -0.246603, -9.716269, -0.343681, -0.179091, -0.114067, -105.521332, -160.041565, -886.118652, 13.728214, 100.772481
1759228601.499751, -0.315436, -0.230442, -9.124751, -0.611115, -0.000877, -0.157378, -105.681198, -159.888397, -885.959778, 13.728214, 100.772481
1759228601.519710, 0.183905, 0.400281, -9.394548, -0.900535, 0.165104, -0.064983, -105.590118, -160.057907, -885.600342, 13.728214, 100.772481
1759228601.539716, 0.575506, 0.741305, -10.122236, -0.884887, 0.229936, 0.189026, -105.331650, -159.912933, -884.824829, 13.728214, 100.772481
1759228601.559716, 0.521786, 0.953640, -10.307188, -0.636306, 0.242819, 0.416472, -105.401520, -159.721710, -884.530579, 13.728214, 100.772481
1759228601.579689, 0.084096, 0.843507, -10.411485, -0.179856, 0.106183, 0.558179, -104.789902, -159.862747, -884.319702, 13.728214, 100.772481
1759228601.599709, -0.034117, 0.871789, -9.894188, 0.190086, -0.019627, 0.614094, -104.602188, -159.893906, -884.335449, 13.728214, 100.772481
1759228601.619690, 0.261567, 1.433079, -10.310031, 0.571724, -0.021268, 0.882957, -104.049255, -159.967621, -884.885437, 13.728214, 100.772481
1759228601.639271, -0.024241, 0.713921, -10.633847, 1.073043, -0.105662, 1.131274, -103.274826, -160.016464, -885.341064, 13.728214, 100.772481
1759228601.659730, -1.141136, 0.727987, -10.687417, 1.460608, -0.058676, 1.162539, -102.497894, -160.396729, -886.432678, 13.728214, 100.772481
1759228601.679361, -1.752855, 0.800860, -10.431836, 1.557621, 0.408918, 1.191034, -101.716080, -160.686874, -887.314819, 13.728214, 100.772481
1759228601.699710, -2.839074, -0.994791, -10.675895, 1.674417, 0.182182, 1.030999, -100.833847, -161.346146, -888.028503, 13.728214, 100.772481
1759228601.719687, -3.562722, -3.361459, -12.085780, 2.268367, 0.088986, -0.006403, -100.864792, -161.571808, -889.801880, 13.728214, 100.772481
1759228601.739722, -2.574814, -2.472911, -10.336816, 2.536811, 0.242800, -1.307693, -101.787750, -162.036301, -891.182861, 13.728214, 100.772481
1759228601.759714, -1.604863, -1.449839, -8.672696, 2.445795, 0.075474, -1.875116, -102.710602, -162.604630, -892.345032, 13.728214, 100.772481
1759228601.779569, 0.367360, 0.505476, -6.822128, 2.164090, -0.479546, -1.723895, -103.826935, -163.086670, -893.995178, 13.728214, 100.772481
1759228601.798962, 2.078466, -2.023549, -4.307917, 1.736466, -2.002093, -1.288370, -105.409576, -163.675674, -894.854858, 13.728214, 100.772481
1759228601.819111, 3.005322, -3.374627, -3.625869, 0.756514, -4.262717, -1.083593, -107.345108, -164.095078, -895.035706, 13.728214, 100.772481
1759228601.839716, 1.940949, -3.841347, -3.873968, -0.937800, -3.233581, -0.374367, -108.891495, -163.762817, -894.271362, 13.728214, 100.772481
1759228601.859711, 1.891419, -0.056264, -8.636484, -1.332970, -0.621090, 1.224862, -108.235580, -163.310059, -893.686584, 13.728214, 100.772481
1759228601.879684, -1.784728, -0.744896, -7.623288, -1.359735, -0.806511, 1.521871, -107.630432, -163.103607, -892.776428, 13.728214, 100.772481
1759228601.899706, -2.622100, 0.673818, -8.825925, -1.059199, -1.545519, 1.595458, -107.117371, -162.716156, -892.328979, 13.728214, 100.772481
1759228601.919688, -2.491616, 2.123208, -8.559720, -0.316392, -1.696017, 2.308035, -106.115005, -162.660339, -891.963257, 13.728214, 100.772481
1759228601.939698, -4.966472, 1.277307, -7.497742, 0.536099, -1.770001, 2.679652, -105.014038, -162.953537, -892.606506, 13.728214, 100.772481
1759228601.959712, -7.331045, -1.478270, -4.491822, 0.664678, -3.006099, 1.852120, -104.878433, -163.016357, -892.815125, 13.728214, 100.772481
1759228601.979677, -6.392369, -1.813757, -4.301333, 0.341370, -3.874860, 0.830070, -105.467010, -163.180603, -892.702515, 13.728214, 100.772481
1759228601.999163, -5.123143, -0.468366, -3.921553, -0.072911, -3.648115, 0.881044, -106.062759, -162.956192, -892.691895, 13.728214, 100.772481
1759228602.019678, -3.690363, 1.629853, -1.237802, -0.775933, -4.049852, 1.275185, -106.410233, -162.963562, -892.124268, 13.728214, 100.772481
1759228602.039682, -4.624849, 1.537826, -2.005294, -1.427173, -5.026756, 1.657871, -106.803192, -162.487503, -891.255249, 13.728214, 100.772481
1759228602.059692, -8.120683, 2.746897, -5.276521, -1.813946, -5.180082, 2.065360, -106.278458, -162.361862, -889.872559, 13.728214, 100.772481
1759228602.079329, -10.268132, 3.962254, -7.207894, -1.964901, -3.849676, 2.130552, -106.082703, -161.779770, -889.583435, 13.728214, 100.772481
1759228602.099698, -7.982568, 3.920954, -6.602161, -1.966911, -3.105337, 2.181792, -105.224533, -161.137650, -887.912048, 13.728214, 100.772481
1759228602.119683, -10.728268, 3.111115, -8.576180, -1.646514, -3.008384, 2.401250, -104.538055, -161.162857, -887.385376, 13.728214, 100.772481
1759228602.139694, -13.028048, 2.149544, -8.784027, -1.559017, -1.861653, 1.976046, -103.350830, -161.262360, -885.979614, 13.728214, 100.772481
1759228602.159687, -12.659790, 1.468843, -9.083003, -1.696213, -0.676937, 1.425677, -102.734528, -160.793259, -885.558472, 13.728214, 100.772481
1759228602.179677, -10.962451, 2.375497, -8.955960, -1.616654, 0.143471, 1.074807, -102.138046, -160.640244, -884.652588, 13.728214, 100.772481
1759228602.199715, -8.782979, 2.952051, -8.129811, -1.283694, 0.148677, 1.142801, -101.493576, -160.436432, -883.800720, 13.728214, 100.772481
1759228602.219688, -8.531887, 3.159748, -7.810634, -0.930767, -0.134188, 1.354107, -100.789520, -160.462173, -883.093445, 13.728214, 100.772481
1759228602.239701, -9.025242, 3.516633, -8.192210, -0.704342, -0.259972, 1.555353, -99.639038, -160.612839, -882.847900, 13.728214, 100.772481
1759228602.259715, -9.068188, 3.045125, -7.990947, -0.431033, -0.184318, 1.516801, -98.756439, -160.774628, -882.637329, 13.728214, 100.772481
1759228602.279117, -8.229320, 3.293224, -7.294684, -0.132816, -0.560636, 1.442805, -98.067352, -160.921173, -882.560181, 13.728214, 100.772481
1759228602.299733, -8.729259, 3.678242, -7.592612, 0.305164, -0.999802, 1.457268, -97.033707, -161.261871, -882.557312, 13.728214, 100.772481
1759228602.319686, -9.300127, 3.259107, -7.875726, 0.893615, -1.380478, 1.352935, -96.285385, -161.596741, -883.360474, 13.728214, 100.772481
1759228602.339481, -8.841487, 3.765032, -7.547870, 1.368481, -1.429402, 1.291736, -95.876160, -161.954086, -884.297363, 13.728214, 100.772481
1759228602.359724, -7.999776, 4.716428, -7.127389, 1.749571, -1.132964, 1.571815, -95.001511, -162.547089, -885.450989, 13.728214, 100.772481
1759228602.378799, -7.642292, 4.925771, -6.525995, 1.967739, -0.927444, 1.894485, -94.149277, -163.104477, -886.798706, 13.728214, 100.772481
1759228602.399708, -7.959523, 3.884293, -3.940557, 2.010457, -1.441359, 1.940340, -93.377716, -163.995667, -888.421082, 13.728214, 100.772481
1759228602.419684, -8.542960, 3.860351, -4.775534, 2.104967, -1.875793, 1.816040, -92.673538, -165.021225, -890.046326, 13.728214, 100.772481
1759228602.439709, -9.029133, 3.441366, -6.290914, 2.468259, -2.200153, 1.543255, -92.390152, -165.962326, -891.650146, 13.728214, 100.772481
1759228602.459717, -8.933963, 3.254917, -5.098602, 2.893506, -2.336580, 1.392576, -92.291489, -167.291489, -893.558960, 13.728214, 100.772481
1759228602.478819, -13.564649, -0.671873, 4.003853, 2.006154, -3.071302, 0.488726, -92.955292, -168.599136, -895.443909, 13.728214, 100.772481
1759228602.499714, -13.065308, 0.662745, 6.689250, -0.298591, -3.393118, -0.090077, -93.897491, -168.392334, -896.204956, 13.728214, 100.772481
1759228602.519688, -12.456732, -0.028431, 0.066289, -1.111779, -1.983594, 1.080259, -94.612244, -168.350998, -896.347168, 13.728214, 100.772481
1759228602.539692, -7.853430, 3.778948, -2.643199, -0.588055, -0.170681, 0.991373, -94.220474, -168.372162, -896.027039, 13.728214, 100.772481
1759228602.559710, -5.746683, 6.164022, -2.041805, 0.016637, 0.137851, 1.239639, -93.645599, -168.538757, -896.044861, 13.728214, 100.772481
1759228602.578873, -7.076362, 4.139724, -1.479617, 0.691392, -1.111320, 1.006810, -93.518997, -169.048782, -896.279846, 13.728214, 100.772481
1759228602.599715, -7.815422, 4.537910, -1.395820, 1.087252, -2.182860, 0.696373, -93.982330, -169.741058, -897.398926, 13.728214, 100.772481
1759228602.619690, -7.914183, 5.869834, -2.030433, 1.052766, -2.173996, 0.576980, -94.394363, -170.266891, -898.273499, 13.728214, 100.772481
1759228602.639707, -8.106916, 6.422745, -2.397194, 0.725895, -1.394531, 0.538447, -94.833862, -170.511749, -898.908447, 13.728214, 100.772481
1759228602.659707, -8.713248, 5.977424, -1.019481, 0.260390, -0.519881, 0.313378, -95.046310, -170.880386, -899.267822, 13.728214, 100.772481
1759228602.679692, -8.616432, 5.957821, -0.697311, -0.139515, 0.209882, 0.001410, -94.875183, -170.816803, -899.417114, 13.728214, 100.772481
1759228602.699708, -8.144475, 6.250961, -0.988656, -0.233272, 0.631288, -0.297397, -94.708054, -170.690353, -899.292786, 13.728214, 100.772481
1759228602.719691, -8.159290, 6.446538, -1.476474, -0.182422, 0.731007, -0.553304, -94.865417, -170.433212, -898.918335, 13.728214, 100.772481
1759228602.739726, -8.233660, 6.553080, -2.643049, 0.064646, 0.391069, -0.751995, -94.841660, -170.331848, -898.880127, 13.728214, 100.772481
1759228602.759707, -7.893982, 6.313211, -2.497452, 0.345197, -0.216314, -0.827709, -95.366074, -170.100204, -899.184570, 13.728214, 100.772481
1759228602.779684, -7.970148, 5.439028, -2.122909, 0.469774, -0.750974, -0.911874, -96.077789, -170.182205, -899.696716, 13.728214, 100.772481
1759228602.799706, -7.804948, 5.490353, -1.585261, 0.459052, -0.919923, -0.767844, -96.801590, -170.304825, -899.907471, 13.728214, 100.772481
1759228602.819673, -7.775020, 4.706701, -1.265485, 0.254460, -0.732973, -0.573857, -97.241577, -170.354965, -900.387817, 13.728214, 100.772481
1759228602.839710, -8.622568, 4.701763, -1.600673, -0.056731, -0.207719, -0.492629, -97.688065, -170.387344, -900.332031, 13.728214, 100.772481
1759228602.859705, -9.396194, 4.201974, -2.250250, -0.008364, -0.151767, -0.657676, -98.076538, -170.151230, -900.410461, 13.728214, 100.772481
1759228602.879678, -8.998158, 4.705205, -1.872415, 0.346484, -0.520009, -0.863360, -98.681488, -170.270523, -900.622192, 13.728214, 100.772481
1759228602.899702, -7.542035, 4.482394, -1.088165, 0.537368, -0.811396, -0.732270, -99.548660, -170.429306, -900.760559, 13.728214, 100.772481
1759228602.919700, -8.042572, 3.940407, -0.863858, 0.352513, -0.743676, -0.748481, -100.025665, -170.579758, -900.927856, 13.728214, 100.772481
1759228602.939707, -8.485350, 3.762638, -1.760636, 0.194035, -0.332736, -0.755173, -100.480881, -170.379150, -900.996338, 13.728214, 100.772481
1759228602.959686, -7.327753, 3.280505, -1.038186, -0.023520, 0.103840, -0.591019, -100.999008, -170.344589, -901.168335, 13.728214, 100.772481
1759228602.979675, -6.461352, 3.596241, -0.649726, -0.356788, 0.404618, -0.335409, -100.752884, -170.170166, -900.735840, 13.728214, 100.772481
1759228602.998776, -7.968951, 3.601478, -1.198298, -0.383764, 0.416772, -0.199812, -100.536362, -170.127350, -900.447449, 13.728214, 100.772481
1759228603.019055, -9.615862, 2.709638, -0.666336, -0.351608, 0.327712, -0.345415, -100.696655, -169.769958, -900.538879, 13.728214, 100.772481
1759228603.039698, -9.230096, 3.414281, -0.982072, -0.321199, 0.435614, -0.191157, -100.581223, -169.773758, -900.363770, 13.728214, 100.772481
1759228603.059434, -9.348460, 3.290681, -0.802656, -0.336331, 0.570220, 0.014753, -100.352997, -169.502563, -900.416626, 13.728214, 100.772481
1759228603.079680, -9.252243, 2.937685, -0.547225, -0.311131, 0.622064, 0.135970, -99.994888, -169.137390, -899.779663, 13.728214, 100.772481
1759228603.099706, -8.302044, 3.444807, -1.014244, -0.313622, 0.337472, 0.183988, -99.904495, -169.157059, -899.789673, 13.728214, 100.772481
1759228603.119698, -8.269872, 4.263475, -1.829918, -0.142753, -0.084830, 0.365940, -99.588821, -169.218384, -899.817871, 13.728214, 100.772481
1759228603.139698, -9.389460, 3.632453, -1.260098, -0.089554, -0.390905, 0.301506, -99.657440, -169.275162, -899.714172, 13.728214, 100.772481
1759228603.159695, -8.634389, 3.865439, -0.969801, -0.221696, -0.243848, 0.307186, -99.446960, -169.418777, -899.704102, 13.728214, 100.772481
1759228603.179669, -8.167669, 3.775955, -0.741903, -0.395381, 0.294355, 0.478593, -98.979935, -169.082794, -899.234009, 13.728214, 100.772481
1759228603.199688, -7.712921, 2.866009, -0.279074, -0.689482, 0.770536, 0.578507, -98.352188, -168.734924, -898.842773, 13.728214, 100.772481
1759228603.219672, -6.173150, 3.538929, 0.023194, -1.009851, 1.088801, 0.861778, -97.765167, -168.160370, -898.321777, 13.728214, 100.772481
1759228603.239700, -2.418144, 3.700239, -0.051924, -1.222701, 0.930830, 1.747254, -96.702759, -167.844666, -897.522583, 13.728214, 100.772481
1759228603.259701, -8.388983, 5.072864, -1.483058, -1.269657, 0.685178, 1.794797, -95.487061, -167.868195, -896.882080, 13.728214, 100.772481
1759228603.279686, -11.934347, 5.264550, -2.302324, -1.306884, 0.212820, 1.299655, -94.670013, -167.802231, -896.032410, 13.728214, 100.772481
1759228603.299584, -12.123190, 5.161001, -0.767192, -1.362515, -0.322378, 1.126535, -94.223358, -167.597046, -895.519714, 13.728214, 100.772481
1759228603.319697, -6.602909, 5.971438, -3.446154, -0.210515, -2.426933, 1.097218, -95.187500, -167.287415, -895.917114, 13.728214, 100.772481
1759228603.339706, -4.171447, 6.780978, 2.117821, -1.004102, -0.887139, 1.931387, -94.066010, -167.479950, -895.776794, 13.728214, 100.772481
1759228603.359702, -7.269096, 6.329820, -0.035913, -1.202986, 1.227934, 2.950983, -92.799820, -167.616257, -895.110352, 13.728214, 100.772481
1759228603.379662, -10.329783, 7.121852, -2.685696, -1.146971, 0.925745, 2.642956, -90.649780, -167.892761, -894.002197, 13.728214, 100.772481
1759228603.399700, -5.870433, 8.582914, -2.035969, -0.950409, -0.520853, 1.838076, -90.594971, -167.776520, -893.627930, 13.728214, 100.772481
1759228603.419666, -5.099799, 8.001572, 2.377293, -1.219213, -0.580921, 2.031267, -89.770782, -167.908707, -893.368286, 13.728214, 100.772481
1759228603.439712, -5.822698, 8.290671, 1.449390, -1.727730, 0.138622, 2.454750, -88.724228, -168.475815, -892.648926, 13.728214, 100.772481
1759228603.459697, -4.453365, 5.249586, -0.967557, -1.570101, -0.777039, 2.185547, -88.135651, -168.400589, -891.963684, 13.728214, 100.772481
1759228603.479677, -6.301389, 4.655375, -1.548450, -0.842396, -0.765330, 1.527254, -87.548080, -169.108505, -891.869507, 13.728214, 100.772481
1759228603.499710, -5.218312, 5.611410, -0.958578, 0.007256, -0.508872, 1.111982, -86.699890, -169.625854, -892.039734, 13.728214, 100.772481
1759228603.519703, -1.376516, 9.836278, 0.411503, -0.194988, 1.554122, 0.990757, -86.024734, -170.021072, -891.680969, 13.728214, 100.772481
1759228603.539700, -3.780744, 6.689998, 6.000019, 0.007103, -0.990063, 2.171844, -84.989746, -170.910736, -891.802856, 13.728214, 100.772481
1759228603.559710, -7.778612, 14.305804, -2.077419, 0.190504, -0.732635, 1.989212, -84.084671, -172.061981, -892.333618, 13.728214, 100.772481
1759228603.579666, -5.068375, 14.441376, 1.589002, -0.367797, -0.264169, 2.357756, -83.520813, -172.574936, -892.276611, 13.728214, 100.772481
1759228603.599703, -4.967220, 12.815264, 1.538723, -0.804136, -0.504173, 2.488194, -82.923279, -173.403564, -892.245544, 13.728214, 100.772481
1759228603.619700, -8.520515, 8.325687, -3.296516, -1.256247, 0.181811, 1.025030, -81.973557, -174.228470, -892.168701, 13.728214, 100.772481
1759228603.639702, -2.705747, 13.121572, 1.607258, -1.116779, -0.106301, -0.475269, -82.561172, -173.220871, -891.626465, 13.728214, 100.772481
1759228603.659704, -2.196830, 9.759813, 2.836381, -0.418720, -0.451036, -1.001232, -83.161362, -172.644791, -891.795898, 13.728214, 100.772481
1759228603.679676, -2.957138, 8.770110, 2.550124, -0.121701, -0.730511, -1.493243, -84.088150, -172.135239, -891.674194, 13.728214, 100.772481
1759228603.699702, -5.139603, 7.583933, 2.098069, 0.366110, -1.822152, -2.169025, -85.105392, -171.150085, -892.414124, 13.728214, 100.772481
1759228603.719700, -5.746683, 8.583512, -0.049979, 0.393217, -1.190433, -2.932626, -86.642746, -170.170456, -892.858276, 13.728214, 100.772481
1759228603.739460, -6.243180, 8.801684, -1.376367, -0.104136, -0.036246, -3.237859, -88.318146, -168.899460, -893.092590, 13.728214, 100.772481
1759228603.759698, -5.511452, 12.872126, 3.799149, 0.126476, 0.294987, -1.637679, -88.948669, -168.376389, -892.765625, 13.728214, 100.772481
1759228603.779678, -8.378209, 7.665486, 1.179743, 0.652693, 0.354729, -0.846422, -89.204849, -168.230087, -892.844238, 13.728214, 100.772481
1759228603.799699, -7.329250, 5.617396, 1.329530, 1.064298, 0.434826, -1.307332, -89.328949, -168.157394, -893.193726, 13.728214, 100.772481
1759228603.819700, -1.666364, 6.060473, 0.875829, 1.386323, -0.300138, -0.804901, -90.036682, -168.176559, -893.933899, 13.728214, 100.772481
1759228603.839707, -3.498078, 2.047192, 5.551854, 0.659827, -0.977833, 0.241917, -90.300964, -168.618576, -894.586121, 13.728214, 100.772481
1759228603.859700, -2.237830, 2.886809, -2.360982, 0.547346, -1.163180, 1.208192, -90.256226, -169.177002, -895.305176, 13.728214, 100.772481
1759228603.879672, -2.274342, 6.243030, 2.555960, 0.158784, -0.138729, 1.998629, -88.868149, -170.078537, -895.852417, 13.728214, 100.772481
1759228603.899700, -3.711461, 10.921001, 3.122638, -0.851338, 0.709985, 0.324610, -88.651749, -169.999420, -895.258728, 13.728214, 100.772481
1759228603.919665, -4.288314, 9.090784, 1.131709, 0.174171, 0.062424, -1.186286, -89.170914, -169.712006, -895.584412, 13.728214, 100.772481
1759228603.939686, -4.812046, 9.427319, 3.324349, 0.415359, -0.431714, -1.529485, -89.795212, -169.468689, -895.819214, 13.728214, 100.772481
1759228603.959695, -5.303157, 9.576807, 0.656610, 0.201963, -0.938973, -2.346796, -91.249603, -168.755966, -895.922913, 13.728214, 100.772481
1759228603.979664, -4.398597, 8.636035, 0.281917, 0.392177, -0.424035, -2.068499, -92.478302, -168.389053, -896.074219, 13.728214, 100.772481
1759228603.999695, -1.047314, 4.459500, 2.637363, 0.056025, -0.848009, -0.111976, -92.796997, -168.661453, -896.299011, 13.728214, 100.772481
1759228604.019697, -7.506870, 8.636634, 0.742651, -0.040621, -0.264213, 1.426834, -92.002121, -169.052338, -896.518494, 13.728214, 100.772481
1759228604.039700, -7.936330, 9.837475, 2.775927, -0.386929, 0.734266, 1.661926, -91.291000, -169.072327, -896.270691, 13.728214, 100.772481
1759228604.059699, -5.424662, 7.253683, 2.587085, -0.259654, 0.339706, 1.979991, -90.720856, -169.659439, -895.677795, 13.728214, 100.772481
1759228604.079672, -1.883040, 6.579715, 2.343923, 0.034677, -0.963978, 2.383044, -89.852295, -170.105835, -896.217651, 13.728214, 100.772481
1759228604.099693, -2.557756, 7.486669, -0.815226, 0.801046, -1.708519, 2.594065, -89.457184, -171.145355, -896.582520, 13.728214, 100.772481
1759228604.119693, -0.613664, 5.310489, 1.280299, 0.283313, -1.143698, 2.600589, -88.826035, -171.742203, -897.412231, 13.728214, 100.772481
1759228604.139701, -4.021511, 5.650914, 1.174805, 0.254998, 0.250574, 2.908267, -87.692429, -173.363480, -897.373352, 13.728214, 100.772481
1759228604.159692, -7.587225, 8.760534, 1.871518, 0.312014, -0.418185, 2.056997, -86.938538, -174.181000, -897.712891, 13.728214, 100.772481
1759228604.179672, -7.633313, 12.014104, 0.938377, 0.426731, 0.383972, 1.478798, -86.142471, -174.817184, -897.776001, 13.728214, 100.772481
1759228604.199697, -5.856816, 12.818406, 1.840991, -0.038241, 0.790354, 1.560921, -85.750763, -175.288620, -897.686707, 13.728214, 100.772481
1759228604.219698, -2.453907, 7.282114, 0.691026, -0.129810, 1.610905, 2.989978, -84.282776, -176.191223, -896.938904, 13.728214, 100.772481
1759228604.239701, 0.571316, 5.711069, 4.419696, 0.587963, -0.243149, 3.694457, -83.782288, -178.092545, -897.189636, 13.728214, 100.772481
1759228604.259698, -1.106121, 3.076848, -0.683096, 1.238541, -1.719438, 3.808823, -83.468140, -180.009583, -898.419678, 13.728214, 100.772481
1759228604.278764, -1.002273, 2.425626, -1.041627, 1.381858, -0.717871, 3.872875, -83.041962, -182.478043, -899.008545, 13.728214, 100.772481
1759228604.299700, -0.642245, 2.741810, -1.178097, 0.928149, 0.199246, 3.582688, -82.331726, -184.521362, -899.430908, 13.728214, 100.772481
1759228604.319673, 0.187496, 4.050091, 0.727837, 0.088580, 0.412479, 2.955379, -81.345627, -186.133820, -899.054016, 13.728214, 100.772481
1759228604.339698, -6.376507, 25.529971, 2.176629, -0.266834, -0.532500, 0.516176, -81.687271, -186.087540, -899.321777, 13.728214, 100.772481
1759228604.359701, 4.953005, 37.360320, -0.198419, -0.405799, -0.627694, -2.286279, -82.564499, -184.523239, -899.454224, 13.728214, 100.772481
1759228604.379696, 6.464793, 11.611579, -3.454234, 1.590689, -0.334960, -0.775364, -83.114838, -184.549194, -899.817139, 13.728214, 100.772481
1759228604.399677, 2.659659, 3.268385, 2.108992, 1.149906, -1.176995, -0.687244, -83.573929, -184.878662, -900.326965, 13.728214, 100.772481
1759228604.419670, 3.119944, 8.340800, 2.090138, 0.458585, -1.014096, -0.357057, -84.056442, -185.052490, -900.943665, 13.728214, 100.772481
1759228604.439682, 2.224064, 11.067646, 0.545429, 0.043755, -0.014091, -0.195997, -84.394409, -185.231064, -901.503296, 13.728214, 100.772481
1759228604.459674, -0.185102, 5.502923, 1.119439, -1.129876, 0.828799, -0.046661, -83.786285, -184.649750, -900.737793, 13.728214, 100.772481
1759228604.479673, 3.073706, 12.829779, 1.845181, -0.810466, 0.171912, 0.425092, -83.511505, -184.391724, -900.634827, 13.728214, 100.772481
1759228604.499681, 1.674146, 11.142615, 0.549020, -0.877570, -0.213031, 0.636316, -83.665115, -184.482651, -900.474182, 13.728214, 100.772481
1759228604.519663, 0.811634, 9.992500, 0.503979, -0.626345, -0.508120, 0.667832, -83.607269, -184.361847, -900.893982, 13.728214, 100.772481
1759228604.539679, 0.273986, 8.290073, -0.655413, -0.253109, -0.714987, 0.326973, -83.948547, -184.250702, -900.880859, 13.728214, 100.772481
1759228604.559679, 1.248127, 8.723872, -2.475904, 1.148099, -1.349165, 0.319837, -84.367493, -184.764816, -901.261658, 13.728214, 100.772481
1759228604.579670, 0.829142, 9.106047, -1.597681, 0.452659, -0.537172, 0.436933, -84.657639, -185.257980, -901.726074, 13.728214, 100.772481
1759228604.599681, 0.385616, 9.988460, 1.232415, 0.596794, -0.864397, 0.233315, -84.980652, -185.455872, -902.060547, 13.728214, 100.772481
1759228604.619672, 1.050606, 10.524013, 1.336862, 0.434862, -0.415548, 0.189629, -85.390244, -186.029236, -902.236816, 13.728214, 100.772481
1759228604.639675, 0.931045, 11.286865, 1.136647, -0.334500, 0.371653, 0.054804, -85.253922, -186.026382, -902.295105, 13.728214, 100.772481
1759228604.659675, 1.437718, 9.913192, 1.507300, -0.465874, 0.183742, -0.187403, -85.078781, -185.824600, -902.004761, 13.728214, 100.772481
1759228604.678668, 2.256236, 8.384943, -0.690727, -0.176068, 0.115333, -0.143380, -85.412369, -185.491531, -901.942566, 13.728214, 100.772481
1759228604.699707, 2.173486, 9.475652, -0.924461, 0.244186, -0.068303, 0.088667, -85.178925, -185.482315, -902.101807, 13.728214, 100.772481
1759228604.719698, 1.492635, 7.223606, 0.004639, 0.410153, -0.292815, 0.078372, -85.144714, -185.888916, -902.006836, 13.728214, 100.772481
1759228604.739692, 1.366640, 10.975170, 0.016161, 0.336854, -0.219497, 0.042480, -84.959183, -186.170288, -902.197021, 13.728214, 100.772481
1759228604.759724, 0.415544, 10.534338, 0.769885, 0.026383, 0.017409, 0.008651, -85.147385, -186.009949, -902.329224, 13.728214, 100.772481
1759228604.779079, 0.508319, 9.545532, 0.333692, -0.062916, 0.104538, -0.043718, -85.438232, -186.144516, -902.165283, 13.728214, 100.772481
1759228604.799691, 1.243788, 9.574562, -0.773776, 0.120074, 0.005477, -0.038836, -85.433350, -185.954880, -902.059204, 13.728214, 100.772481
1759228604.819366, 1.267131, 9.343372, -0.675763, 0.181489, -0.055346, -0.041400, -85.357162, -186.175720, -902.152527, 13.728214, 100.772481
1759228604.839704, 1.265336, 9.650279, -0.061950, 0.107524, -0.168035, -0.019189, -85.380951, -186.157288, -902.286743, 13.728214, 100.772481
1759228604.859062, 1.445948, 9.721805, 0.377536, -0.042807, -0.318761, 0.015061, -85.463959, -186.146545, -902.145996, 13.728214, 100.772481
1759228604.879667, 1.563414, 9.494656, 0.133177, -0.111584, -0.403034, 0.063107, -85.699600, -186.150040, -902.457275, 13.728214, 100.772481
1759228604.899706, 1.412429, 9.202413, -0.476745, -0.028903, -0.256297, 0.046684, -85.801834, -186.072830, -902.702026, 13.728214, 100.772481
1759228604.919672, 1.488745, 9.412205, -0.620098, 0.063301, -0.185631, 0.007876, -85.992172, -186.020035, -902.788818, 13.728214, 100.772481
1759228604.939700, 1.298405, 9.767295, -0.561889, 0.071468, 0.026544, -0.009297, -86.159195, -186.053391, -902.685242, 13.728214, 100.772481
1759228604.959692, -2.529474, 3.619883, -2.082357, -1.022178, 1.314010, 0.547039, -85.108307, -185.793488, -902.068359, 13.728214, 100.772481
1759228604.979663, 1.280299, 14.446014, 1.559224, -0.042046, -0.384000, 0.331360, -84.851608, -185.984528, -901.887695, 13.728214, 100.772481
1759228604.999690, 0.153079, 10.970681, -0.923713, 0.256707, -0.453980, -0.203181, -85.719254, -185.824844, -902.034790, 13.728214, 100.772481
1759228605.019688, 2.275689, 9.251644, 0.943914, -0.159872, -0.464700, 0.040064, -85.675049, -185.801926, -902.214844, 13.728214, 100.772481
1759228605.039712, 2.260276, 9.781960, 1.177498, -0.291855, -0.668826, -0.086094, -86.000870, -185.700272, -902.556458, 13.728214, 100.772481
1759228605.059697, -0.094870, 7.898022, -0.919972, 0.176870, -0.615269, -0.418525, -86.178787, -185.654907, -902.933838, 13.728214, 100.772481
1759228605.079667, 0.802806, 8.788366, -0.155473, 0.526534, -1.314940, -0.195874, -86.688019, -185.616425, -903.200562, 13.728214, 100.772481
1759228605.099692, 0.187795, 10.360010, -0.103848, -0.053648, -0.400150, -0.262696, -87.461655, -185.761215, -903.829651, 13.728214, 100.772481
1759228605.119731, -0.755820, 10.214113, 0.323516, 0.144677, -0.316088, -0.164254, -87.410873, -185.755783, -903.460815, 13.728214, 100.772481
1759228605.139683, 0.618751, 9.392752, 1.019331, 0.031076, -0.686742, -0.202389, -87.739487, -185.618744, -903.716370, 13.728214, 100.772481
1759228605.159698, 0.897077, 9.493458, -0.363619, 0.051106, -0.215655, -0.284178, -87.793701, -185.546310, -903.507446, 13.728214, 100.772481
1759228605.179659, 2.092083, 10.374974, 0.623540, 0.052221, -0.168691, -0.256253, -88.307037, -185.498398, -903.898926, 13.728214, 100.772481
1759228605.199691, 2.104354, 9.180566, -0.009128, 0.123803, -0.033631, -0.183371, -88.307419, -185.537689, -903.855164, 13.728214, 100.772481
1759228605.219688, 2.313996, 10.359711, 0.875979, 0.031463, -0.265927, 0.005618, -88.295090, -185.515137, -904.258911, 13.728214, 100.772481
1759228605.239690, 1.463007, 10.210073, 0.666037, -0.173519, -0.271754, 0.264850, -88.349213, -185.414108, -904.356750, 13.728214, 100.772481
1759228605.259686, -0.153528, 9.081656, -0.266355, -0.266109, -0.165229, -0.098365, -88.538391, -185.345078, -904.417175, 13.728214, 100.772481
1759228605.279670, 1.489493, 9.048287, -1.775450, 0.016578, -0.062164, -0.092743, -88.540253, -185.218933, -904.213013, 13.728214, 100.772481
1759228605.299694, 1.761534, 9.102156, -0.364517, 0.169208, -0.127918, 0.012492, -88.862473, -185.474365, -904.505188, 13.728214, 100.772481
1759228605.319681, 0.971896, 9.392453, 0.280122, 0.157040, -0.211956, 0.025901, -88.585953, -185.498474, -904.388306, 13.728214, 100.772481
1759228605.338926, 1.186028, 9.918429, -0.023643, 0.151743, -0.279767, 0.043280, -88.794388, -185.697906, -904.522522, 13.728214, 100.772481
1759228605.358670, 1.649904, 9.649830, -0.599448, 0.196245, -0.321158, 0.091504, -89.235214, -185.767670, -904.469727, 13.728214, 100.772481
1759228605.379659, 2.240225, 9.762058, -0.984167, 0.263078, -0.348628, 0.112345, -89.055908, -185.990189, -904.901611, 13.728214, 100.772481
1759228605.399681, 2.804658, 9.770288, -0.591218, 0.481680, -0.597622, 0.264320, -89.510605, -186.172211, -904.847778, 13.728214, 100.772481
1759228605.419659, 0.961571, 8.713697, -0.167744, 0.123138, 0.117889, -0.024625, -89.441879, -186.436035, -905.103394, 13.728214, 100.772481
1759228605.439686, 1.682974, 10.586860, 0.835576, -0.019211, 0.158950, 0.027435, -89.538971, -186.416656, -905.051697, 13.728214, 100.772481
1759228605.459680, 1.319355, 9.913042, -0.178069, -0.139822, 0.248585, 0.018156, -89.383331, -186.236115, -904.885071, 13.728214, 100.772481
1759228605.479665, 1.423802, 9.761160, -0.485873, -0.094413, 0.258949, -0.006964, -89.175293, -186.229813, -904.854248, 13.728214, 100.772481
1759228605.499695, 1.522712, 10.083031, -0.321870, -0.170940, 0.424560, 0.086463, -89.007233, -186.238373, -904.659241, 13.728214, 100.772481
1759228605.519182, 1.445799, 10.035446, 1.068412, -0.409251, -0.124534, 0.298539, -88.726196, -185.942810, -904.445679, 13.728214, 100.772481
1759228605.539691, 0.118214, 9.955390, -0.635062, -0.307391, -0.167833, 0.183920, -88.715042, -185.976120, -904.415161, 13.728214, 100.772481
1759228605.559686, -0.487968, 9.210643, -1.145775, -0.270635, -0.258624, -0.005733, -89.130188, -185.733002, -904.703369, 13.728214, 100.772481
1759228605.579668, 0.320075, 9.033622, -1.473631, 0.017012, 0.010210, -0.147090, -89.090256, -185.590973, -904.556702, 13.728214, 100.772481
1759228605.599688, 1.235258, 8.326136, -1.568352, 0.303961, 0.503126, -0.406030, -88.904922, -185.698990, -904.386841, 13.728214, 100.772481
1759228605.618883, 3.289483, 9.326762, -0.525078, 0.361350, 0.463895, -0.218156, -88.598907, -185.948608, -904.584595, 13.728214, 100.772481
1759228605.639407, 2.580949, 9.869199, 0.264559, 0.266344, 0.326866, -0.064476, -88.601517, -185.891266, -904.624634, 13.728214, 100.772481
1759228605.659696, 1.360056, 10.033351, 0.181959, 0.100215, 0.283751, 0.004577, -88.425766, -185.952164, -904.542603, 13.728214, 100.772481
1759228605.679665, 1.259200, 9.832837, -0.265607, 0.052076, 0.249999, -0.009666, -87.990967, -185.974121, -904.353882, 13.728214, 100.772481
1759228605.699682, 1.667262, 9.611223, -0.609923, 0.079413, 0.305276, 0.003695, -88.256958, -185.842911, -903.904053, 13.728214, 100.772481
1759228605.719544, 1.561618, 9.500641, -0.230891, 0.041659, 0.320261, 0.029336, -87.802917, -185.868942, -904.048096, 13.728214, 100.772481
1759228605.739551, 1.011550, 9.379135, -0.601244, 0.066886, 0.315376, 0.032001, -87.675125, -186.059433, -904.037415, 13.728214, 100.772481
1759228605.759706, 0.591368, 9.244312, -0.685789, 0.087871, 0.240201, 0.038949, -87.597641, -185.915344, -903.958435, 13.728214, 100.772481
1759228605.779664, 0.094571, 9.179668, -0.756717, 0.119406, 0.166614, -0.001943, -87.365631, -186.058655, -903.892456, 13.728214, 100.772481
1759228605.799685, 0.072874, 9.631873, -0.785897, 0.151267, 0.058406, -0.040938, -87.333786, -186.095734, -903.641479, 13.728214, 100.772481
1759228605.819705, 0.488268, 10.070012, -0.502633, 0.123171, -0.018912, -0.058641, -87.529465, -186.312469, -903.476196, 13.728214, 100.772481
1759228605.839697, 0.932242, 10.186730, -0.173131, 0.034735, -0.031379, -0.069882, -87.737213, -186.094330, -904.014832, 13.728214, 100.772481
1759228605.859744, 1.282993, 9.746496, -0.313042, -0.029248, 0.021288, -0.042280, -87.645248, -186.323776, -903.997864, 13.728214, 100.772481
1759228605.879662, 1.310526, 9.530120, -0.508618, -0.041439, 0.011377, -0.013918, -87.398010, -186.188858, -903.927673, 13.728214, 100.772481
1759228605.899672, 0.915782, 9.465626, -0.538396, -0.052695, -0.035321, -0.019782, -87.708984, -186.110138, -903.978149, 13.728214, 100.772481
1759228605.919666, 0.645537, 9.399636, -0.685640, -0.045783, -0.077375, -0.034484, -87.564743, -185.980835, -903.645996, 13.728214, 100.772481
1759228605.939690, 0.734870, 9.610176, -0.930297, 0.003401, -0.116009, -0.033271, -87.405304, -186.193573, -903.522217, 13.728214, 100.772481
1759228605.959686, 0.903362, 9.586084, -0.840963, 0.024750, -0.140520, -0.005081, -87.397552, -186.206024, -903.802063, 13.728214, 100.772481
1759228605.979664, 0.935983, 9.491364, -0.752677, 0.036657, -0.167477, 0.020596, -87.624115, -186.185715, -903.919189, 13.728214, 100.772481
1759228605.999685, 0.853832, 9.407866, -0.958878, 0.071878, -0.142107, 0.015526, -87.825134, -186.064682, -903.958252, 13.728214, 100.772481
1759228606.019685, 0.958578, 9.330054, -1.048810, 0.130329, -0.107602, 0.006725, -87.770248, -186.316818, -903.860352, 13.728214, 100.772481
1759228606.039695, 1.199046, 9.475203, -0.772579, 0.145514, -0.089088, 0.035489, -87.909210, -186.255112, -903.876587, 13.728214, 100.772481
1759228606.059698, 1.032799, 9.331251, -0.652869, 0.154075, -0.049810, 0.037082, -87.923157, -186.553955, -903.830872, 13.728214, 100.772481
1759228606.079664, 0.868197, 9.055320, -0.572364, 0.203333, -0.050431, 0.022078, -87.883408, -186.580811, -904.023071, 13.728214, 100.772481
1759228606.099685, 1.014693, 9.803807, -0.202909, 0.257690, -0.148009, 0.031648, -87.993073, -186.877502, -904.248962, 13.728214, 100.772481
1759228606.119693, 0.946159, 10.310629, 0.382174, 0.140437, -0.084251, 0.047842, -88.012482, -186.932327, -904.280762, 13.728214, 100.772481
1759228606.139685, 0.976834, 9.933393, 0.688782, 0.002645, -0.045103, 0.060549, -88.072540, -187.094696, -904.436401, 13.728214, 100.772481
1759228606.159684, 1.152359, 9.865607, 0.215777, -0.025368, -0.119615, 0.079662, -88.085632, -187.034836, -904.272278, 13.728214, 100.772481
1759228606.179159, 0.596755, 9.494207, -0.067487, 0.015528, -0.117972, 0.008747, -88.483688, -186.817596, -904.318115, 13.728214, 100.772481
1759228606.199684, 0.370353, 9.592219, 0.146196, 0.062949, -0.053749, -0.080055, -88.292130, -187.126846, -904.479065, 13.728214, 100.772481
1759228606.219687, 0.753126, 10.026318, 0.467767, -0.027284, 0.010565, -0.072996, -88.107224, -186.948517, -904.459778, 13.728214, 100.772481
1759228606.239689, 0.672771, 9.309554, 0.234781, -0.098008, 0.009402, -0.056884, -88.370377, -186.958542, -904.415039, 13.728214, 100.772481
1759228606.259061, 0.847398, 8.985888, -0.722450, -0.062153, -0.011980, -0.028368, -88.094589, -186.867416, -904.315369, 13.728214, 100.772481
1759228606.279661, 0.870891, 9.027188, -1.212813, 0.094194, -0.096714, -0.067207, -88.258850, -186.903839, -904.464966, 13.728214, 100.772481
1759228606.299484, 1.114800, 9.666739, -0.977283, 0.163432, -0.143085, -0.079577, -88.418732, -186.825302, -904.701294, 13.728214, 100.772481
1759228606.319689, 1.285836, 10.116699, -0.416591, 0.096497, -0.100383, -0.017815, -88.444733, -186.938889, -904.508179, 13.728214, 100.772481
1759228606.339695, 1.313220, 9.909750, -0.411653, -0.004136, -0.055650, 0.070737, -88.693878, -186.985580, -904.482666, 13.728214, 100.772481
1759228606.359691, 1.375618, 9.807997, -0.744896, -0.013346, -0.073892, 0.160986, -88.636673, -187.175476, -904.475464, 13.728214, 100.772481
1759228606.379661, 0.790535, 9.751733, -0.945710, -0.001954, -0.052397, 0.151180, -88.786545, -187.076782, -904.565430, 13.728214, 100.772481
1759228606.399724, 0.144700, 9.859921, -0.484227, -0.031317, -0.103923, 0.067359, -88.556107, -187.272446, -904.499695, 13.728214, 100.772481
1759228606.419670, -0.021099, 9.707889, -1.012897, -0.020740, 0.273704, -0.019504, -88.442657, -186.973785, -904.634644, 13.728214, 100.772481
1759228606.439691, 0.405967, 9.628282, -1.033397, 0.067989, 0.394958, -0.013512, -88.139511, -187.220947, -904.681885, 13.728214, 100.772481
1759228606.459690, 0.574908, 9.841216, -0.871639, 0.109459, 0.387873, 0.085452, -88.073166, -187.292862, -904.310181, 13.728214, 100.772481
1759228606.479661, 0.068085, 9.707889, -0.376039, 0.086600, 0.243985, 0.144512, -88.018265, -187.310867, -903.990540, 13.728214, 100.772481
1759228606.499692, -0.253486, 9.417143, -0.562338, 0.135580, 0.140811, 0.144507, -87.889771, -187.487900, -904.169678, 13.728214, 100.772481
1759228606.519688, -0.055516, 9.293692, -0.419733, 0.187615, 0.088229, 0.161943, -87.785522, -187.558380, -904.351624, 13.728214, 100.772481
1759228606.539690, 0.160412, 9.143606, -0.016161, 0.173008, 0.107824, 0.191080, -87.640823, -187.922653, -903.841370, 13.728214, 100.772481
1759228606.559156, 0.259771, 9.087641, 0.219219, 0.148552, 0.195120, 0.207895, -87.581467, -188.028549, -903.817261, 13.728214, 100.772481
1759228606.579654, 0.133626, 8.902989, 0.688932, 0.067402, 0.326774, 0.171392, -87.177078, -188.154510, -903.796814, 13.728214, 100.772481
1759228606.599684, -0.049530, 9.000552, 1.560720, -0.038404, 0.389378, 0.089048, -87.128204, -188.256073, -903.499023, 13.728217, 100.772518
1759228606.619680, -0.246154, 9.557653, 2.438644, -0.342586, 0.430946, 0.011696, -86.907181, -188.453918, -903.706177, 13.728217, 100.772518
1759228606.639683, -0.646584, 8.430882, 2.322226, -0.695934, 0.529589, -0.066210, -86.813690, -187.898575, -903.280151, 13.728217, 100.772518
1759228606.659693, -0.255880, 7.086388, 2.095974, -0.868204, 0.463473, -0.066010, -86.506943, -187.626419, -903.232422, 13.728217, 100.772518
1759228606.679659, 0.103100, 7.183802, 1.678635, -1.029517, 0.319537, 0.052414, -86.336182, -186.949585, -902.879883, 13.728217, 100.772518
1759228606.699688, -0.265457, 7.126192, -0.035464, -1.027273, 0.503136, 0.142277, -86.042007, -186.546280, -902.436829, 13.728217, 100.772518
1759228606.719686, -0.436044, 6.091298, 0.182259, -1.109195, 0.813585, 0.100604, -85.528625, -186.108994, -902.572205, 13.728217, 100.772518
1759228606.739683, 0.210241, 6.143671, 1.909974, -1.242045, 0.586514, 0.098276, -85.230453, -185.347336, -901.872742, 13.728217, 100.772518
1759228606.759688, 0.102651, 7.249643, 1.401506, -1.237997, 0.070498, 0.201024, -85.124298, -185.165176, -901.761841, 13.728217, 100.772518
1759228606.779664, -0.564433, 8.320000, -0.185401, -1.160309, 0.276293, 0.257340, -84.854538, -184.711121, -901.408691, 13.728217, 100.772518
1759228606.799685, -1.184232, 8.456320, 0.612317, -1.394648, 0.839739, 0.008889, -84.608047, -184.320847, -901.081726, 13.728217, 100.772518
1759228606.819692, -1.699734, 8.981848, 3.930681, -1.879102, 1.197917, -0.306607, -83.971283, -183.363068, -900.074951, 13.728217, 100.772518
1759228606.839683, -0.268001, 9.376891, 3.659537, -2.183110, 0.557823, -0.165855, -83.924408, -182.407074, -899.377197, 13.728217, 100.772518
1759228606.859683, -0.991948, 8.346187, 5.273977, -2.802103, 0.793388, -0.426511, -83.611633, -181.029327, -898.363525, 13.728217, 100.772518
1759228606.879659, -0.599299, 11.308712, 6.555175, -2.894698, 0.671763, -1.241558, -83.557831, -179.332748, -897.463928, 13.728217, 100.772518
1759228606.898996, -0.891242, 17.274464, 5.164592, -2.649935, 0.551524, -1.973044, -83.776810, -177.446350, -896.195068, 13.728217, 100.772518
1759228606.919670, 0.837372, 20.683508, 2.387019, -2.431158, 0.648984, -2.236910, -84.186569, -175.690918, -895.427856, 13.728217, 100.772518
1759228606.939689, 1.206378, 15.520412, 1.532439, -1.374178, 1.312343, -2.545202, -84.850098, -174.003433, -894.216431, 13.728217, 100.772518
1759228606.959679, 0.429610, 14.639496, 5.920561, -0.019663, 1.474887, -2.180945, -84.869919, -173.581696, -893.665771, 13.728217, 100.772518
1759228606.979667, -4.321384, 14.475493, 6.577022, 0.047773, 0.786519, -1.744804, -85.064728, -172.815018, -893.111633, 13.728217, 100.772518
1759228606.999707, -2.553715, 13.036278, 5.474192, -0.028320, -0.293512, -1.148161, -85.905090, -172.208115, -893.024170, 13.728217, 100.772518
1759228607.019671, 1.484405, 9.893889, 4.245817, -0.109495, -1.076791, -0.498319, -86.525131, -171.861450, -893.531555, 13.728217, 100.772518
1759228607.039669, 4.149301, 7.026683, 4.882226, -0.209299, -0.979473, -0.277975, -86.877090, -171.575455, -893.645996, 13.728217, 100.772518
1759228607.059665, 5.130026, 4.504541, 2.668188, 0.084036, -0.899700, -0.150447, -87.375320, -171.705826, -893.830811, 13.728217, 100.772518
1759228607.079663, 3.730465, 3.163937, 1.349582, 0.530702, -0.482551, 0.202430, -87.183380, -171.904312, -894.116089, 13.728217, 100.772518
1759228607.099667, 0.952443, 3.204040, 1.143979, 0.796984, -0.495075, 0.404081, -87.350433, -172.481216, -895.031372, 13.728217, 100.772518
1759228607.119671, 0.016460, 4.135385, -0.216226, 1.096180, -0.629317, 0.519323, -87.365936, -173.207031, -895.706116, 13.728217, 100.772518
1759228607.139663, 0.711676, 4.205565, -0.350751, 1.392966, -0.833522, 0.688975, -87.218887, -173.955200, -896.190796, 13.728217, 100.772518
1759228607.159668, 1.067964, 2.926163, -0.799813, 1.667606, -1.103955, 0.765091, -87.650635, -174.989471, -896.821899, 13.728217, 100.772518
1759228607.179657, 0.085892, 1.171962, -1.713650, 1.825866, -1.001712, 0.785753, -87.739426, -175.980591, -897.827820, 13.728217, 100.772518
1759228607.199666, -1.120337, 1.155801, -0.722750, 2.036014, -1.345194, 0.769921, -87.845856, -176.829712, -898.619141, 13.728217, 100.772518
1759228607.219666, -0.749235, 3.174711, 0.996437, 2.202482, -1.750683, 0.590916, -88.618286, -178.711792, -900.569458, 13.728217, 100.772518
1759228607.239670, -0.315436, 7.844751, 2.048988, 2.421702, -1.232912, 0.159899, -88.822266, -179.311142, -901.385010, 13.728217, 100.772518
1759228607.259704, 0.821211, 12.698397, 6.953959, 1.981104, -0.745478, 0.129776, -88.923782, -180.391357, -902.246948, 13.728217, 100.772518
1759228607.279659, 0.039654, 9.749788, 5.432892, 0.965091, -0.082960, 0.310762, -89.324860, -181.496368, -902.701233, 13.728217, 100.772518
1759228607.299743, 0.683096, 4.698022, 2.302923, 0.464822, 0.315050, 0.073931, -89.324890, -181.703079, -902.741821, 13.728217, 100.772518
1759228607.319688, 4.410269, 3.582175, 1.914613, 0.206560, 0.305192, 0.174722, -89.318741, -181.729111, -902.201843, 13.728217, 100.772518
1759228607.339772, 3.300706, 3.638139, 1.106420, 0.365022, -0.031770, 0.468457, -89.373840, -182.308365, -902.473267, 13.728217, 100.772518
1759228607.359687, 1.777545, 5.936722, 2.473659, 0.768146, 0.353935, 0.443217, -89.038513, -182.800415, -902.620972, 13.728217, 100.772518
1759228607.379667, 3.121291, 19.056349, 6.262184, 0.632651, -1.267264, 0.205637, -89.254410, -183.470917, -902.984741, 13.728217, 100.772518
1759228607.399697, -4.267814, 24.282293, -6.460155, 0.712898, -1.172153, -0.889590, -89.796524, -183.789566, -903.480103, 13.728217, 100.772518
1759228607.419665, -1.441758, 19.008764, -0.613065, -0.508220, 2.548401, -0.859167, -89.516205, -183.428833, -902.882080, 13.728217, 100.772518
1759228607.439697, 1.662324, 32.788442, 23.886651, -1.218325, 1.922507, -0.413769, -88.715607, -183.118698, -902.038513, 13.728217, 100.772518
1759228607.459682, 1.176600, 19.780146, -3.999514, -2.132769, 0.596688, -0.245256, -88.128235, -182.034927, -901.369751, 13.728217, 100.772518
1759228607.479663, 2.086098, 7.860314, -1.741034, -1.944020, 0.194124, 0.237528, -88.453339, -180.830002, -900.650879, 13.728217, 100.772518
1759228607.499322, -0.630722, 5.052813, -4.744410, -0.238037, -0.392783, 0.152509, -88.498215, -180.719223, -900.548340, 13.728217, 100.772518
1759228607.519677, -0.928352, 9.671527, -4.591181, 1.131612, 0.119341, 0.094557, -87.968414, -181.064865, -900.739868, 13.728217, 100.772518
1759228607.539669, -0.705841, 16.379332, -4.030938, 1.932431, -0.165979, 0.172548, -87.991547, -182.365341, -901.060242, 13.728217, 100.772518
1759228607.559683, -1.636586, 16.258275, -0.556652, 1.576396, 1.810926, 0.383977, -87.288589, -183.180298, -901.057373, 13.728217, 100.772518
1759228607.579661, -1.842937, 9.205855, 1.566556, 1.332826, 1.834391, 0.283547, -86.648468, -183.915207, -900.590088, 13.728217, 100.772518
1759228607.599695, 0.418237, 7.609371, 1.350030, 1.432479, 1.026652, 0.380116, -86.228806, -184.631790, -900.297058, 13.728217, 100.772518
1759228607.619679, 1.387889, 6.928071, 1.568950, 1.216730, 0.943117, 0.554681, -85.688126, -185.383438, -900.038208, 13.728217, 100.772518
1759228607.638815, 3.014749, 7.491307, 1.860145, 1.212072, 0.841907, 0.632360, -85.303329, -186.185898, -899.598999, 13.728217, 100.772518
1759228607.659674, 3.176208, 8.377611, 2.705298, 1.024684, 0.559533, 0.725970, -84.745972, -187.176163, -899.618958, 13.728217, 100.772518
1759228607.679658, 0.139911, 8.457368, 2.057367, 0.662330, 0.807073, 0.717020, -84.173294, -187.923660, -899.554626, 13.728217, 100.772518
1759228607.699685, -2.225261, 7.614609, 1.625813, 0.442633, 0.687376, 0.499157, -83.830048, -188.230682, -899.290466, 13.728217, 100.772518
1759228607.719686, -4.131943, 6.297798, 2.121263, 0.113286, 0.735293, 0.266274, -83.357574, -188.718796, -898.942810, 13.728217, 100.772518
1759228607.739681, -5.537489, 5.629516, 4.988469, -0.708727, 1.294699, -0.019692, -82.975220, -188.637131, -898.433105, 13.728217, 100.772518
1759228607.759691, -2.054973, 6.156989, 5.372289, -1.910379, 1.172673, -0.101221, -82.568314, -187.630203, -897.257202, 13.728217, 100.772518
1759228607.779656, -0.783652, 5.366154, 2.517802, -2.158679, -0.269630, -0.019288, -82.585236, -186.749725, -897.225586, 13.728217, 100.772518
1759228607.799685, -2.225560, 5.284302, -0.634015, -2.020644, -0.692773, -0.070311, -83.099121, -186.139313, -897.533081, 13.728217, 100.772518
1759228607.819675, -3.110966, 5.864447, -2.729689, -1.643802, -0.761508, -0.204655, -83.178253, -185.427216, -897.374817, 13.728217, 100.772518
1759228607.839674, -1.674295, 6.777237, 0.734721, -1.319761, -0.278278, -0.292360, -83.615067, -184.980865, -897.293091, 13.728217, 100.772518
1759228607.859668, 0.341174, 7.055114, 0.432153, -1.161744, -0.015801, -0.180303, -83.671249, -184.570999, -896.959473, 13.728217, 100.772518
1759228607.879203, -0.879869, 7.342119, 1.675792, -1.240047, 0.288089, -0.145527, -83.447006, -184.281723, -896.768677, 13.728217, 100.772518
1759228607.899676, -2.028936, 9.268104, 5.001338, -1.521758, 1.042449, -0.499512, -83.070892, -183.705429, -896.003784, 13.728217, 100.772518
1759228607.919655, -1.697788, 11.228357, 5.428104, -1.769318, 0.830715, -0.898232, -82.914566, -183.003769, -895.170532, 13.728217, 100.772518
1759228607.939675, -2.916587, 15.161132, 5.816414, -2.203662, 0.613339, -1.313794, -82.584488, -182.036728, -894.316467, 13.728217, 100.772518
1759228607.959677, -5.371242, 19.815161, 5.893327, -2.195669, 0.048442, -1.750620, -82.817093, -180.707443, -893.922546, 13.728217, 100.772518
1759228607.979653, -4.774487, 23.132627, 3.192668, -2.036130, -1.202753, -2.166390, -83.743851, -179.352219, -894.138733, 13.728217, 100.772518
1759228607.999679, 2.751985, 20.727053, -0.538995, -0.832212, 0.082305, -2.499420, -84.629303, -177.847519, -893.697632, 13.728217, 100.772518
1759228608.019675, 3.134459, 14.025832, 8.187122, -0.314568, -0.079727, -1.996865, -84.806976, -177.255844, -893.793030, 13.728217, 100.772518
1759228608.039683, 1.191714, 12.091616, 5.560234, -0.203883, 0.066981, -1.386150, -85.236862, -176.567261, -893.344116, 13.728217, 100.772518
1759228608.059383, 0.796671, 11.337443, 4.493617, 0.022871, -0.109038, -0.934314, -85.504852, -176.187164, -893.416870, 13.728217, 100.772518
1759228608.079223, 0.596904, 10.488100, 2.921375, 0.327557, -0.193619, -0.676900, -85.545624, -176.101761, -893.721680, 13.728217, 100.772518
1759228608.099717, 1.261445, 8.764873, 3.511246, 0.432917, -0.522381, -0.396832, -85.796661, -175.922134, -893.928223, 13.728217, 100.772518
1759228608.119675, 3.525013, 7.497293, 2.837428, 0.492507, -0.389188, -0.072055, -85.956436, -175.970383, -894.138306, 13.728217, 100.772518
1759228608.139677, 3.157054, 6.309470, 2.177227, 0.809522, -0.384099, 0.197223, -86.145798, -176.377090, -894.509705, 13.728217, 100.772518
1759228608.159699, 2.065897, 5.598392, 0.902913, 1.048667, -0.265585, 0.435970, -86.087051, -176.873856, -894.745728, 13.728217, 100.772518
1759228608.179655, 1.325939, 4.904073, 0.908300, 1.134562, -0.014922, 0.676062, -85.645493, -177.499542, -895.226746, 13.728217, 100.772518
1759228608.199761, 1.973421, 3.649362, 0.789638, 1.057373, -0.147351, 0.888449, -85.633514, -178.275452, -895.625061, 13.728217, 100.772518
1759228608.219680, 1.260697, 2.136825, -1.356016, 1.369313, -0.844570, 1.139093, -85.294662, -179.365723, -896.125122, 13.728217, 100.772518
1759228608.239697, -2.491316, 1.640627, -1.897554, 1.982203, -0.605429, 1.136343, -85.481873, -180.693787, -897.146790, 13.728217, 100.772518
1759228608.259669, -3.471742, 1.794005, 0.121655, 2.302308, -0.085025, 1.007048, -85.330231, -182.194229, -897.524292, 13.728217, 100.772518
1759228608.279652, 0.674566, 3.911527, 4.699369, 1.880269, -0.593802, 0.893732, -85.282608, -183.262085, -898.316528, 13.728217, 100.772518
1759228608.299755, 3.837456, 7.828142, 4.807108, 1.525898, -1.300796, 0.773862, -85.601379, -184.673935, -898.864868, 13.728217, 100.772518
1759228608.319682, 2.263867, 10.710611, 5.171924, 1.329467, -1.105507, 0.715655, -85.818146, -185.806213, -899.431274, 13.728217, 100.772518
1759228608.339676, -0.777667, 10.070910, 6.271162, 0.486951, -0.070963, 0.565339, -85.771210, -186.329803, -899.327515, 13.728217, 100.772518
1759228608.359698, -0.426766, 9.152285, 5.058050, 0.288733, 0.548167, 0.306096, -85.796936, -186.517319, -899.317322, 13.728217, 100.772518
1759228608.379651, 0.711976, 6.178237, 2.971354, -0.086319, 0.367132, 0.313302, -85.664536, -186.851135, -899.020325, 13.728217, 100.772518
1759228608.399677, -1.417816, 4.378247, -0.398635, -0.422198, 0.094827, 0.471207, -85.688141, -187.007843, -898.940918, 13.728217, 100.772518
1759228608.419659, -2.095974, 1.382502, -1.221492, -0.453240, 0.726349, 0.433139, -85.537659, -187.224472, -898.620605, 13.728217, 100.772518
1759228608.439667, -1.243040, -0.464026, 3.611504, 0.038191, 0.418173, -0.008795, -85.488068, -187.486420, -898.656616, 13.728217, 100.772518
1759228608.458862, 1.462109, 9.851691, 8.447941, 0.586827, -0.239769, -0.465817, -84.927200, -187.804276, -898.916138, 13.728217, 100.772518
1759228608.479652, 1.064971, 24.942194, -5.895422, 0.333590, -1.154383, -1.181959, -85.571838, -187.875595, -899.047180, 13.728217, 100.772518
1759228608.499694, 0.481235, 27.644649, -12.723985, 0.815647, 1.473836, -1.042846, -85.087799, -188.128357, -898.779114, 13.728217, 100.772518
1759228608.519672, -3.128324, 34.901026, 10.757447, 1.830702, 4.264606, -0.221596, -83.808212, -188.952637, -897.507751, 13.728217, 100.772518
1759228608.539684, 0.005686, 22.502503, 11.646145, -2.815864, 0.133245, -0.204309, -82.913254, -187.649445, -896.149109, 13.728217, 100.772518
1759228608.559716, 2.839224, 8.888773, -7.656358, -2.187293, -0.981661, 0.708759, -83.821747, -186.663147, -896.332153, 13.728217, 100.772518
1759228608.579457, -0.289100, 7.267898, -5.303456, -0.417268, 0.256824, 0.563332, -83.275574, -186.863846, -896.469238, 13.728217, 100.772518
1759228608.599676, 0.605434, 8.980650, -6.414964, 0.830682, 0.466190, -0.082136, -83.060181, -187.164093, -896.577698, 13.728217, 100.772518
1759228608.619676, 2.729240, 12.670714, -4.891803, 1.632578, 0.977204, 0.120677, -82.557785, -187.777206, -896.229858, 13.728217, 100.772518
1759228608.639693, 1.606809, 13.791050, -1.432032, 2.023327, 1.614371, 0.784197, -82.126709, -188.839035, -895.673645, 13.728217, 100.772518
1759228608.659683, -2.053178, 10.510396, 1.425597, 1.773089, 1.832982, 0.882982, -81.350647, -189.883270, -894.914551, 13.728217, 100.772518
1759228608.679650, -3.158850, 8.123975, 2.591723, 1.368771, 0.946913, 0.761831, -81.089142, -190.702332, -894.441650, 13.728217, 100.772518
1759228608.699673, -2.563442, 6.133795, 1.649455, 1.017557, 0.528479, 0.659049, -80.983414, -191.565903, -893.944153, 13.728217, 100.772518
1759228608.719678, 0.067187, 5.683386, 1.503708, 0.988956, 0.733496, 0.490540, -80.862244, -191.850616, -893.885803, 13.728217, 100.772518
1759228608.739685, 1.966687, 7.681796, 2.557157, 0.800948, 0.547579, 0.487016, -80.601242, -192.404099, -893.265686, 13.728217, 100.772518
1759228608.759708, -0.389207, 9.178022, 2.451363, 0.382603, 0.770014, 0.508688, -79.822342, -192.897049, -893.034790, 13.728217, 100.772518
1759228608.779213, -3.093009, 8.366238, 2.574964, 0.078050, 0.798233, 0.313560, -79.933151, -193.468948, -892.698120, 13.728217, 100.772518
1759228608.799647, -4.043358, 7.472004, 1.022474, -0.082110, 0.522014, -0.031409, -79.578217, -193.423172, -892.511719, 13.728217, 100.772518
1759228608.819651, -4.739322, 7.417087, 2.026093, -0.167259, 0.785043, -0.232839, -79.248444, -193.567719, -892.116333, 13.728217, 100.772518
1759228608.839711, -5.822250, 8.047510, 6.535422, -1.062302, 0.906725, -0.286867, -79.021820, -193.375809, -891.423584, 13.728217, 100.772518
1759228608.859769, -2.387318, 6.786065, 2.576011, -2.044385, -0.369533, -0.349458, -79.371826, -192.315826, -891.667603, 13.728217, 100.772518
1759228608.879516, -0.162806, 5.451148, 0.594510, -2.042194, -1.243105, 0.006518, -79.638474, -191.748901, -892.459290, 13.728217, 100.772518
1759228608.899673, -1.601422, 5.577442, -0.519991, -1.920878, -1.785602, 0.159838, -79.900528, -191.628525, -893.273315, 13.728217, 100.772518
1759228608.919651, -2.671779, 6.194997, -2.340781, -1.545604, -1.674330, 0.070168, -80.207382, -191.098190, -893.907715, 13.728217, 100.772518
1759228608.939684, -2.230648, 7.748534, -1.867926, -0.989015, -0.846334, -0.097953, -80.479660, -191.000183, -894.222412, 13.728217, 100.772518
1759228608.959714, -0.985962, 9.618256, 0.337582, -0.893448, -0.213993, -0.072321, -80.440567, -190.837112, -894.200195, 13.728217, 100.772518
1759228608.979536, -1.199495, 9.660903, 3.435679, -1.356334, 0.382182, -0.160006, -80.099396, -190.853134, -894.242859, 13.728217, 100.772518
1759228608.999718, -1.366940, 9.053973, 4.315997, -1.840726, 0.344057, -0.518407, -79.865662, -189.931198, -893.938599, 13.728217, 100.772518
1759228609.019674, 0.142904, 10.634445, 5.412242, -1.844705, 0.038866, -0.742962, -79.694809, -189.153839, -893.710815, 13.728217, 100.772518
1759228609.039677, -0.351349, 13.138032, 4.800823, -2.118498, -0.665104, -0.907174, -79.748993, -188.247681, -893.816406, 13.728217, 100.772518
1759228609.059687, -4.486584, 15.629199, 4.148553, -2.215258, -0.976454, -1.570350, -79.953583, -187.031036, -894.075439, 13.728217, 100.772518
1759228609.079216, -5.093814, 18.632126, 3.152864, -2.211161, -1.023335, -2.171160, -80.467346, -185.055817, -894.340393, 13.728217, 100.772518
1759228609.099669, -1.493383, 20.558710, 0.718111, -1.741473, -0.910384, -2.448918, -81.139282, -182.975510, -894.489624, 13.728217, 100.772518
1759228609.119669, 3.705177, 17.439066, 1.724873, -0.648006, 0.404473, -2.293617, -81.314011, -181.441116, -894.281311, 13.728217, 100.772518
1759228609.139681, 1.924639, 12.284499, 7.202507, -0.333941, 0.582083, -1.891502, -81.640137, -180.552368, -893.688354, 13.728217, 100.772518
1759228609.159640, 1.568950, 10.959757, 3.331981, 0.127617, 0.522266, -1.340358, -81.627243, -180.059753, -893.449097, 13.728217, 100.772518
1759228609.179209, -0.332944, 10.283395, 3.102436, 0.486612, 0.216834, -0.912818, -81.491150, -179.690369, -893.343079, 13.728217, 100.772518
1759228609.199667, -2.042404, 9.226804, 4.190451, 0.768669, -0.116452, -0.623183, -81.636841, -179.789581, -893.692322, 13.728217, 100.772518
1759228609.219677, -1.215207, 8.747814, -1.349282, 0.598747, 0.105435, 0.042575, -81.761719, -179.691574, -893.860840, 13.728217, 100.772518
1759228609.239683, 2.123507, 8.022222, 3.502567, 0.970330, -1.432739, 0.287793, -82.212357, -179.903244, -894.614868, 13.728217, 100.772518
1759228609.259677, 1.990779, 6.771251, 1.210119, 1.368500, -1.111051, 0.912350, -82.246124, -180.806885, -895.353516, 13.728217, 100.772518
1759228609.279648, 0.808193, 4.972009, 2.233042, 1.325749, -1.191004, 1.219049, -82.456406, -182.033188, -896.385925, 13.728217, 100.772518
1759228609.299672, 1.416170, 2.732383, -0.588525, 1.458093, -1.047659, 1.269762, -82.774750, -183.174835, -896.825745, 13.728217, 100.772518
1759228609.319680, 1.132158, 0.779612, -0.470161, 1.885377, -0.854607, 1.211706, -82.721985, -184.576309, -897.333130, 13.728217, 100.772518
1759228609.339683, 0.857274, 1.154903, -0.133626, 2.148981, -0.923272, 1.202880, -83.107864, -185.856781, -898.326294, 13.728217, 100.772518
1759228609.359677, 2.591723, 2.432359, 1.312621, 1.999067, -0.875268, 1.432801, -83.074356, -187.489182, -898.719788, 13.728217, 100.772518
1759228609.379648, 2.927959, 4.129848, 1.506402, 1.966719, -0.676500, 1.436632, -82.912659, -189.436752, -899.305542, 13.728217, 100.772518
1759228609.398862, 0.606780, 7.416339, 3.519327, 1.932529, -0.608149, 1.221045, -83.082794, -190.884521, -899.606079, 13.728217, 100.772518
1759228609.419649, -1.160140, 11.634473, 5.703737, 1.293756, 0.389346, 1.094579, -82.566330, -192.229935, -899.843994, 13.728217, 100.772518
1759228609.439683, -1.067664, 13.355006, 7.197868, 0.342494, 0.605604, 1.002738, -82.267700, -192.779602, -899.274231, 13.728217, 100.772518
1759228609.459670, -0.635511, 10.213215, 4.974253, -0.079526, 0.084024, 0.582520, -82.467651, -193.121033, -899.192200, 13.728217, 100.772518
1759228609.479649, -0.076764, 6.218640, 1.267131, 0.155373, -0.164005, 0.335203, -82.532959, -193.287643, -899.299866, 13.728217, 100.772518
1759228609.499685, -0.308403, 3.160346, -0.887351, 0.504197, 0.096563, 0.375227, -82.524582, -193.849838, -899.101440, 13.728217, 100.772518
1759228609.519681, -0.138116, 1.228525, 0.784700, 0.628172, -0.088802, 0.515942, -82.421021, -194.552994, -898.871582, 13.728217, 100.772518
1759228609.539621, 0.215927, 2.599804, 1.432032, 0.866836, -0.388200, 0.532518, -82.690796, -195.596161, -899.283752, 13.728217, 100.772518
1759228609.559661, -0.721852, 6.964134, 2.798373, 0.722296, -0.768027, 0.145608, -82.203232, -196.496521, -899.534058, 13.728217, 100.772518
1759228609.579647, 2.322525, 22.714839, 6.063615, 0.912755, -2.039360, -0.487707, -82.835495, -196.702164, -900.011108, 13.728217, 100.772518
1759228609.599646, 2.955642, 26.175507, -1.581669, -0.965629, 0.181432, -1.499540, -82.909271, -196.420410, -900.091736, 13.728217, 100.772518
1759228609.619652, -0.095618, 12.644677, -1.148768, -0.290454, -0.774885, -1.255591, -82.990067, -195.399551, -900.449341, 13.728217, 100.772518
1759228609.639659, 1.455974, 25.064748, 6.740276, -0.683959, 0.550112, -1.459523, -82.605667, -195.211853, -900.629333, 13.728217, 100.772518
1759228609.659253, -0.629376, 27.650186, 5.006276, -1.715737, -0.592951, -0.971438, -83.112000, -193.697449, -901.045288, 13.728217, 100.772518
1759228609.679642, 1.818097, 10.903344, -5.374683, -1.356876, -0.633735, 0.405157, -83.977417, -192.809372, -901.465332, 13.728217, 100.772518
1759228609.699027, 5.682039, 8.960599, -11.282376, -0.145278, 0.101021, 0.738837, -83.560822, -193.300476, -901.371460, 13.728217, 100.772518
1759228609.719649, 6.069900, 10.712556, -10.583269, 2.883676, 1.896332, 1.368090, -82.706528, -195.235367, -900.555298, 13.728217, 100.772518
1759228609.739647, 3.889231, 13.010690, -3.021034, 2.361650, 2.300311, 1.424824, -81.607330, -197.224915, -899.285767, 13.728217, 100.772518
1759228609.759659, 0.107290, 14.067581, 3.822343, 1.680645, 1.648435, 1.273634, -81.162628, -198.460968, -898.473999, 13.728217, 100.772518
1759228609.779653, 1.214608, 13.284826, 0.527921, 1.299674, 1.489735, 1.304140, -80.833160, -199.554611, -897.356445, 13.728217, 100.772518
1759228609.799740, 1.840991, 9.232491, 2.586785, 0.569365, 0.953729, 1.378654, -80.613190, -199.962234, -896.384338, 13.728217, 100.772518
1759228609.819690, 0.444274, 4.583400, 1.003470, 0.460090, 0.636521, 1.153721, -80.422836, -200.933121, -896.264954, 13.728217, 100.772518
1759228609.839737, -0.459836, 2.162862, 0.208894, 0.468196, 0.741122, 1.086226, -80.530121, -201.322983, -895.582520, 13.728217, 100.772518
1759228609.859700, -1.689259, 3.809025, 0.492457, 0.468167, 0.723824, 0.585098, -80.019028, -202.378586, -895.407532, 13.728217, 100.772518
1759228609.879639, -2.627038, 7.655460, 1.436072, 0.251109, 0.511709, 0.105790, -79.825348, -202.862427, -895.012878, 13.728217, 100.772518
1759228609.899693, -3.489848, 8.485949, 2.476802, -0.269439, 0.249850, -0.300203, -79.855286, -202.827255, -894.997925, 13.728217, 100.772518
1759228609.919656, -2.707094, 7.069778, 3.025972, -0.994910, 0.079740, -0.527699, -79.617783, -202.285858, -894.791382, 13.728217, 100.772518
1759228609.939689, -0.400131, 6.396110, 3.707571, -1.232985, 0.162938, -0.501126, -79.468826, -201.985413, -894.754517, 13.728217, 100.772518
1759228609.959687, -1.003919, 6.609792, 1.413028, -1.319801, 0.055084, -0.487623, -78.963181, -201.443176, -895.095642, 13.728217, 100.772518
1759228609.979134, -2.138621, 7.894730, 2.442984, -1.878237, -0.333367, -0.438494, -78.887924, -200.522964, -895.446411, 13.728217, 100.772518
1759228609.998785, -0.383222, 7.268796, 0.662446, -1.847874, -0.778233, -0.216585, -79.004974, -199.878922, -895.732849, 13.728231, 100.772522
1759228610.019679, 0.210091, 5.343858, -1.090409, -1.836981, -0.649778, -0.090566, -79.229858, -199.216370, -896.463135, 13.728231, 100.772522
1759228610.039638, 0.381426, 5.880907, -1.394323, -1.731870, -0.531951, -0.039423, -79.536041, -198.588394, -897.164185, 13.728231, 100.772522
1759228610.059675, -0.583287, 7.648427, -0.081702, -1.462496, -0.453095, -0.141418, -79.542633, -198.085129, -897.626282, 13.728231, 100.772522
1759228610.079648, -1.058836, 8.933515, 0.131232, -1.494588, -0.116712, -0.287601, -79.597397, -197.549133, -897.627808, 13.728231, 100.772522
1759228610.099671, -1.500566, 10.445603, 3.961506, -1.972513, 0.017086, -0.593141, -79.118896, -196.847839, -898.080505, 13.728231, 100.772522
1759228610.119676, 0.057610, 12.185888, 6.874800, -2.074413, 0.161746, -0.993796, -79.017532, -195.668457, -898.249512, 13.728231, 100.772522
1759228610.139695, 2.693327, 15.817593, 2.690334, -1.954241, 0.528005, -1.277691, -78.616013, -194.418915, -897.974670, 13.728231, 100.772522
1759228610.159669, 0.885705, 17.923742, 4.826262, -2.230780, 0.024459, -1.545943, -78.358017, -192.960419, -898.418579, 13.728231, 100.772522
1759228610.179650, -0.717063, 20.319889, 6.002563, -2.087058, -0.809502, -1.832403, -78.652496, -191.228027, -898.324036, 13.728231, 100.772522
1759228610.199679, 4.345626, 19.537284, 2.453907, -1.331617, -0.347767, -1.750415, -79.091202, -189.170105, -898.672241, 13.728231, 100.772522
1759228610.219637, 8.107665, 15.959000, 5.252430, -1.076740, -0.521177, -1.201679, -78.920120, -187.977737, -898.771301, 13.728231, 100.772522
1759228610.238724, 4.283376, 13.796886, 6.019771, -0.893007, -0.500597, -0.907479, -79.213684, -186.994263, -898.828003, 13.728231, 100.772522
1759228610.259727, 1.586757, 13.129353, 4.595520, -0.580733, -0.577936, -0.682674, -79.474197, -186.179779, -899.000916, 13.728231, 100.772522
1759228610.279410, 1.962198, 10.807576, 4.141819, -0.381263, -0.891002, -0.508272, -79.973419, -185.494507, -898.867554, 13.728231, 100.772522
1759228610.299669, 2.978387, 5.930886, 4.775235, -0.348952, -1.333634, -0.625262, -80.613022, -184.967087, -899.576904, 13.728231, 100.772522
1759228610.319675, 4.077325, 2.987964, 3.913173, -0.006080, -0.987428, -0.295272, -81.247925, -184.326004, -900.259277, 13.728231, 100.772522
1759228610.339672, 5.607819, 3.542371, 1.499668, 0.679971, -0.010411, 0.411414, -81.554230, -184.530640, -900.493164, 13.728231, 100.772522
1759228610.359672, 4.892252, 4.409371, 1.693299, 1.062843, 0.247076, 0.738023, -81.136780, -185.499283, -900.513306, 13.728231, 100.772522
1759228610.379647, 2.820070, 3.573645, 2.247108, 1.173282, 0.122115, 0.746415, -80.797134, -186.543396, -900.656372, 13.728231, 100.772522
1759228610.398740, 2.029684, 2.784905, 0.879271, 1.441167, 0.029337, 0.813002, -80.779755, -187.277939, -900.776917, 13.728231, 100.772522
1759228610.419665, 1.749713, 1.457470, 1.116596, 1.797575, -0.067084, 1.056731, -80.648056, -188.473221, -901.113403, 13.728231, 100.772522
1759228610.439659, 1.344644, 1.750311, -1.055095, 2.503714, 0.368799, 1.414299, -80.540863, -190.396545, -900.979492, 13.728231, 100.772522
1759228610.459712, -1.093701, 3.801843, -0.730082, 2.714543, 0.115757, 1.626490, -80.307434, -192.760117, -901.050232, 13.728231, 100.772522
1759228610.479655, -1.482909, 5.408502, 2.488623, 2.054168, -0.615125, 1.242949, -80.019089, -195.037689, -901.044006, 13.728231, 100.772522
1759228610.499525, -1.673397, 6.980594, 6.374412, 1.186830, -0.793318, 0.720646, -80.376022, -196.453186, -901.518616, 13.728231, 100.772522
1759228610.519668, -1.397466, 8.645462, 6.129456, 0.920128, 0.058202, 0.236682, -80.375031, -197.301620, -901.389465, 13.728231, 100.772522
1759228610.539272, -0.002394, 8.150910, 4.257938, 1.171600, 0.654354, 0.035996, -80.492584, -197.934052, -901.231506, 13.728231, 100.772522
1759228610.559670, 0.883909, 6.747309, 3.924845, 0.954126, 0.237064, -0.107532, -80.375992, -198.604660, -901.075317, 13.728231, 100.772522
1759228610.579638, 1.786374, 6.234052, 4.496011, 0.320393, -0.075888, -0.168751, -80.285324, -199.122070, -900.940369, 13.728231, 100.772522
1759228610.599645, 0.622941, 5.589264, -0.306607, 0.543117, 0.566902, -0.084309, -80.103775, -199.413010, -900.904297, 13.728231, 100.772522
1759228610.619683, 1.339556, 3.730765, -0.134075, 0.818992, 0.376803, 0.235555, -79.742905, -199.961151, -900.336060, 13.728231, 100.772522
1759228610.639669, 2.711583, 2.781165, 1.228076, 1.165062, -0.074607, 0.491681, -79.845871, -201.078583, -900.318542, 13.728231, 100.772522
1759228610.659666, 2.955193, 10.666917, 6.136339, 0.514130, -0.401140, 0.307496, -79.593140, -201.940292, -900.411987, 13.728231, 100.772522
1759228610.679643, 5.405808, 20.683658, -0.307805, 0.126236, -1.914115, -0.076137, -79.897156, -202.719879, -901.086365, 13.728231, 100.772522
1759228610.698998, 2.057068, 19.605070, 0.523133, -1.176463, -0.997471, -0.656411, -80.501923, -202.546707, -901.981201, 13.728231, 100.772522
1759228610.719223, 2.563442, 21.275475, 2.144307, -0.881257, -0.791659, -0.938516, -80.896255, -201.543900, -902.685303, 13.728231, 100.772522
1759228610.739725, 5.052663, 22.463298, -0.513107, -0.253891, 1.315964, -1.193604, -80.277252, -200.928726, -902.487183, 13.728231, 100.772522
1759228610.759675, 3.416675, 20.756382, 4.401889, -0.610939, 0.918730, -0.671663, -79.902603, -200.020111, -902.184265, 13.728231, 100.772522
1759228610.778708, 2.769792, 13.422044, -3.088071, -0.180230, 0.427039, 0.043276, -79.419739, -199.608917, -901.906006, 13.728231, 100.772522
1759228610.799651, 3.384354, 11.795783, -5.404761, 1.151347, 1.003273, 0.358005, -78.963242, -200.368942, -901.289429, 13.728231, 100.772522
1759228610.819643, 4.580856, 10.856358, -4.285621, 1.871656, 0.905229, 0.579868, -78.484375, -201.693436, -900.541687, 13.728231, 100.772522
1759228610.839643, 1.557877, 10.703877, -1.844583, 2.033088, 0.754397, 0.613827, -78.248154, -202.835342, -899.950073, 13.728231, 100.772522
1759228610.859668, -1.045967, 11.649287, 0.703746, 1.663369, 1.010069, 0.401334, -78.025345, -203.809296, -899.114136, 13.728231, 100.772522
1759228610.879646, 0.048782, 10.167576, 2.404976, 1.028048, 0.856611, 0.279849, -77.855209, -204.201874, -898.400574, 13.728231, 100.772522
1759228610.899668, 2.975843, 7.646482, 3.291728, 0.550048, 0.400579, 0.287813, -77.645279, -204.663025, -897.509705, 13.728231, 100.772522
1759228610.919045, 2.933944, 5.727080, 1.049409, 0.419664, 0.434027, 0.422789, -77.481644, -205.535721, -897.514038, 13.728231, 100.772522
1759228610.939709, 1.565509, 4.790648, 0.626383, 0.290404, 0.627307, 0.473392, -77.437149, -205.664398, -897.364258, 13.728231, 100.772522
1759228610.959672, 0.276830, 5.057302, 1.239748, 0.089913, 0.743125, 0.239994, -77.031204, -205.763382, -897.016968, 13.728231, 100.772522
1759228610.978693, -0.535852, 6.428431, 1.303044, -0.177229, 0.940277, -0.047276, -76.900391, -205.879501, -896.600098, 13.728231, 100.772522
1759228610.999686, -0.837073, 5.867440, 1.858200, -0.645018, 1.108055, -0.193497, -76.209900, -205.790009, -895.912964, 13.728231, 100.772522
1759228611.019731, -0.140210, 3.621230, 1.032799, -0.761726, 0.895122, -0.230826, -75.805252, -205.426208, -895.927124, 13.728231, 100.772522
1759228611.039672, 0.259023, 3.489250, 0.393697, -0.362983, 0.757781, -0.242969, -75.592728, -205.155228, -895.408691, 13.728231, 100.772522
1759228611.059668, -1.721880, 6.408829, 1.647959, -0.576870, 0.856723, -0.528224, -74.488983, -205.099335, -895.101685, 13.728231, 100.772522
1759228611.079643, -0.468515, 8.009802, 2.892944, -1.195877, 0.340015, -0.444779, -74.341248, -204.625366, -895.076477, 13.728231, 100.772522
1759228611.098888, -0.403722, 7.066337, 0.261716, -1.287015, 0.107666, -0.458150, -74.267349, -204.281921, -895.580322, 13.728231, 100.772522
1759228611.119525, -3.985149, 6.328922, 0.653467, -1.196455, 0.380010, -1.101437, -73.633652, -203.903900, -895.901489, 13.728231, 100.772522
1759228611.139664, -4.853047, 8.288726, 3.472640, -1.330077, 0.177199, -1.566249, -73.038361, -203.097565, -895.942505, 13.728231, 100.772522
1759228611.159692, -3.702783, 10.272472, 4.470124, -1.584130, -0.395647, -1.631533, -72.507919, -201.350021, -896.552551, 13.728231, 100.772522
1759228611.179650, -3.458275, 11.724256, 4.194641, -1.943259, -0.384174, -1.463226, -72.170364, -200.070786, -897.093689, 13.728231, 100.772522
1759228611.199672, -1.927931, 12.259809, 6.258294, -2.416125, 0.018782, -0.971596, -71.817673, -198.335388, -897.201172, 13.728231, 100.772522
1759228611.219642, -1.597830, 12.615946, 6.080674, -2.680280, -0.729869, -1.340374, -71.503098, -196.876602, -897.977783, 13.728231, 100.772522
1759228611.239105, -1.480814, 13.297546, 2.026243, -2.178987, -0.181336, -1.909477, -71.398346, -194.799103, -898.975281, 13.728231, 100.772522
1759228611.259666, -2.354248, 15.079430, 3.139547, -1.715155, -0.193843, -2.294727, -70.629089, -192.398926, -899.480042, 13.728231, 100.772522
1759228611.279642, -2.496255, 18.776676, 3.075053, -1.239452, -0.452070, -2.482753, -70.814621, -190.224579, -899.584900, 13.728231, 100.772522
1759228611.299672, -0.085593, 21.926548, -0.077812, -0.497394, 0.062874, -2.246313, -70.797150, -187.860840, -899.868408, 13.728231, 100.772522
1759228611.319664, 0.622193, 16.985364, 6.312163, -0.550074, -0.165271, -1.854168, -70.799698, -186.252213, -899.525879, 13.728231, 100.772522
1759228611.339666, 0.540042, 13.101071, 7.165546, -0.342615, -0.736165, -1.203805, -71.285873, -184.907898, -899.857239, 13.728231, 100.772522
1759228611.359665, -0.789039, 11.620707, 3.803938, 0.027207, -0.787006, -0.740088, -71.442413, -183.914093, -900.548523, 13.728231, 100.772522
1759228611.379231, -1.019930, 11.232696, 3.936217, 0.217281, -0.735035, -0.572963, -72.019669, -183.439346, -900.896057, 13.728231, 100.772522
1759228611.399666, 0.072125, 9.868750, 1.921197, 0.492020, -0.365463, -0.598032, -72.584808, -182.636444, -900.992432, 13.728231, 100.772522
1759228611.419646, 2.321029, 7.651120, 3.054702, 0.596175, -0.185886, -0.466597, -72.746292, -182.671539, -901.680542, 13.728231, 100.772522
1759228611.439665, 2.556409, 5.566070, 3.683030, 0.778482, -0.295753, -0.117840, -73.040741, -182.367554, -901.610718, 13.728231, 100.772522
1759228611.459664, 1.900547, 4.362385, 1.276409, 0.954632, -0.114533, 0.296372, -72.892151, -182.834366, -902.123779, 13.728231, 100.772522
1759228611.479220, 1.461810, 4.271106, 0.247950, 0.993000, -0.076832, 0.682118, -72.848221, -183.421265, -902.557007, 13.728231, 100.772522
1759228611.498986, 0.679355, 4.012083, 0.633715, 1.038848, -0.337301, 0.915122, -72.915237, -184.237717, -902.590820, 13.728231, 100.772522
1759228611.518840, 0.285808, 3.083283, 0.737564, 1.350055, -0.559599, 1.103904, -72.951065, -185.610718, -903.366272, 13.728231, 100.772522
1759228611.539670, 1.124078, 2.667739, -0.285957, 1.897704, -0.621278, 1.242692, -73.361618, -187.523605, -903.932495, 13.728231, 100.772522
1759228611.558855, -0.470161, 2.137723, -0.925060, 2.221739, -0.567384, 1.223197, -73.075760, -189.542282, -904.495361, 13.728231, 100.772522
1759228611.579640, -0.484377, 4.286369, 0.404770, 2.203167, -0.847873, 1.303813, -73.533218, -191.746796, -905.174133, 13.728231, 100.772522
1759228611.599661, -0.504428, 6.664111, 2.450914, 2.030833, -1.153605, 1.146142, -73.550659, -193.913132, -906.024597, 13.728231, 100.772522
1759228611.619630, -1.469292, 8.831162, 5.076456, 1.402864, -1.020278, 0.753522, -73.752884, -196.011780, -906.930298, 13.728231, 100.772522
1759228611.639658, -1.962647, 11.823765, 8.849269, 0.589534, -0.073541, 0.460536, -74.006439, -196.843430, -907.193848, 13.728231, 100.772522
1759228611.659669, -0.268599, 11.512519, 6.452373, 0.367615, 0.333537, 0.338868, -73.817291, -197.340454, -906.812744, 13.728231, 100.772522
1759228611.679641, 1.755548, 7.444321, 4.340388, -0.012804, -0.048648, 0.418652, -74.060837, -197.900711, -906.999084, 13.728231, 100.772522
1759228611.699668, 0.939126, 4.045902, 0.654066, -0.115510, -0.256452, 0.551225, -74.063507, -198.267838, -907.352661, 13.728231, 100.772522
1759228611.719640, -1.136198, 3.192219, -2.487576, 0.565139, 0.029126, 0.370872, -73.976028, -198.977463, -907.317688, 13.728231, 100.772522
1759228611.739670, -0.458340, 4.485088, 0.112827, 1.111002, 0.276383, 0.244617, -73.556091, -199.942947, -907.607300, 13.728231, 100.772522
1759228611.759666, 0.310797, 7.131429, 4.317793, 0.664832, 0.286348, 0.203008, -72.841507, -201.209351, -907.320862, 13.728231, 100.772522
1759228611.779208, 3.414281, 19.871425, 9.060407, 0.225233, -0.721428, 0.118489, -72.703445, -201.561142, -907.952026, 13.728231, 100.772522
1759228611.799664, 3.071312, 23.203256, -6.164171, -0.452379, -0.334177, -0.220517, -72.940292, -201.757401, -908.796509, 13.728231, 100.772522
1759228611.819640, -1.881693, 17.051055, 8.801534, -0.870486, -0.394791, -0.666110, -72.866989, -200.442596, -909.250549, 13.728231, 100.772522
1759228611.839726, -0.729034, 23.217771, 3.223194, -0.787524, -0.037027, -0.980713, -72.291565, -199.950729, -909.326965, 13.728231, 100.772522
1759228611.859664, -5.124938, 23.440282, 6.631490, -2.430501, -0.441319, -0.448960, -72.964508, -197.566788, -910.135132, 13.728231, 100.772522
1759228611.879221, -1.009904, 9.574113, -5.128979, -1.454605, -0.290255, -0.068549, -73.007385, -196.275314, -910.748657, 13.728231, 100.772522
1759228611.899661, -2.224962, 6.064662, -7.890391, 0.354324, 0.665347, -0.017312, -72.602615, -196.032349, -910.375610, 13.728231, 100.772522
1759228611.919658, -1.270124, 8.753052, -5.940014, 1.589156, 0.369652, -0.074875, -71.987823, -196.893036, -909.716797, 13.728231, 100.772522
1759228611.939671, 0.157868, 12.563723, -4.896292, 2.210177, 0.595526, 0.279120, -71.890823, -198.292755, -909.441895, 13.728231, 100.772522
1759228611.958952, -0.604087, 13.246968, -2.089839, 2.246446, 1.450995, 0.431617, -70.770752, -199.895309, -908.334595, 13.728231, 100.772522
1759228611.979640, -0.998232, 11.487380, 2.380585, 1.779331, 1.346584, 0.316944, -70.376495, -201.398880, -906.616211, 13.728231, 100.772522
1759228611.999668, 1.755548, 9.400384, 4.737527, 0.820608, 0.511315, 0.431379, -70.178360, -201.907486, -905.997498, 13.728231, 100.772522
1759228612.019668, 3.821146, 7.248296, 3.020884, 0.355586, -0.035612, 0.716523, -70.285416, -202.496262, -906.519165, 13.728231, 100.772522
1759228612.039118, 2.296488, 5.268441, -0.272340, 0.558150, -0.128545, 0.706157, -70.633377, -203.412598, -906.442932, 13.728231, 100.772522
1759228612.058892, 0.915333, 5.425860, -1.839046, 1.032882, 0.106117, 0.692835, -70.549286, -204.536377, -906.295349, 13.728231, 100.772522
1759228612.078631, -1.099986, 7.674464, -0.401178, 0.908165, 0.181522, 0.726098, -70.323975, -205.722107, -905.958801, 13.728231, 100.772522
1759228612.099658, -3.716100, 9.262717, 2.164358, 0.460281, 0.122369, 0.603491, -70.139435, -206.602936, -905.694763, 13.728231, 100.772522
1759228612.119686, -5.512051, 10.300903, 4.306570, -0.138193, -0.172054, 0.301499, -70.108749, -206.603104, -905.736084, 13.728231, 100.772522
1759228612.139648, -5.443666, 9.906758, 4.197634, -0.596585, -0.297436, -0.163225, -70.371994, -206.320999, -906.199463, 13.728231, 100.772522
1759228612.159636, -3.056198, 8.224232, 3.386000, -0.847952, -0.376017, -0.547492, -70.470001, -205.156616, -906.707214, 13.728231, 100.772522
1759228612.178666, -1.678335, 7.591415, 3.082684, -1.121393, -0.577407, -0.506838, -70.283508, -204.186432, -907.497681, 13.728231, 100.772522
1759228612.199638, -0.635511, 6.305130, 0.540940, -1.251582, -0.780190, -0.277627, -70.361542, -203.212875, -908.154175, 13.728231, 100.772522
1759228612.219648, -1.668459, 6.047304, 0.566827, -1.134270, -0.841234, -0.169594, -70.563995, -202.397614, -909.605774, 13.728231, 100.772522
1759228612.239643, -1.780239, 6.000169, 0.691475, -1.044589, -0.804732, -0.227141, -70.948303, -201.380753, -910.602905, 13.728231, 100.772522
1759228612.259650, -0.787992, 6.246322, -0.002693, -0.981134, -0.924450, -0.160133, -71.457428, -200.522781, -911.479675, 13.728231, 100.772522
1759228612.278683, -0.711676, 6.426337, -0.111779, -0.726960, -0.831046, -0.002879, -71.598694, -200.445831, -911.918701, 13.728231, 100.772522
1759228612.299638, -2.060809, 8.495226, 2.249652, -0.770671, -0.452673, -0.121274, -71.397614, -199.452209, -913.103699, 13.728231, 100.772522
1759228612.319647, 0.001646, 9.548974, 3.995923, -1.454893, -0.191330, -0.199823, -71.367126, -198.098312, -913.558472, 13.728231, 100.772522
1759228612.339649, 0.695815, 8.265083, 2.625392, -1.799275, -0.467525, -0.135102, -71.131927, -196.762344, -914.270020, 13.728231, 100.772522
1759228612.359642, -1.223287, 10.589255, 3.534889, -1.884886, 0.305294, -0.580830, -70.233231, -194.919434, -914.576782, 13.728231, 100.772522
1759228612.378702, -1.579425, 14.068928, 5.188085, -2.306858, 0.395838, -1.168942, -69.868668, -193.730453, -914.493530, 13.728231, 100.772522
1759228612.399649, -2.342277, 19.687969, 6.041918, -2.877560, 0.337081, -1.584240, -69.292282, -190.564850, -914.408630, 13.728231, 100.772522
1759228612.419635, 0.007931, 20.338444, 3.718794, -2.286090, 0.056569, -1.938135, -69.150330, -187.027939, -913.950195, 13.728231, 100.772522
1759228612.439650, 5.428104, 20.700567, 3.448399, -1.364445, 0.174477, -2.399232, -69.698502, -183.367783, -913.769470, 13.728231, 100.772522
1759228612.459664, 2.743007, 12.644976, 7.344962, -1.156905, -0.107949, -1.593902, -70.159576, -180.567551, -913.536926, 13.728231, 100.772522
1759228612.478724, 0.673519, 11.271004, 5.841254, -0.732911, -0.169314, -0.734929, -70.640671, -179.065552, -913.290283, 13.728231, 100.772522
1759228612.499658, -0.581641, 11.910854, 4.086304, -0.450340, -0.498073, -0.258224, -70.871506, -178.080109, -913.317383, 13.728231, 100.772522
1759228612.519636, 1.341800, 10.519075, 4.790049, -0.398548, -1.089911, -0.166452, -71.655304, -177.200989, -913.530396, 13.728231, 100.772522
1759228612.539709, 3.110068, 8.157195, 3.151069, -0.084543, -0.907652, -0.105375, -72.646576, -176.745209, -914.221924, 13.728231, 100.772522
1759228612.559670, 3.934870, 5.504419, 2.815282, 0.088359, -0.345008, 0.036391, -73.088684, -176.546677, -914.216919, 13.728231, 100.772522
1759228612.578753, 3.698293, 4.366425, 2.136376, 0.298621, 0.129802, 0.201315, -73.343201, -176.436249, -914.486877, 13.728231, 100.772522
1759228612.599656, 2.356343, 3.995474, 1.619229, 0.517385, 0.185003, 0.547964, -72.752945, -177.091705, -914.317139, 13.728231, 100.772522
1759228612.619663, 0.954987, 5.075408, 1.908628, 0.657267, 0.014688, 0.776646, -72.340195, -177.752350, -914.602539, 13.728231, 100.772522
1759228612.639662, 0.263512, 5.639841, 2.135628, 0.895829, -0.150551, 0.876086, -72.224350, -179.010880, -914.901123, 13.728231, 100.772522
1759228612.659683, -1.098939, 5.091270, 3.016993, 0.881657, -0.217351, 0.723205, -71.909714, -180.318649, -915.820557, 13.728231, 100.772522
1759228612.678763, -2.232144, 4.636671, 2.806154, 0.763749, -0.256696, 0.466758, -72.064423, -181.217178, -916.326721, 13.728231, 100.772522
1759228612.699241, -1.703175, 5.727529, 3.052906, 0.887334, -0.263330, 0.340209, -72.027023, -182.105621, -916.792664, 13.728231, 100.772522
1759228612.719663, 0.008978, 7.462128, 5.437082, 0.965650, -0.016368, 0.352880, -71.878799, -182.966370, -916.763306, 13.728231, 100.772522
1759228612.739660, 1.226879, 9.221717, 8.996213, 0.548008, 0.107436, 0.456770, -71.412888, -183.772324, -917.089417, 13.728231, 100.772522
1759228612.759661, 0.411503, 9.455002, 7.099107, 0.077337, 0.114427, 0.570499, -71.206543, -184.105789, -917.376953, 13.728231, 100.772522
1759228612.778786, -0.451008, 7.537845, 4.550031, -0.009436, 0.230776, 0.563933, -71.121658, -184.542755, -917.524170, 13.728231, 100.772522
1759228612.798902, -0.513257, 5.948544, 4.116979, -0.065775, 0.215532, 0.487706, -70.782288, -184.706314, -917.281494, 13.728231, 100.772522
1759228612.819637, -0.116119, 5.344906, 4.347272, -0.149992, -0.073641, 0.486971, -70.687347, -184.647186, -917.359985, 13.728231, 100.772522
1759228612.839678, -0.353145, 4.942829, 3.438672, -0.155787, -0.260667, 0.553726, -70.445190, -184.961639, -917.894409, 13.728231, 100.772522
1759228612.859680, -1.861641, 3.781791, 1.873912, -0.032772, -0.221731, 0.534734, -70.185760, -185.254425, -918.475647, 13.728231, 100.772522
1759228612.878801, -2.241272, 2.312649, 1.434127, 0.189972, -0.402660, 0.457986, -70.273102, -185.689270, -918.997009, 13.728231, 100.772522
1759228612.899655, -1.735048, 1.515081, 2.102109, 0.579966, -0.247678, 0.285342, -70.326218, -186.156448, -919.808105, 13.728231, 100.772522
1759228612.919098, -1.509095, 3.473837, 3.816507, 0.993674, 0.057780, 0.152554, -69.847244, -186.859421, -920.039795, 13.728231, 100.772522
1759228612.938763, -1.960103, 5.767781, 4.924424, 1.277236, 0.257114, -0.125352, -69.268250, -188.008163, -920.526245, 13.728231, 100.772522
1759228612.959755, -0.237625, 7.808389, 5.325004, 1.323548, 0.592689, -0.345303, -68.491653, -188.492020, -920.949890, 13.728231, 100.772522
1759228612.978825, 8.137742, 12.527511, 14.344261, 0.126418, 0.259710, -0.275122, -67.471329, -188.313080, -920.906006, 13.728231, 100.772522
1759228612.999698, 9.581146, 29.557317, -9.363423, -0.999745, -0.840742, -0.362426, -67.951797, -187.099091, -921.711853, 13.728231, 100.772522
1759228613.019396, 9.746346, 30.406511, 16.288053, 0.130930, 2.199796, -0.247814, -66.484375, -186.812164, -920.572266, 13.728231, 100.772522
1759228613.038719, -12.551153, 36.632333, 3.801843, -4.287712, -0.883533, -1.241207, -65.874283, -183.220032, -920.550659, 13.728231, 100.772522
1759228613.059397, -7.413645, 4.635324, -18.733281, -2.451609, 0.511176, -1.316950, -66.865799, -178.923737, -919.342529, 13.728231, 100.772522
1759228613.078840, 1.062128, -0.163853, -6.276549, 0.885193, 1.230702, -0.454595, -66.392349, -178.373154, -918.762695, 13.728231, 100.772522
1759228613.099673, 5.105336, 6.613384, -0.859369, 2.000426, 1.494606, 0.494518, -64.455414, -180.575439, -917.892578, 13.728231, 100.772522
1759228613.119413, -0.261866, 17.484705, 2.466028, 1.881831, 1.115715, 0.700532, -62.777161, -183.013123, -917.911743, 13.728231, 100.772522
1759228613.139658, -5.712715, 23.268049, 4.068048, 1.153734, 0.694544, 0.690801, -62.071396, -184.783661, -917.210327, 13.728231, 100.772522
1759228613.159671, -6.327426, 11.780819, 1.732504, 0.599232, -0.207070, 0.047704, -63.038498, -184.987030, -917.693237, 13.728231, 100.772522
1759228613.178898, -0.690578, 5.250933, -0.388459, 1.144453, 0.212088, -0.250881, -63.299088, -185.367889, -917.481201, 13.728231, 100.772522
1759228613.199651, 1.861342, 4.239233, 0.770334, 1.668479, 0.515447, -0.072173, -62.886551, -186.713715, -917.018555, 13.728231, 100.772522
1759228613.219663, 1.121085, 6.516867, 1.751059, 1.738930, 0.790931, 0.247945, -61.830795, -188.315491, -916.750854, 13.728188, 100.772435
1759228613.239655, 0.151433, 9.533262, 2.659509, 1.654639, 0.183646, 0.674800, -61.756104, -190.418655, -916.803589, 13.728188, 100.772435
1759228613.259698, -1.351826, 10.210971, 3.135506, 1.593615, -0.346902, 0.962235, -61.978455, -192.383591, -916.920898, 13.728188, 100.772435
1759228613.278914, -2.724003, 9.404723, 4.242825, 1.075824, -0.658848, 1.041203, -62.424728, -194.143921, -917.641357, 13.728188, 100.772435
1759228613.299526, -2.919729, 8.866477, 2.955043, 0.934580, -0.688479, 0.882017, -63.148865, -195.661072, -918.072876, 13.728188, 100.772435
1759228613.319652, -2.656666, 8.924087, 2.111686, 0.951711, -0.019167, 0.536437, -62.820969, -196.695908, -918.307373, 13.728188, 100.772435
1759228613.339657, -1.845630, 9.536105, 1.565359, 0.918870, 0.798914, 0.166101, -62.267685, -197.492752, -917.750732, 13.728188, 100.772435
1759228613.359665, -0.737564, 10.182689, 1.395071, 0.830936, 0.979035, 0.141092, -61.675568, -198.278687, -916.492310, 13.728188, 100.772435
1759228613.378936, -1.011550, 9.030330, 0.953790, 0.417708, 0.944351, 0.116484, -60.801880, -198.635422, -916.032227, 13.728188, 100.772435
1759228613.399652, -0.839916, 7.945308, -0.389656, -0.047882, 0.562281, 0.252160, -60.549377, -198.786469, -915.694763, 13.728188, 100.772435
1759228613.419661, -2.326117, 10.502166, -0.008529, -0.020078, -0.502771, 0.238401, -60.635803, -198.853577, -916.204224, 13.728188, 100.772435
1759228613.438816, -1.990479, 11.162816, -0.648829, -0.181391, -1.681592, -0.251168, -62.181702, -198.108994, -917.435059, 13.728188, 100.772435
1759228613.459644, -1.050755, 10.067917, -2.310255, 0.109834, -1.613185, -0.225888, -63.353912, -198.098969, -918.712524, 13.728188, 100.772435
1759228613.478954, -0.985513, 8.565855, -2.993650, 0.502618, -0.473577, -0.135233, -63.475479, -198.284683, -919.195190, 13.728188, 100.772435
1759228613.499649, 2.035969, 9.222914, -0.956484, 0.663081, 0.178696, -0.202009, -63.249710, -198.487595, -918.815308, 13.728188, 100.772435
1759228613.519655, 4.192397, 10.108619, 0.272789, 0.550284, 0.328505, 0.160840, -62.985901, -198.875839, -918.545471, 13.728188, 100.772435
1759228613.539655, 2.767398, 9.370905, 1.812560, 0.172858, 0.036938, 0.572169, -62.970520, -199.577988, -918.515747, 13.728188, 100.772435
1759228613.559669, -0.938826, 9.477298, 0.644190, -0.155011, -0.525024, 0.710826, -63.224152, -199.926727, -919.439392, 13.728188, 100.772435
1759228613.579004, -3.782390, 9.561693, -1.540669, 0.096348, -0.653383, 0.465172, -63.577988, -200.537506, -920.105347, 13.728188, 100.772435
1759228613.599642, -3.519925, 9.490765, -1.755099, 0.474946, -0.274698, -0.137588, -64.044998, -200.693939, -919.971436, 13.728188, 100.772435
1759228613.618875, 0.464774, 9.739313, -0.972046, 0.736399, 0.203435, -0.340052, -63.911758, -200.601303, -919.823120, 13.728188, 100.772435
1759228613.639644, 3.776255, 10.735301, 0.531363, 0.849222, 0.131942, -0.048751, -63.668152, -201.128265, -919.446777, 13.728188, 100.772435
1759228613.659693, 3.305495, 10.452336, 1.548001, 0.525623, -0.185873, 0.413638, -64.063278, -201.816772, -919.716858, 13.728188, 100.772435
1759228613.678993, 0.801908, 9.381380, 1.517026, 0.051087, -0.374029, 0.506972, -64.084381, -202.321640, -919.725647, 13.728188, 100.772435
1759228613.699652, -0.662745, 8.940996, -0.020351, -0.222846, -0.558461, 0.457711, -64.574997, -202.290985, -920.263184, 13.728188, 100.772435
1759228613.719657, -1.589301, 8.696189, -1.146074, -0.186748, -0.625452, 0.363653, -65.084167, -202.398178, -920.890259, 13.728188, 100.772435
1759228613.739692, -0.316184, 8.873510, -4.538209, 0.061778, -0.040027, 0.213599, -65.593353, -202.444626, -921.096680, 13.728188, 100.772435
1759228613.759737, -1.886781, 11.269058, 0.123750, 0.560536, -0.790146, 0.313031, -65.515015, -203.061508, -921.594971, 13.728188, 100.772435
1759228613.779013, -1.308282, 9.717167, -0.267851, 0.308147, -0.692062, 0.185500, -66.610931, -203.401459, -922.126343, 13.728188, 100.772435
1759228613.799650, -1.024569, 9.010578, -0.738910, 0.073689, -0.497335, 0.127871, -66.780807, -203.482483, -922.445740, 13.728188, 100.772435
1759228613.819649, -0.657508, 9.808895, -2.083105, 0.215257, -0.655443, 0.101512, -67.322998, -203.369400, -922.860291, 13.728188, 100.772435
1759228613.839654, -0.024840, 10.201244, -2.316390, 0.456246, -0.420782, 0.027641, -67.895676, -203.619766, -923.464539, 13.728188, 100.772435
1759228613.859738, 0.788590, 9.996390, -1.201141, 0.541345, -0.286787, -0.013446, -68.122574, -203.968719, -923.364441, 13.728188, 100.772435
1759228613.879030, 1.287781, 9.215282, -0.593313, 0.437791, -0.191802, -0.000813, -68.352966, -204.202209, -923.630920, 13.728188, 100.772435
1759228613.899651, 1.227777, 8.623765, -0.888847, 0.272458, -0.051360, 0.085503, -68.520142, -204.390610, -923.985840, 13.728188, 100.772435
1759228613.919658, 0.798915, 9.191041, -1.261445, 0.378915, 0.002719, 0.235528, -68.281998, -204.839142, -923.687744, 13.728188, 100.772435
1759228613.939557, 0.043545, 9.494506, -1.090858, 0.415143, -0.000103, 0.340170, -68.175690, -205.388458, -923.531982, 13.728188, 100.772435
1759228613.959656, -0.270994, 9.678710, -0.611569, 0.480391, 0.043012, 0.309917, -68.218216, -205.944244, -923.820557, 13.728188, 100.772435
1759228613.979053, 0.195277, 9.618107, 0.002693, 0.433422, 0.156372, 0.339692, -68.227173, -206.286087, -923.700134, 13.728188, 100.772435
1759228613.999655, -0.122852, 9.072079, 0.211288, 0.271763, 0.150003, 0.407512, -68.148712, -206.602325, -923.359131, 13.728188, 100.772435
1759228614.019519, -0.442179, 8.794801, -0.572364, 0.172199, 0.146675, 0.451245, -67.897751, -206.972595, -923.486450, 13.728188, 100.772435
1759228614.039660, -0.590620, 9.463830, -0.850989, 0.249192, 0.136227, 0.452944, -67.787384, -207.231491, -922.704956, 13.728188, 100.772435
1759228614.058653, -0.516549, 9.725397, -0.751779, 0.254086, 0.107897, 0.436562, -67.625732, -207.666946, -922.770691, 13.728188, 100.772435
1759228614.079070, -0.386364, 9.968708, -0.708085, 0.289847, 0.082926, 0.428745, -67.730881, -207.993546, -923.257935, 13.728188, 100.772435
1759228614.099649, -0.822708, 9.885958, -0.409109, 0.273589, 0.060322, 0.433176, -67.544586, -208.543228, -922.854370, 13.728188, 100.772435
1759228614.119652, -1.347936, 10.409540, -0.241216, 0.220052, -0.054454, 0.485533, -67.384369, -208.618958, -923.399780, 13.728188, 100.772435
1759228614.139654, -1.933467, 11.727099, -0.132280, 0.210890, -0.135384, 0.559400, -67.689667, -208.988068, -923.307373, 13.728188, 100.772435
1759228614.158695, -2.637512, 12.428301, 0.786944, 0.118996, -0.096835, 0.648883, -67.966614, -209.533585, -923.689270, 13.728188, 100.772435
1759228614.179092, -4.157382, 13.072940, 1.454777, -0.214076, -0.526936, 0.796130, -68.222763, -209.506912, -924.372131, 13.728188, 100.772435
1759228614.199649, -6.256947, 14.046332, 0.536152, -0.421206, -1.136945, 0.447112, -69.171875, -208.913544, -925.463562, 13.728188, 100.772435
1759228614.219649, -4.650886, 14.110826, 0.439785, -0.749175, -1.159753, -0.074537, -70.138290, -207.331223, -926.521423, 13.728188, 100.772435
1759228614.239654, -2.672228, 14.058752, 2.243966, -1.290675, -0.853444, -0.595551, -70.844681, -204.964066, -927.749207, 13.728188, 100.772435
1759228614.259654, 0.353444, 13.420099, 3.855114, -2.168675, -0.513806, -1.031566, -71.277740, -201.062759, -928.776733, 13.728188, 100.772435
1759228614.279110, 1.943194, 11.174787, 1.744326, -3.014432, -0.248200, -1.207797, -71.325027, -196.252289, -928.903809, 13.728188, 100.772435
1759228614.299646, 3.037344, 10.383952, -0.683844, -3.131225, 0.303794, -1.493322, -70.989029, -191.099014, -928.770935, 13.728188, 100.772435
1759228614.319651, 3.631405, 11.430817, -0.950348, -2.397303, 0.316963, -1.566993, -70.608337, -186.716492, -928.537598, 13.728188, 100.772435
1759228614.339651, 1.796699, 12.317419, 0.312892, -1.882406, 0.354260, -1.312358, -70.344009, -183.282745, -927.682678, 13.728188, 100.772435
1759228614.359674, -0.373047, 12.866739, 1.710956, -2.232562, 0.503564, -1.391133, -70.298645, -179.242645, -926.402161, 13.728188, 100.772435
1759228614.379134, 0.500089, 11.705551, -1.362750, -2.253629, 0.131409, -1.465274, -70.798904, -175.104340, -925.383240, 13.728188, 100.772435
1759228614.399646, 0.735768, 10.685771, -1.703774, -1.894870, 0.174949, -1.370493, -71.381393, -171.675476, -924.050293, 13.728188, 100.772435
1759228614.419673, -0.815675, 10.254066, 0.637456, -1.730549, -0.122415, -1.353403, -72.169266, -168.632843, -922.885864, 13.728188, 100.772435
1759228614.439013, -3.461118, 9.265710, 0.039804, -1.452551, -0.596371, -1.568541, -73.721649, -165.776932, -922.317993, 13.728255, 100.772433
1759228614.459651, -2.059911, 7.867945, 0.413748, -1.288244, -1.185842, -2.002887, -76.368668, -162.909378, -921.679688, 13.728255, 100.772433
1759228614.479159, 1.720234, 6.527641, -0.042946, -1.100836, -1.678619, -1.803386, -79.170502, -160.510941, -921.216675, 13.728255, 100.772433
1759228614.499649, 2.617311, 5.803694, -0.711078, -0.722615, -1.556524, -1.588921, -81.677795, -158.713181, -921.228638, 13.728255, 100.772433
1759228614.519655, 1.823185, 5.586870, -0.358083, -0.204685, -1.292953, -1.392196, -83.968597, -157.364609, -921.100525, 13.728255, 100.772433
1759228614.539660, 0.392200, 5.423166, 0.123750, 0.096537, -1.601365, -1.138899, -86.227600, -156.777206, -921.700073, 13.728255, 100.772433
1759228614.559652, 0.839317, 5.618742, -1.037587, 0.422953, -1.772471, -0.725806, -88.847809, -156.578262, -922.501587, 13.728255, 100.772433
1759228614.579175, 1.653196, 5.334281, -0.489614, 0.824122, -1.775165, -0.295319, -90.663574, -156.720245, -923.559692, 13.728255, 100.772433
1759228614.599648, 1.265485, 3.970484, 0.525677, 1.269246, -1.766985, 0.153336, -92.081863, -157.779816, -924.559692, 13.728255, 100.772433
1759228614.618684, -0.149039, 3.293823, 2.483236, 1.723280, -1.621908, 0.527890, -93.094299, -159.230408, -926.008057, 13.728255, 100.772433
1759228614.639657, -1.552341, 5.640440, 5.081543, 2.127180, -1.337260, 0.844330, -93.391617, -161.065552, -927.767151, 13.728258, 100.772430
1759228614.659640, -3.014300, 12.332682, 10.620379, 0.915442, -1.583165, 0.660768, -94.635117, -162.403854, -928.755249, 13.728258, 100.772430
1759228614.679197, -5.673809, 20.595671, 10.507104, 0.460552, -1.575235, 0.112860, -96.329849, -162.190430, -928.683655, 13.728258, 100.772430
1759228614.699637, -1.217302, 15.863831, 6.363339, -0.299513, -1.078317, -0.484222, -98.407791, -161.022110, -928.421692, 13.728258, 100.772430
1759228614.719638, 2.308609, 8.729708, 2.502390, -0.120338, -0.281897, -0.352901, -99.634857, -160.308228, -927.816223, 13.728258, 100.772430
1759228614.739626, 3.112163, 4.578761, 4.280234, 0.161860, 0.655512, -0.124459, -99.432449, -159.681366, -927.463928, 13.728258, 100.772430
1759228614.759623, 3.229928, 11.204116, 0.070629, 0.415502, 0.236368, 0.288873, -98.457184, -159.999786, -927.262634, 13.728258, 100.772430
1759228614.779198, -0.405219, 23.116167, 4.385429, 0.004858, -0.501570, 0.464271, -98.274506, -159.886139, -926.914978, 13.728258, 100.772430
1759228614.799121, -5.240459, 9.242367, -5.696105, 0.078149, 0.184905, 0.124729, -98.880051, -159.366791, -926.439148, 13.728258, 100.772430
1759228614.819427, 1.503259, 4.562899, -0.809091, 0.943506, -0.419304, 0.392130, -99.202301, -159.463547, -926.450867, 13.728258, 100.772430
1759228614.839626, 6.231808, 5.360169, -3.032256, 1.046782, -0.316321, 1.421060, -99.356415, -160.371475, -926.676331, 13.728258, 100.772430
1759228614.859628, 5.370943, 8.062025, -3.916764, 1.093998, -0.646383, 1.982571, -98.349045, -161.834412, -927.532227, 13.728258, 100.772430
1759228614.879229, 1.393725, 11.650485, -2.316091, 1.248872, -1.670852, 1.409099, -98.259796, -163.367996, -928.073608, 13.728258, 100.772430
1759228614.899033, -2.419640, 12.782194, -1.683573, 1.279363, -1.903878, 1.044154, -99.068680, -163.833755, -928.474365, 13.728258, 100.772430
1759228614.919637, -3.764134, 10.231022, -1.756895, 0.990564, -0.592213, 0.599980, -100.168243, -165.328308, -929.400391, 13.728258, 100.772430
1759228614.939372, -3.077148, 7.709479, -0.125396, 0.946840, -0.392138, 0.127505, -100.434753, -165.662064, -929.732727, 13.728258, 100.772430
1759228614.959666, 0.007332, 8.413225, 0.376638, 0.893413, -0.108771, 0.019802, -100.660950, -166.365158, -930.033020, 13.728258, 100.772430
1759228614.979262, 2.510320, 9.328707, -0.364368, 0.971805, 0.148799, 0.210161, -101.080933, -166.939331, -930.452942, 13.728258, 100.772430
1759228614.999655, 1.177798, 9.912294, -0.904709, 0.905014, 0.152744, 0.256510, -100.410797, -168.054459, -930.677002, 13.728258, 100.772430
1759228615.019648, -0.199467, 9.954193, 0.411503, 0.629992, 0.034197, 0.270791, -100.260666, -169.043182, -930.898682, 13.728258, 100.772430
1759228615.039650, -0.853084, 9.282619, -0.177769, 0.609140, -0.302956, 0.311034, -100.111954, -169.615967, -931.368042, 13.728258, 100.772430
1759228615.059670, -0.856077, 9.375245, -0.757466, 0.657077, -0.677100, 0.367912, -100.479248, -170.038315, -931.592163, 13.728258, 100.772430
1759228615.079274, -0.319027, 9.852738, -0.882263, 0.746535, -0.649814, 0.387328, -101.200851, -170.679504, -931.516357, 13.728258, 100.772430
1759228615.099738, 0.622642, 10.136451, -0.287454, 0.724572, -0.362330, 0.430332, -101.726196, -171.265106, -932.084229, 13.728258, 100.772430
1759228615.119655, 0.903512, 9.623045, 0.577302, 0.601014, -0.178542, 0.509774, -101.657883, -171.871750, -932.298767, 13.728258, 100.772430
1759228615.139669, 0.432902, 9.452607, 0.032471, 0.619598, -0.054922, 0.577067, -101.851196, -172.576584, -932.503540, 13.728258, 100.772430
1759228615.159677, -0.220715, 9.707590, -0.328604, 0.671231, -0.068189, 0.689302, -101.433289, -172.947617, -932.472107, 13.728258, 100.772430
1759228615.179296, -0.666037, 9.940276, -0.248099, 0.745452, -0.261258, 0.849860, -101.238312, -173.777023, -932.748047, 13.728258, 100.772430
1759228615.198674, -1.699734, 10.543017, -0.342969, 0.919247, -0.382642, 0.924542, -101.298019, -174.581390, -932.838013, 13.728258, 100.772430
1759228615.219654, -2.592471, 10.754305, 0.970250, 0.933628, -0.491233, 0.863234, -101.370407, -175.512070, -933.164734, 13.728258, 100.772430
1759228615.239648, -3.248183, 10.729465, 3.376722, 0.314112, -0.556203, 0.745316, -101.593262, -176.399796, -933.259094, 13.728258, 100.772430
1759228615.259644, -2.879776, 10.941202, 4.485387, -0.373124, -1.066145, 0.640160, -102.135193, -176.108734, -933.101562, 13.728258, 100.772430
1759228615.279312, -1.972373, 11.212346, 2.390161, -0.642049, -1.157632, 0.530866, -103.281494, -175.235535, -932.468384, 13.728258, 100.772430
1759228615.299176, -1.001524, 11.544092, 2.324471, -1.240993, -1.087767, 0.557636, -104.127777, -174.040527, -931.975342, 13.728273, 100.772425
1759228615.319629, -3.443012, 13.441048, 1.672799, -1.908078, -1.474332, 0.171061, -104.703461, -172.002609, -931.279663, 13.728273, 100.772425
1759228615.339655, -6.032490, 14.667777, 2.761113, -2.904863, -1.469087, -0.605772, -106.415924, -169.437805, -929.724976, 13.728273, 100.772425
1759228615.358762, -3.611055, 12.089222, 2.805705, -3.708571, -0.844787, -1.270476, -108.570526, -165.306717, -927.928650, 13.728273, 100.772425
1759228615.379336, 0.585831, 9.318981, -0.832733, -3.679595, 0.452367, -2.033496, -109.655655, -161.512375, -924.632812, 13.728273, 100.772425
1759228615.399652, 1.958008, 10.474183, -1.193510, -2.672534, 0.863913, -2.587023, -110.353149, -158.395752, -922.109863, 13.728273, 100.772425
1759228615.419656, 4.839579, 16.502035, -3.658190, -1.585465, 1.178025, -1.886360, -110.673477, -156.883606, -920.565918, 13.728273, 100.772425
1759228615.439652, 1.268328, 15.813852, 1.683273, -1.804004, -0.902888, -1.537445, -111.414520, -155.916840, -918.900269, 13.728273, 100.772425
1759228615.459670, -4.393360, 11.881824, 1.249624, -1.973122, -0.932633, -1.700832, -113.618912, -154.570847, -916.751465, 13.728273, 100.772425
1759228615.479352, -1.633294, 10.004621, -3.000384, -1.015425, -0.911427, -1.890399, -115.562119, -153.890640, -915.136963, 13.728273, 100.772425
1759228615.499631, -2.499846, 9.757419, -2.561945, -0.821847, -0.952524, -2.139361, -117.493988, -153.913254, -913.731445, 13.728273, 100.772425
1759228615.519653, -2.515857, 10.467150, 1.409736, -1.047298, -2.019794, -2.256532, -119.748657, -153.870728, -912.546387, 13.728273, 100.772425
1759228615.539636, 0.394295, 9.898976, -0.415693, -0.661483, -2.631921, -2.080035, -123.209763, -154.190872, -910.545593, 13.728273, 100.772425
1759228615.559323, 1.705869, 7.277625, -1.305289, -0.264308, -2.443300, -1.945117, -126.079239, -154.909515, -908.969910, 13.728273, 100.772425
1759228615.579385, 1.188272, 5.140351, -0.588824, 0.048735, -2.555586, -1.908074, -128.903549, -155.825562, -907.384888, 13.728273, 100.772425
1759228615.599627, 2.288258, 5.251831, -1.074398, 0.302042, -2.591760, -1.640533, -131.532608, -156.846527, -906.247253, 13.728273, 100.772425
1759228615.619665, 2.224513, 6.123320, -1.437718, 0.598305, -2.384879, -1.264805, -133.847473, -157.779755, -905.031738, 13.728273, 100.772425
1759228615.638711, 2.677017, 6.898144, -1.903241, 1.034822, -1.950662, -0.890846, -135.353897, -158.903763, -904.055664, 13.728273, 100.772425
1759228615.659656, 3.240103, 7.003339, -1.240496, 1.553575, -1.791501, -0.406221, -136.812943, -160.096878, -903.961670, 13.728273, 100.772425
1759228615.679386, 3.250578, 6.042067, 0.497545, 1.952130, -1.420631, 0.218802, -137.713791, -160.929733, -903.962097, 13.728273, 100.772425
1759228615.699647, 2.923919, 5.533150, 2.547730, 2.226594, -1.032837, 0.835136, -138.150528, -161.675919, -904.725586, 13.728273, 100.772425
1759228615.719648, 1.340903, 7.478289, 5.600487, 1.763712, -1.169127, 1.155510, -137.376846, -162.327789, -905.495605, 13.728273, 100.772425
1759228615.739645, -2.652775, 13.534572, 10.401011, 0.606168, -1.512790, 0.719159, -137.482147, -161.964493, -904.791260, 13.728273, 100.772425
1759228615.758896, -4.264522, 18.611925, 9.446772, -0.057251, -1.589490, 0.017770, -138.042206, -161.631363, -903.557800, 13.728273, 100.772425
1759228615.779414, -3.080440, 12.497733, 4.382437, -0.006974, -0.419297, -0.472052, -138.810394, -161.579636, -902.565369, 13.728273, 100.772425
1759228615.799638, -0.739509, 9.135974, 1.000477, 0.084849, 0.541430, -0.539174, -138.855499, -161.733215, -902.570557, 13.728273, 100.772425
1759228615.819621, 2.884564, 10.874763, 5.560833, 0.176916, 1.052987, -0.265885, -138.389786, -161.960983, -903.354126, 13.728273, 100.772425
1759228615.839700, 2.974796, 16.259023, 1.480514, -0.230830, -0.057998, 0.151922, -137.654465, -162.290131, -903.280518, 13.728273, 100.772425
1759228615.859360, -1.604115, 13.054085, 1.671302, -0.014105, -0.039781, 0.180790, -138.204437, -161.715698, -902.777344, 13.728273, 100.772425
1759228615.879472, -0.106692, 4.965275, -6.003760, 0.683532, 0.588065, 0.314679, -137.728790, -161.632965, -903.050537, 13.728273, 100.772425
1759228615.898944, 3.102436, 5.339968, -2.699762, 0.981440, -0.125848, 0.796054, -137.120224, -161.465134, -903.466858, 13.728273, 100.772425
1759228615.919628, 4.353556, 7.566276, -2.569427, 0.879486, -0.519476, 1.581158, -136.194443, -161.111938, -903.678833, 13.728273, 100.772425
1759228615.939687, 1.817349, 10.164284, -1.956961, 0.765956, -1.361539, 1.718611, -135.393768, -160.787750, -903.163818, 13.728273, 100.772425
1759228615.958763, -1.606509, 12.730120, -1.991078, 1.008432, -1.266294, 1.204693, -135.099915, -160.365356, -902.804932, 13.728273, 100.772425
1759228615.979452, -3.588010, 13.339145, -3.154660, 1.405970, -0.525956, 0.511281, -135.022430, -160.621765, -903.277161, 13.728273, 100.772425
1759228615.999150, -2.779967, 8.576479, -0.338929, 1.395317, -0.214721, -0.010201, -135.160461, -161.071396, -903.795227, 13.728273, 100.772425
1759228616.019648, 0.028880, 7.047632, -0.297031, 1.306008, 0.795782, -0.336154, -135.009476, -161.960220, -904.842529, 13.728273, 100.772425
1759228616.038976, 3.829226, 9.088988, 0.663194, 1.151784, 0.916343, 0.025093, -134.667633, -162.604599, -906.264465, 13.728273, 100.772425
1759228616.059292, 2.544737, 10.658088, 0.255132, 0.833649, 0.843735, 0.245595, -133.734268, -163.162140, -907.099609, 13.728273, 100.772425
1759228616.079467, -0.962918, 10.135105, 1.208623, 0.394545, 0.747455, 0.270305, -132.888168, -163.445862, -908.306946, 13.728273, 100.772425
1759228616.099649, -2.168997, 9.320777, 0.267702, 0.308081, 0.304369, 0.300555, -132.524551, -163.419083, -908.640686, 13.728273, 100.772425
1759228616.119650, -2.075922, 8.950124, -0.959177, 0.479420, 0.084206, 0.330691, -132.284073, -163.239319, -908.682068, 13.728273, 100.772425
1759228616.139662, -1.409287, 9.294141, -1.057788, 0.567027, 0.187492, 0.315581, -132.015396, -163.555496, -908.668274, 13.728273, 100.772425
1759228616.158745, -0.011223, 9.492411, -0.097414, 0.519445, 0.021502, 0.415674, -131.554260, -163.532349, -909.233948, 13.728273, 100.772425
1759228616.179490, 0.344316, 9.118616, -0.295385, 0.572672, 0.089750, 0.542579, -131.352692, -163.934418, -909.729797, 13.728273, 100.772425
1759228616.199623, 0.054767, 8.989030, -0.281917, 0.684209, 0.132261, 0.591321, -130.738449, -164.133118, -910.216125, 13.728273, 100.772425
1759228616.219632, -0.289399, 9.444377, -0.246902, 0.784057, 0.013944, 0.657763, -130.076477, -164.210602, -910.173157, 13.728273, 100.772425
1759228616.239667, -0.171634, 10.046220, -0.090381, 0.846119, -0.106188, 0.793566, -129.969284, -164.456161, -911.027954, 13.728273, 100.772425
1759228616.259628, -0.664840, 10.516381, 0.290147, 0.929697, -0.139298, 0.889174, -129.505417, -164.310089, -911.067627, 13.728273, 100.772425
1759228616.279510, -1.529596, 10.942250, 0.965312, 0.925951, -0.226271, 0.894847, -129.231293, -164.744400, -911.733459, 13.728273, 100.772425
1759228616.299448, -2.059013, 11.272350, 1.544410, 0.791152, -0.307987, 0.907433, -129.027878, -164.817337, -911.967957, 13.728273, 100.772425
1759228616.319651, -2.871396, 10.745925, 2.923620, 0.326931, -0.401877, 0.873738, -128.595337, -164.739716, -912.007446, 13.728273, 100.772425
1759228616.338919, -3.597438, 10.128969, 4.313454, -0.391116, -0.691085, 0.651065, -128.492630, -164.248428, -911.769287, 13.728273, 100.772425
1759228616.359698, -2.851494, 9.946262, 2.818275, -0.865775, -0.952269, 0.477072, -128.436951, -163.623947, -911.164307, 13.728273, 100.772425
1759228616.379531, -2.125004, 11.430368, 0.043844, -1.079046, -1.283916, 0.471196, -128.731293, -162.768906, -909.936584, 13.728273, 100.772425
1759228616.398741, -4.488081, 14.395287, -0.344017, -1.321436, -1.782941, 0.096166, -128.878937, -162.091354, -908.436157, 13.728273, 100.772425
1759228616.419651, -6.684162, 14.351593, 3.390938, -2.752561, -1.055516, -0.819925, -130.030396, -160.844131, -906.775635, 13.728273, 100.772425
1759228616.439661, -1.382203, 12.484714, 4.851401, -3.578100, -0.899145, -1.456243, -131.416855, -159.551956, -903.871033, 13.728273, 100.772425
1759228616.459645, 1.268328, 9.714623, 0.328604, -3.578963, -0.086506, -1.932806, -132.741486, -158.826782, -901.009521, 13.728273, 100.772425
1759228616.479547, 4.629638, 11.929858, -3.341707, -2.557119, 1.026569, -1.826176, -133.538971, -158.291382, -899.099915, 13.728273, 100.772425
1759228616.499645, 4.721964, 14.510209, -3.809474, -1.536540, 0.881827, -1.315304, -133.982956, -158.476181, -898.476196, 13.728273, 100.772425
1759228616.519654, -0.352397, 13.687651, 3.284246, -2.061862, -0.511615, -1.254387, -134.175293, -158.783691, -897.454590, 13.728273, 100.772425
1759228616.539354, -3.779397, 12.270583, 1.129315, -1.977474, -0.777651, -1.393406, -135.567154, -158.704376, -895.126953, 13.728273, 100.772425
1759228616.559734, -1.413028, 10.711359, -3.254319, -1.302447, -0.800070, -1.460067, -136.439911, -159.346924, -893.728027, 13.728273, 100.772425
1759228616.579570, -1.822436, 10.753706, -1.295413, -1.300991, -0.806991, -1.598887, -137.684143, -160.033676, -892.776184, 13.728273, 100.772425
1759228616.599644, -0.701800, 11.173290, 0.032172, -1.175102, -1.313545, -1.792493, -138.934219, -160.979675, -890.681641, 13.728273, 100.772425
1759228616.619650, 0.373196, 9.387814, 0.158616, -0.795218, -1.925099, -1.834111, -140.309967, -162.058441, -889.248901, 13.728273, 100.772425
1759228616.639697, 1.198148, 6.336853, -0.385466, -0.403284, -1.641359, -1.757648, -141.659409, -163.206848, -887.179016, 13.728273, 100.772425
1759228616.659654, 0.917129, 4.961085, -0.165798, 0.051806, -1.431143, -1.827853, -143.070282, -164.481628, -886.085876, 13.728273, 100.772425
1759228616.679587, 1.726818, 5.785139, 0.219518, 0.250194, -1.779184, -1.713567, -144.472809, -166.355560, -885.118958, 13.728273, 100.772425
1759228616.699642, 1.741782, 6.980145, -0.745644, 0.417825, -1.767547, -1.418649, -145.309464, -167.418350, -884.076477, 13.728273, 100.772425
1759228616.719643, 2.714576, 8.213907, -1.985242, 0.807723, -1.428708, -0.937226, -146.022018, -168.253494, -882.969727, 13.728273, 100.772425
1759228616.739650, 3.307141, 8.071602, 0.093224, 1.122159, -1.580211, -0.430985, -146.725174, -168.837143, -882.313477, 13.728273, 100.772425
1759228616.759650, 1.829320, 5.952584, 2.149245, 1.221219, -1.668162, -0.050283, -146.954834, -169.086639, -881.470703, 13.728273, 100.772425
1759228616.779608, 0.266953, 4.828057, 2.640505, 1.338801, -1.315875, 0.361169, -146.795746, -169.023682, -880.682739, 13.728273, 100.772425
1759228616.799654, -0.655712, 5.795015, 4.541052, 1.328313, -0.909392, 0.635930, -146.360397, -168.400482, -880.203491, 13.728273, 100.772425
1759228616.819692, -1.635838, 8.659678, 5.301511, 0.909710, -0.688067, 0.541447, -145.849197, -168.033554, -879.904846, 13.728273, 100.772425
1759228616.839683, -2.855085, 13.003657, 8.252364, 0.393342, -1.518016, 0.076431, -145.511612, -167.832794, -879.356201, 13.728273, 100.772425
1759228616.859389, -3.929184, 16.475699, 9.723152, -0.108531, -0.986660, -0.357031, -146.004684, -167.731476, -878.333008, 13.728273, 100.772425
1759228616.879622, -0.915483, 11.866711, 7.003788, -0.409781, -0.215027, -0.339979, -146.578568, -167.773178, -877.499573, 13.728273, 100.772425
1759228616.899642, 0.743549, 8.223335, 4.167108, -0.343452, 0.499137, -0.271067, -146.680618, -167.855698, -877.387634, 13.728273, 100.772425
1759228616.918830, -1.015291, 4.638167, 1.851915, 0.079933, 1.417802, -0.294992, -146.725464, -167.919846, -878.549561, 13.728273, 100.772425
1759228616.939078, 0.422277, 6.414964, -5.345354, 1.724741, -0.079298, 0.227763, -146.578979, -167.606140, -879.569702, 13.728273, 100.772425
1759228616.959638, 1.662923, 18.836382, -2.049287, 1.677089, -0.448186, 0.922095, -145.795853, -167.626373, -879.599548, 13.728273, 100.772425
1759228616.979653, -8.920795, 19.598187, 3.285144, 0.354053, -0.027947, 0.089627, -146.541641, -166.909653, -880.166260, 13.728273, 100.772425
1759228616.999651, 1.165527, 8.500763, 2.815581, 0.562216, -0.881205, 0.103059, -146.756760, -166.989563, -879.430237, 13.728273, 100.772425
1759228617.019651, 6.047005, 4.831798, -2.371906, 0.381171, -0.361876, 0.791548, -146.269821, -166.213226, -879.267700, 13.728273, 100.772425
1759228617.039656, 6.327276, 5.112668, -2.653524, 0.360925, -0.405377, 1.529367, -145.508514, -165.425385, -879.213623, 13.728273, 100.772425
1759228617.059641, 3.709067, 9.001300, -1.677737, 0.741899, -1.207402, 1.530515, -144.365768, -164.143417, -878.616699, 13.728237, 100.772439
1759228617.079621, 0.326659, 12.980613, -2.027739, 0.903901, -1.371917, 1.437696, -143.063156, -163.152145, -878.132080, 13.728237, 100.772439
1759228617.099632, -3.639635, 11.659313, -1.616535, 1.051881, -0.975924, 0.987761, -142.581757, -162.355118, -877.598389, 13.728237, 100.772439
1759228617.119644, -5.824045, 9.542689, -1.751658, 1.354726, -0.096400, 0.302477, -142.826263, -162.051926, -878.249268, 13.728237, 100.772439
1759228617.139686, -3.873818, 8.705617, -0.420482, 1.210160, 0.410977, -0.248189, -143.311417, -161.634689, -879.051025, 13.728237, 100.772439
1759228617.159641, 0.531662, 9.940276, -0.248099, 1.040471, 0.127365, -0.067938, -143.590714, -161.889145, -879.884155, 13.728237, 100.772439
1759228617.179622, 2.002002, 10.567856, 0.098013, 0.921141, -0.683250, 0.105968, -143.277252, -162.008102, -880.310608, 13.728237, 100.772439
1759228617.199656, 0.357484, 9.533412, 0.652270, 0.641851, -0.547472, 0.166926, -143.502396, -161.966873, -880.059082, 13.728237, 100.772439
1759228617.219613, 0.256479, 8.512135, -0.419434, 0.536804, -0.158843, 0.179638, -143.122604, -161.529739, -880.309570, 13.728237, 100.772439
1759228617.239642, 0.791583, 9.094525, 0.408660, 0.543210, -0.440389, 0.192845, -143.336487, -161.468277, -880.133545, 13.728237, 100.772439
1759228617.259625, 0.689231, 9.245509, 0.913986, 0.375067, -0.517750, 0.210101, -142.992630, -161.265366, -880.322876, 13.728237, 100.772439
1759228617.279627, 0.971148, 9.599103, 0.454000, 0.233672, -0.021906, 0.304851, -142.895615, -160.889832, -880.253418, 13.728237, 100.772439
1759228617.299618, 0.706589, 9.323021, 0.223259, 0.196297, 0.171835, 0.345411, -142.864029, -160.475739, -880.436523, 13.728237, 100.772439
1759228617.319621, 0.894384, 9.037064, -0.024241, 0.344091, 0.220265, 0.528782, -142.658890, -160.015823, -880.660522, 13.728237, 100.772439
1759228617.339611, 0.175226, 8.820987, 0.046986, 0.483774, 0.228054, 0.738298, -142.068375, -159.718475, -881.497009, 13.728237, 100.772439
1759228617.359614, -1.426944, 9.228450, 0.096067, 0.698578, 0.264484, 0.816819, -141.792664, -159.044769, -882.129272, 13.728237, 100.772439
1759228617.379607, -1.955763, 10.299856, 0.308702, 0.981273, 0.439441, 0.715108, -141.117447, -158.628036, -882.896973, 13.728237, 100.772439
1759228617.399614, -2.029086, 10.645668, 2.436250, 1.100268, 0.444216, 0.599469, -140.978546, -158.141556, -883.887878, 13.728237, 100.772439
1759228617.419622, -1.704522, 10.697443, 4.384831, 0.687598, -0.342509, 0.609435, -140.645966, -157.690140, -884.547668, 13.728237, 100.772439
1759228617.439615, -2.147749, 10.225037, 4.380342, -0.158592, -0.650362, 0.560877, -140.483505, -157.378113, -883.579224, 13.728237, 100.772439
1759228617.459617, -3.193715, 11.789797, 2.159869, -1.049335, -0.614051, 0.363070, -140.222992, -156.989944, -882.151367, 13.728237, 100.772439
1759228617.479628, -4.549133, 14.167389, 0.293888, -1.416370, -0.845251, 0.039307, -140.464233, -156.629089, -880.743103, 13.728237, 100.772439
1759228617.499630, -4.732140, 14.433744, 1.017685, -1.584886, -0.688532, -0.599687, -141.390625, -157.005325, -879.278137, 13.728237, 100.772439
1759228617.519632, -0.589423, 12.360814, 4.515315, -2.198385, 0.643667, -1.368338, -142.676117, -157.512329, -877.733093, 13.728237, 100.772439
1759228617.539653, 4.801272, 13.041665, 1.803732, -3.290544, 1.162325, -1.530811, -143.537781, -158.348160, -877.185486, 13.728237, 100.772439
1759228617.559613, 6.827964, 14.218415, -4.998644, -2.527276, 1.866737, -1.040547, -144.546616, -159.170593, -876.368713, 13.728237, 100.772439
1759228617.578733, 5.616647, 13.571532, -3.799149, -1.567618, 1.337890, -0.744751, -145.089706, -160.086319, -876.659180, 13.728237, 100.772439
1759228617.599028, -3.561974, 11.860276, 3.198953, -1.792900, -0.164775, -1.355791, -145.649567, -161.574020, -875.925049, 13.728237, 100.772439
1759228617.619618, -0.510863, 12.750471, -0.986710, -1.745845, -0.651072, -0.920750, -146.883240, -162.649628, -874.661987, 13.728237, 100.772439
1759228617.639644, -1.524059, 11.332654, -3.256713, -1.008945, -0.682848, -0.763479, -147.188538, -163.946411, -873.040161, 13.728237, 100.772439
1759228617.659637, 0.660351, 11.350312, 0.794725, -1.227565, -1.107001, -1.084634, -148.013153, -165.384674, -872.414612, 13.728237, 100.772439
1759228617.679618, 1.399112, 10.768820, 1.039084, -1.500198, -1.876301, -1.034887, -148.526245, -166.622528, -869.733398, 13.728237, 100.772439
1759228617.699646, 0.786944, 8.522011, -0.301370, -1.218974, -2.232435, -1.240635, -148.902740, -168.169388, -867.338135, 13.728237, 100.772439
1759228617.719636, 1.135600, 6.660669, 0.070479, -0.695585, -2.083831, -1.352678, -149.323700, -169.967026, -865.103210, 13.728237, 100.772439
1759228617.739610, 2.729988, 5.749825, 0.263661, -0.353465, -2.078671, -1.114708, -149.352524, -171.577820, -862.838135, 13.728237, 100.772439
1759228617.759664, 3.323152, 4.689194, -0.737115, -0.064775, -2.061219, -0.874281, -149.096497, -172.289764, -861.113403, 13.728237, 100.772439
1759228617.779608, 3.568258, 4.822371, -0.505326, 0.304520, -2.001118, -0.677284, -149.062469, -173.566742, -859.360718, 13.728237, 100.772439
1759228617.799620, 3.002927, 5.883451, -0.144400, 0.580173, -1.834144, -0.045471, -148.736618, -173.576248, -857.910095, 13.728237, 100.772439
1759228617.819643, 1.466897, 6.532280, 0.511461, 0.802588, -1.610349, 0.459577, -147.845673, -173.161102, -856.665894, 13.728237, 100.772439
1759228617.839643, -0.284162, 7.181558, 0.910694, 0.798685, -1.669054, 0.568523, -146.997696, -172.443558, -855.657532, 13.728237, 100.772439
1759228617.859642, -1.169568, 8.590695, 0.601842, 0.874570, -1.686086, 0.402385, -146.037491, -171.570526, -854.496399, 13.728237, 100.772439
1759228617.879616, 0.588076, 9.810840, 2.385672, 1.019814, -1.752061, 0.432734, -145.478302, -170.908081, -853.217285, 13.728237, 100.772439
1759228617.899640, 0.773327, 9.173234, 4.764761, 1.043796, -2.046314, 0.649682, -144.409195, -169.969086, -852.196777, 13.728237, 100.772439
1759228617.919643, 0.180762, 9.050681, 4.303428, 1.050090, -1.826065, 0.505299, -143.068726, -168.928574, -850.974854, 13.728237, 100.772439
1759228617.939658, 0.340276, 10.714352, 5.894225, 0.518473, -1.494732, 0.246812, -142.352554, -168.661499, -850.040649, 13.728237, 100.772439
1759228617.959664, 0.626682, 12.400169, 6.314557, -0.201935, -1.394022, 0.009844, -141.618118, -168.619843, -848.848633, 13.728237, 100.772439
1759228617.979018, 1.597681, 10.745327, 3.942502, -0.262917, -1.225276, -0.270132, -141.263733, -168.875305, -847.791626, 13.728237, 100.772439
1759228617.999638, 2.256236, 8.949825, 2.687042, -0.296021, -1.032142, -0.381940, -140.969391, -169.419464, -846.818909, 13.728237, 100.772439
