SamplingTime, AccelerationX, AccelerationY, AccelerationZ, GyroX, GyroY, GyroZ, MagneticFieldX, MagneticFieldY, MagneticFieldZ, Latitude, Longitude
1759315569.158404, -0.114622, 1.486051, -9.313594, 0.103367, -0.314745, 0.068767, 27.059067, -105.927811, 75.170624, 13.727808, 100.772341
1759315569.178474, -0.293589, 1.381155, -9.497499, 0.185220, -0.302464, 0.128596, 27.224045, -105.843201, 75.293594, 13.727806, 100.772334
1759315569.199327, -0.353743, 1.747169, -10.166080, 0.133182, 0.000331, 0.293168, 27.352829, -105.953369, 75.328598, 13.727806, 100.772334
1759315569.219313, -0.164302, 2.144157, -10.015245, -0.033468, 0.274177, 0.542271, 27.777649, -105.769760, 74.750916, 13.727806, 100.772334
1759315569.239349, -0.196923, 1.882291, -9.753379, -0.222861, 0.445549, 0.679468, 27.835007, -105.498962, 74.795380, 13.727806, 100.772334
1759315569.259329, -0.237625, 0.403423, -10.127623, -0.311355, 0.584317, 0.443446, 28.334778, -105.385391, 74.952591, 13.727806, 100.772334
1759315569.279304, -0.004938, 0.992846, -9.886407, -0.253594, 0.733326, 0.322743, 28.535828, -105.320099, 74.626022, 13.727806, 100.772334
1759315569.299332, 0.329801, 2.587833, -9.597157, -0.253262, 0.758323, 0.666243, 29.061356, -105.216553, 74.340195, 13.727806, 100.772334
1759315569.319311, 0.470461, 2.782811, -9.059360, -0.263309, 0.531061, 1.000270, 29.431671, -104.642075, 74.277985, 13.727806, 100.772334
1759315569.339322, 1.033248, 1.187524, -8.633491, -0.255738, 0.133055, 0.945847, 29.989120, -104.403244, 74.403885, 13.727806, 100.772334
1759315569.358553, 1.316063, 0.002693, -8.679430, -0.113639, -0.264109, 0.667770, 30.541031, -104.351471, 74.673538, 13.727806, 100.772334
1759315569.379306, 0.817470, 1.716493, -10.108020, 0.029904, -0.170054, 0.748897, 30.859360, -104.184143, 74.311310, 13.727806, 100.772334
1759315569.399403, 1.280599, 3.734655, -10.392332, -0.245629, 0.251034, 1.323104, 31.720398, -103.999878, 74.628906, 13.727806, 100.772334
1759315569.419309, 1.790264, 3.999813, -8.753501, -0.927910, 0.309957, 2.066007, 33.011627, -103.494553, 75.071320, 13.727806, 100.772334
1759315569.439322, 1.973570, 4.055927, -9.274389, -1.267177, 0.220468, 2.883767, 35.045761, -102.907059, 75.916595, 13.727806, 100.772334
1759315569.459344, 2.010680, 6.203377, -11.948114, -1.019192, 0.697555, 3.858524, 37.304489, -102.409363, 76.686157, 13.727806, 100.772334
1759315569.479299, 0.633715, 5.539734, -11.703606, -0.837417, 1.178978, 4.306159, 40.063400, -102.028473, 76.893417, 13.727806, 100.772334
1759315569.499316, 0.610073, 2.697218, -9.176227, -0.954118, 0.981319, 4.233659, 42.891632, -101.791779, 77.249649, 13.727806, 100.772334
1759315569.518427, -0.072425, 2.074576, -8.149563, -1.227285, 0.651011, 4.094496, 45.537338, -101.992065, 78.590912, 13.727806, 100.772334
1759315569.539312, -0.084845, 2.347215, -8.944438, -1.856177, 0.786095, 3.911474, 47.990051, -102.125488, 80.507187, 13.727806, 100.772334
1759315569.559314, -0.852186, 1.056591, -13.252205, -1.586518, 2.628153, 2.646168, 49.616257, -102.696594, 81.155853, 13.727806, 100.772334
1759315569.579293, 1.638382, 1.163133, -9.429414, -1.908483, 2.511371, 2.282469, 50.711456, -103.344223, 82.752670, 13.727806, 100.772334
1759315569.599312, 1.890821, 2.283919, -10.005967, -1.520722, 2.240003, 2.230711, 52.002823, -103.880676, 83.550049, 13.727806, 100.772334
1759315569.619302, 4.087650, 4.878336, -7.098958, -1.767981, 1.791455, 2.692707, 53.247070, -104.698502, 85.478302, 13.727806, 100.772334
1759315569.639313, 5.035006, 5.012560, -7.664139, -2.424764, 2.238679, 2.846931, 54.424789, -105.838593, 87.321808, 13.727806, 100.772334
1759315569.659313, 4.922179, 3.601328, -4.929212, -2.593341, 1.245919, 2.990356, 55.711731, -106.959518, 88.585938, 13.727806, 100.772334
1759315569.679294, 5.603180, 1.738789, -4.312855, -2.073215, 0.099989, 2.846887, 57.369507, -108.227783, 89.565186, 13.727806, 100.772334
1759315569.699430, 5.755810, 2.059612, -5.344457, -2.066854, -0.386045, 2.597671, 58.882248, -109.768661, 90.582642, 13.727806, 100.772334
1759315569.719318, 5.158756, 1.165228, -7.217321, -2.473192, 0.293976, 2.190968, 59.225861, -110.616989, 91.167130, 13.727806, 100.772334
1759315569.739322, 4.596718, 0.154576, -8.183381, -2.847770, 1.706633, 1.370612, 59.411148, -111.836121, 93.079681, 13.727806, 100.772334
1759315569.759311, 1.763030, -4.147206, -14.307151, -1.690467, 3.574277, 0.033279, 58.215012, -112.596344, 95.410583, 13.727806, 100.772334
1759315569.779290, 3.664775, -4.083012, -10.889727, -1.058238, 3.686476, -0.121220, 56.816727, -112.975937, 96.706863, 13.727806, 100.772334
1759315569.799060, 7.229142, 1.397466, -4.132392, -0.840208, 3.423466, -0.104960, 55.302673, -113.301834, 98.324936, 13.727806, 100.772334
1759315569.819301, 7.506870, 1.070807, -1.747917, -0.933664, 2.632860, -0.326533, 53.895935, -113.655746, 99.366425, 13.727806, 100.772334
1759315569.839325, 7.722198, 1.280898, -1.435025, -0.961101, 1.319276, -0.364202, 53.132217, -113.995956, 99.764557, 13.727806, 100.772334
1759315569.858749, 10.343550, 5.097704, -1.766472, 0.241600, -0.254003, 0.189027, 53.348465, -114.187653, 99.950256, 13.727806, 100.772334
1759315569.878707, 8.720281, 5.034557, -6.564602, 0.902313, 0.980384, -0.073354, 53.083191, -113.796371, 99.107788, 13.727806, 100.772334
1759315569.898968, 7.528118, 6.034735, -3.622726, 1.151843, 0.257262, 0.095755, 53.292603, -113.329376, 98.938705, 13.727806, 100.772334
1759315569.918509, 7.840711, 4.481497, -4.924125, 0.149768, -1.319704, 0.466303, 53.909271, -113.588394, 99.070602, 13.727806, 100.772334
1759315569.939353, 8.016685, 2.621800, -10.742783, -0.555485, 0.145808, -0.178905, 53.756760, -113.412857, 99.079895, 13.727806, 100.772334
1759315569.959312, 7.512855, 3.095403, -3.422811, -0.498438, -0.196118, -0.401284, 53.526291, -113.595016, 98.937042, 13.727806, 100.772334
1759315569.979296, 8.550293, 4.140173, -3.968090, -0.523629, -0.484720, -0.547197, 53.622192, -113.918030, 98.998566, 13.727806, 100.772334
1759315569.999009, 9.028385, 5.448156, -6.918495, -0.850663, 0.281759, -0.475185, 53.113770, -114.121597, 99.275467, 13.727806, 100.772334
1759315570.019314, 9.402778, 4.499004, -10.858602, -1.388465, 3.053231, -0.621998, 51.217056, -114.588272, 101.101196, 13.727806, 100.772334
1759315570.039305, 8.978406, 4.224270, -7.075315, -2.232506, 4.812903, -0.669562, 48.091248, -115.500885, 102.675308, 13.727806, 100.772334
1759315570.059295, 6.416909, 2.226159, 0.421828, -1.847399, 3.950128, -0.872161, 45.811386, -116.349670, 103.284988, 13.727806, 100.772334
1759315570.078818, 5.313631, 4.538658, 2.546533, -0.664296, 2.300424, -0.700766, 44.731567, -116.748260, 103.513748, 13.727806, 100.772334
1759315570.098660, 5.769876, 5.207688, 3.042282, 0.026442, 0.770132, -0.227577, 44.205490, -116.632843, 104.211136, 13.727806, 100.772334
1759315570.119290, 5.835118, 4.545392, 0.598999, 0.486760, 0.027062, -0.143274, 44.193344, -116.245499, 103.911911, 13.727806, 100.772334
1759315570.139310, 6.991518, 3.533542, -1.408090, 0.670647, -0.201918, -0.291590, 44.051346, -115.779922, 103.372223, 13.727806, 100.772334
1759315570.159287, 7.484723, 2.880973, -1.360804, 0.443200, -0.112417, -0.779152, 43.959946, -115.577896, 103.177628, 13.727806, 100.772334
1759315570.179220, 7.453599, 1.948581, -2.517054, 0.323888, 0.203985, -1.039034, 43.676743, -115.624954, 103.377396, 13.727806, 100.772334
1759315570.198491, 7.966856, 1.379060, -3.580080, 0.456170, 0.237117, -1.680825, 42.915451, -115.506668, 103.209778, 13.727806, 100.772334
1759315570.219288, 9.070134, 5.536891, -2.599804, 0.482658, 0.349107, -1.991707, 41.975281, -115.491608, 103.128036, 13.727806, 100.772334
1759315570.239320, 9.051728, 7.039252, -1.823933, 0.431479, 0.480555, -1.352658, 41.187775, -115.113144, 102.673477, 13.727806, 100.772334
1759315570.259290, 7.520786, 5.071218, -0.511761, 0.218540, 0.136537, -0.971599, 40.653198, -114.721268, 102.802200, 13.727806, 100.772334
1759315570.279071, 6.632687, 3.727024, 0.090381, 0.083192, -0.421416, -1.264123, 40.393494, -114.861465, 102.617096, 13.727806, 100.772334
1759315570.298381, 7.529764, 5.656601, -0.425120, -0.090513, -0.757481, -1.876674, 40.113983, -114.973923, 102.851227, 13.727806, 100.772334
1759315570.319300, 8.115595, 7.257723, -2.255488, 0.097388, 0.007120, -1.949718, 39.220947, -115.151703, 102.441238, 13.727806, 100.772334
1759315570.339334, 5.087679, 1.058237, -5.639991, -0.017060, 0.502039, -2.170079, 38.193970, -115.148651, 102.367279, 13.727806, 100.772334
1759315570.359283, 4.773290, 4.173842, -1.658882, -0.287255, -0.251619, -2.618386, 37.433029, -115.726669, 102.321030, 13.727806, 100.772334
1759315570.378911, 4.175338, 5.723040, -1.778443, -0.353533, -0.061060, -2.539270, 36.323074, -116.506424, 102.769882, 13.727806, 100.772334
1759315570.399285, 6.002114, 6.818686, -0.671873, -1.546342, 0.481245, -3.542139, 34.958755, -117.480057, 102.952667, 13.727806, 100.772334
1759315570.419287, 4.873098, 5.433790, -0.133776, -2.834975, 0.501330, -3.723733, 33.119232, -119.269638, 103.523926, 13.727806, 100.772334
1759315570.439294, 3.638139, 3.224541, 0.955885, -3.412303, 0.589057, -4.424782, 31.709961, -121.690063, 104.782379, 13.727806, 100.772334
1759315570.459284, 0.446369, 1.734749, -0.336685, -3.329927, 1.610485, -4.788416, 29.784592, -124.945862, 105.159119, 13.727806, 100.772334
1759315570.478775, -3.818003, 6.774094, 3.518130, -3.088174, 1.455228, -4.188407, 28.361328, -127.261597, 104.860489, 13.727806, 100.772334
1759315570.498801, 0.709282, 2.569278, 1.976413, -0.525542, -1.933201, -3.042075, 28.931412, -129.251846, 105.497437, 13.727806, 100.772334
1759315570.519346, -0.527622, 5.592107, 1.330578, 0.430693, -3.236578, -3.162416, 30.549210, -130.022400, 106.224930, 13.727806, 100.772334
1759315570.539329, -1.954417, 2.725350, 1.509843, 0.396572, -4.170228, -3.418719, 33.816010, -131.473724, 106.244980, 13.727806, 100.772334
1759315570.559295, -1.127968, 25.979033, 2.061857, -1.141346, -4.868924, -4.206588, 38.210938, -134.578720, 106.450882, 13.727806, 100.772334
1759315570.578623, -11.420342, 59.587190, 9.187450, -2.049633, -5.654805, -3.632854, 41.024704, -134.456848, 107.817841, 13.727806, 100.772334
1759315570.599301, -2.216582, 13.937695, 1.931073, -1.546351, -7.550269, 0.516111, 45.296295, -134.568634, 108.090454, 13.727806, 100.772334
1759315570.619280, -1.226579, 3.471592, -4.427627, 1.153239, -3.954471, 0.718006, 48.112488, -133.870255, 107.987076, 13.727806, 100.772334
1759315570.639296, 0.398784, 1.783830, -1.807024, 2.103464, -0.137509, 0.344996, 48.509201, -132.911850, 107.563477, 13.727806, 100.772334
1759315570.659281, 0.293589, 3.494337, -1.175254, 1.199121, 1.716379, -0.065335, 47.606750, -132.306747, 107.378998, 13.727806, 100.772334
1759315570.678468, 0.119261, 5.828834, -0.885555, 0.181345, 3.113927, -0.218539, 46.960876, -132.359741, 107.511002, 13.727806, 100.772334
1759315570.699293, -0.395941, 11.803115, 1.229572, -0.414765, 3.721736, -0.198476, 44.671631, -132.345261, 107.681976, 13.727806, 100.772334
1759315570.719299, -0.171634, 12.088324, 2.725948, -0.533227, 3.372627, -0.151737, 42.228073, -132.577744, 108.255493, 13.727806, 100.772334
1759315570.739296, 0.183605, 10.104130, 3.286191, -0.276930, 2.389622, -0.083541, 40.248505, -132.758331, 108.028397, 13.727806, 100.772334
1759315570.759317, 0.308253, 9.097517, 3.312079, 0.150319, 1.120949, 0.021412, 39.224304, -132.664871, 108.476685, 13.727806, 100.772334
1759315570.778308, 0.134075, 8.788815, 2.242768, 0.349699, 0.080064, 0.139773, 39.093735, -132.616379, 107.700775, 13.727806, 100.772334
1759315570.799302, -0.186598, 8.920047, 1.072752, 0.321991, -0.494074, 0.094246, 39.099915, -132.409439, 107.692993, 13.727806, 100.772334
1759315570.819294, -0.441581, 9.438990, 0.312892, 0.509038, -0.672390, -0.137026, 39.612137, -132.102570, 107.946060, 13.727806, 100.772334
1759315570.839299, -0.642394, 10.253767, -0.357185, 0.737280, -0.510616, -0.231644, 40.055573, -131.890762, 108.037628, 13.727806, 100.772334
1759315570.859295, -0.859518, 10.439168, -1.017087, 0.866354, -0.033441, -0.157823, 40.023300, -131.330383, 108.005035, 13.727806, 100.772334
1759315570.878470, -0.897227, 10.389937, -1.586308, 0.874832, 0.604945, -0.016622, 39.807587, -130.880814, 107.978165, 13.727806, 100.772334
1759315570.898642, -0.998232, 10.286388, -1.992125, 0.928763, 1.260995, 0.054405, 39.041794, -130.277084, 107.739487, 13.727806, 100.772334
1759315570.919295, -1.017087, 9.802011, -2.140267, 1.296843, 1.769829, 0.110180, 38.170898, -129.537979, 107.867752, 13.727806, 100.772334
1759315570.939297, -0.872238, 9.726444, -1.790564, 1.803272, 1.928482, 0.070154, 36.894547, -128.436844, 107.058395, 13.727806, 100.772334
1759315570.959300, -1.047314, 9.586533, -1.469142, 2.165914, 1.841875, -0.019780, 35.780731, -127.132645, 107.133102, 13.727806, 100.772334
1759315570.978795, -0.811335, 10.592397, -1.374421, 1.927961, 1.885010, 0.011190, 34.893265, -126.041931, 107.031281, 13.727806, 100.772334
1759315570.999296, -0.875530, 10.876858, -0.746392, 1.371575, 1.437101, -0.095573, 33.839127, -125.172546, 105.378281, 13.727806, 100.772334
1759315571.019295, -0.847996, 10.301053, -0.239271, 1.180724, 0.412395, -0.396488, 33.583252, -124.667877, 106.005386, 13.727806, 100.772334
1759315571.039301, -1.136647, 9.267356, -0.365116, 0.537612, -0.449750, -0.557708, 33.532471, -124.213608, 104.802414, 13.727806, 100.772334
1759315571.059352, -0.710330, 8.832360, -1.202338, -0.238686, -0.632394, -0.524517, 33.682709, -124.440979, 105.820084, 13.727806, 100.772334
1759315571.078646, 0.118962, 9.108591, -1.487248, -0.394926, -0.550070, -0.265483, 33.853180, -124.680801, 106.041458, 13.727806, 100.772334
1759315571.099295, 0.594510, 8.467693, -1.540669, -0.399762, -0.407201, -0.097773, 34.225281, -125.060120, 105.940460, 13.727806, 100.772334
1759315571.119298, 0.371849, 8.353669, -1.160440, -0.522022, -0.235733, -0.027310, 34.290451, -125.158691, 106.905640, 13.727806, 100.772334
1759315571.139303, 0.159364, 8.159290, -0.714071, -0.659482, -0.208908, 0.138420, 34.664520, -125.432571, 106.833557, 13.727806, 100.772334
1759315571.159341, 0.098910, 8.414122, -1.017835, -0.764901, -0.145614, 0.235540, 34.412933, -125.949051, 106.677780, 13.727806, 100.772334
1759315571.178283, -0.004639, 8.427739, -1.880795, -0.777685, 0.148550, 0.290232, 34.754929, -126.210281, 106.569427, 13.727806, 100.772334
1759315571.199282, -0.405219, 9.057564, -2.184260, -0.806946, 0.554762, 0.364169, 34.235748, -126.791779, 106.636810, 13.727806, 100.772334
1759315571.219295, -1.025915, 9.529372, -1.956811, -0.869680, 0.431057, 0.397963, 34.393326, -127.020508, 107.022858, 13.727806, 100.772334
1759315571.239336, -1.845929, 10.266337, -2.310854, -0.467140, -0.320829, 0.253802, 34.264862, -127.420853, 106.501144, 13.727806, 100.772334
1759315571.259000, -2.197578, 10.717494, -3.833865, 0.129447, -0.889532, -0.033886, 34.798538, -127.434509, 107.550629, 13.727806, 100.772334
1759315571.279269, -1.711106, 10.958411, -4.482694, 0.263148, -0.694042, -0.285147, 35.389359, -127.416183, 106.777695, 13.727806, 100.772334
1759315571.298643, -0.585083, 11.676222, -2.503138, -0.347537, 0.196210, -0.329957, 35.247864, -127.553650, 106.509232, 13.727806, 100.772334
1759315571.319293, 0.698658, 10.512640, 3.612252, -0.902780, -0.159434, -0.076436, 34.990707, -127.754852, 107.356583, 13.727806, 100.772334
1759315571.339290, 1.035941, 9.099163, 3.674351, -0.785731, -1.384907, 0.176810, 35.653000, -128.180496, 107.185501, 13.727806, 100.772334
1759315571.359290, 0.833332, 8.872014, 0.182558, -0.631980, -1.433383, 0.399902, 36.670593, -128.386337, 108.161148, 13.727806, 100.772334
1759315571.378833, 0.821062, 9.609877, -2.290952, -0.169376, -0.441222, 0.587065, 37.187653, -128.883713, 107.833649, 13.727806, 100.772334
1759315571.399291, 0.648080, 10.524462, -1.186477, 0.119258, 0.534566, 0.615100, 37.135071, -128.641632, 107.501404, 13.727806, 100.772334
1759315571.419293, 0.523582, 9.937433, 0.072425, -0.256808, 0.700359, 0.661148, 36.617126, -128.707672, 107.983505, 13.727806, 100.772334
1759315571.439280, 0.066140, 9.103204, 0.373196, -0.593586, 0.419831, 0.671294, 36.378326, -128.727676, 107.461349, 13.727806, 100.772334
1759315571.459291, -0.488268, 8.531438, 0.025289, -0.277342, 0.111539, 0.366050, 36.286865, -129.090744, 107.941345, 13.727806, 100.772334
1759315571.478336, 0.023194, 9.400534, -0.061651, -0.012872, -0.161494, 0.238887, 36.408798, -129.013443, 108.014420, 13.727806, 100.772334
1759315571.498447, 0.906056, 8.938752, 0.669179, -0.459272, 0.447566, 0.331897, 36.341003, -129.226974, 107.571350, 13.727806, 100.772334
1759315571.519344, 1.709011, 9.306711, 0.989254, -0.638872, 1.615689, 0.368828, 35.178864, -129.506058, 107.803558, 13.727806, 100.772334
1759315571.539295, 1.943942, 9.858425, 3.122787, -0.206956, 2.624844, 0.386944, 33.654175, -129.675949, 107.190216, 13.727806, 100.772334
1759315571.558507, 3.161843, 9.130438, 5.124040, 0.476335, 1.581443, 0.380415, 32.826279, -129.360397, 106.637497, 13.727806, 100.772334
1759315571.579261, 1.484704, 9.271696, 4.430769, 0.383642, -0.322968, 0.374130, 32.927414, -129.066299, 106.976929, 13.727806, 100.772334
1759315571.599284, 0.133776, 9.799617, 2.091784, -0.186777, -1.331097, 0.199531, 33.709885, -129.197922, 106.863480, 13.727806, 100.772334
1759315571.619292, -0.666636, 9.645041, 0.501735, -0.541810, -1.493094, 0.167837, 34.754913, -129.499512, 107.315918, 13.727806, 100.772334
1759315571.639282, -0.210091, 9.197775, -0.184653, -0.737884, -1.143333, -0.006918, 35.437042, -129.989395, 107.395660, 13.727806, 100.772334
1759315571.659287, -0.269946, 9.506627, -0.160262, -0.865403, -0.706681, 0.029351, 35.685440, -130.517227, 107.429840, 13.727806, 100.772334
1759315571.678795, 0.252738, 9.297433, -0.310199, -0.781851, 0.165124, 0.165521, 35.509964, -131.011353, 108.019379, 13.727806, 100.772334
1759315571.699284, 0.064793, 10.080636, 0.542287, -0.409751, 0.674815, 0.078825, 35.606766, -131.277481, 107.401077, 13.727806, 100.772334
1759315571.719287, -0.043245, 10.607211, 1.247379, 0.143257, 0.358150, -0.102700, 35.308090, -131.361221, 108.266785, 13.727806, 100.772334
1759315571.739284, -0.184204, 10.219351, 1.293019, 0.112839, -0.627288, -0.182869, 35.481934, -131.287338, 107.645111, 13.727806, 100.772334
1759315571.759284, -0.209493, 9.470414, 0.602291, -0.238021, -1.361447, -0.171753, 36.037201, -131.291153, 108.750198, 13.727806, 100.772334
1759315571.779268, -0.187047, 8.653842, 0.306009, -0.473315, -2.000921, -0.133007, 37.152008, -131.566528, 107.888428, 13.727806, 100.772334
1759315571.799286, -0.224756, 9.538499, -0.052074, -0.481065, -2.346447, -0.125230, 38.681335, -131.754303, 108.364166, 13.727806, 100.772334
1759315571.818847, -0.189142, 11.072285, -0.274286, -0.333423, -1.961223, -0.239629, 39.898376, -132.197540, 108.996231, 13.727806, 100.772334
1759315571.839286, 0.219967, 11.035324, -0.245406, 0.011145, -1.189130, -0.348197, 40.669052, -132.159790, 108.540771, 13.727806, 100.772334
1759315571.858469, 0.565630, 10.292224, 0.189142, 0.368352, -0.409661, -0.368257, 41.069366, -131.882721, 109.051529, 13.727806, 100.772334
1759315571.879143, 0.928052, 9.460239, 0.952443, 0.547726, -0.079417, -0.279228, 41.226913, -131.337326, 108.512054, 13.727806, 100.772334
1759315571.899295, 1.328632, 8.982147, 1.584363, 0.629317, -0.114609, -0.087155, 41.293839, -131.108078, 108.531113, 13.727806, 100.772334
1759315571.918896, 1.705270, 9.068188, 1.635539, 0.509463, -0.127842, -0.000785, 41.360107, -130.848328, 108.895432, 13.727806, 100.772334
1759315571.939290, 1.966687, 9.110536, 1.821389, 0.273980, -0.000796, -0.091468, 41.250931, -130.552902, 108.510864, 13.727806, 100.772334
1759315571.959283, 2.075025, 9.450213, 2.242469, 0.057062, 0.009633, -0.077356, 41.266357, -130.407776, 108.569885, 13.727806, 100.772334
1759315571.978989, 1.678485, 9.603891, 1.937358, -0.174360, -0.194251, 0.136691, 41.267227, -130.469177, 109.170868, 13.727806, 100.772334
1759315571.999282, 1.278653, 9.692327, 1.234510, -0.277190, -0.100038, 0.251317, 41.421173, -130.867279, 108.355347, 13.727806, 100.772334
1759315572.019279, 0.913238, 9.882516, 1.054945, -0.298950, 0.045689, 0.306016, 41.394669, -131.109192, 109.216644, 13.727806, 100.772334
1759315572.039285, 0.629825, 9.950601, 1.037438, -0.407281, -0.039784, 0.280816, 41.692795, -131.332809, 108.602798, 13.727806, 100.772334
1759315572.058707, 0.318878, 9.641300, -0.014814, -0.207100, -0.267396, 0.204712, 41.722015, -131.304169, 108.369461, 13.727806, 100.772334
1759315572.078828, -0.583587, 9.812187, -1.191265, 0.536699, -0.264439, 0.015234, 41.998688, -131.186630, 109.284744, 13.727806, 100.772334
1759315572.099279, 0.288501, 9.609428, -1.369334, 0.100564, 0.619156, 0.083357, 41.598251, -131.059509, 108.515411, 13.727806, 100.772334
1759315572.119281, 0.516848, 9.327211, 0.228497, -0.245665, 0.862005, 0.053259, 40.775848, -131.230408, 109.196075, 13.727806, 100.772334
1759315572.139265, 0.865803, 10.008361, 1.715894, 0.025511, 0.545549, -0.026476, 40.633957, -131.186249, 108.360886, 13.727806, 100.772334
1759315572.159325, 0.633865, 9.895235, 1.991826, 0.194651, 0.165511, 0.000126, 40.587570, -131.198502, 108.628769, 13.727806, 100.772334
1759315572.178789, 0.813879, 9.371803, 1.672499, 0.052821, 0.061952, 0.083776, 40.509903, -131.008759, 108.387558, 13.727806, 100.772334
1759315572.199266, 0.490063, 9.037962, 1.311723, -0.149982, 0.248986, 0.121989, 40.358505, -131.222626, 108.688309, 13.727806, 100.772334
1759315572.218387, 0.303615, 9.560496, 1.113753, -0.151439, 0.397787, 0.094656, 40.266327, -131.163818, 109.129822, 13.727806, 100.772334
1759315572.239280, -0.085443, 9.731233, 0.776470, 0.039925, 0.505647, 0.035299, 39.967072, -131.201263, 108.308243, 13.727806, 100.772334
1759315572.259279, -0.064643, 9.772233, 0.669179, 0.125197, 0.484816, -0.036433, 39.502243, -131.164810, 109.254089, 13.727806, 100.772334
1759315572.278955, 0.512808, 9.675567, 0.500687, 0.083862, 0.449781, -0.079883, 39.204666, -131.210541, 108.365982, 13.727806, 100.772334
1759315572.299285, 0.889446, 9.463830, 0.800412, 0.086166, 0.385730, -0.075998, 38.998199, -131.216415, 108.351639, 13.727806, 100.772334
1759315572.318952, 1.042824, 9.612720, 1.169418, 0.082262, 0.076120, -0.066085, 38.941650, -131.104660, 108.676498, 13.727806, 100.772334
1759315572.339010, 1.005714, 9.846154, 0.936881, 0.048834, -0.088750, -0.054308, 39.220963, -131.062393, 108.398392, 13.727806, 100.772334
1759315572.359137, 0.949900, 9.761759, 0.915333, 0.045717, -0.187493, -0.053443, 39.030655, -130.962616, 108.342346, 13.727806, 100.772334
1759315572.378282, 0.783054, 9.543587, 0.835127, 0.006044, -0.367645, -0.041225, 39.301147, -131.071945, 108.277466, 13.727806, 100.772334
1759315572.399286, 0.436792, 9.384223, 0.975039, -0.059502, -0.731862, -0.040390, 39.680893, -131.032990, 108.529938, 13.727806, 100.772334
1759315572.419285, 0.061052, 9.501689, 0.674117, 0.003009, -0.761491, -0.118873, 40.153687, -131.004089, 109.413361, 13.727806, 100.772334
1759315572.439278, 0.080655, 9.582643, 0.417040, 0.122533, -0.298331, -0.145494, 40.301865, -130.998123, 108.019714, 13.727806, 100.772334
1759315572.458989, 0.548871, 9.589077, 0.567426, 0.159063, 0.190426, -0.106531, 40.279190, -130.772766, 108.147781, 13.727806, 100.772334
1759315572.479113, 0.947954, 9.770288, 0.572364, 0.118743, 0.269453, -0.084490, 40.018707, -130.771057, 109.014542, 13.727806, 100.772334
1759315572.499281, 1.029507, 9.810391, 0.385018, 0.106496, 0.159131, -0.004092, 40.002655, -130.647949, 108.313400, 13.727806, 100.772334
1759315572.519277, 0.653467, 9.698312, 0.347459, 0.047339, 0.061215, 0.054492, 40.013123, -130.732132, 108.910400, 13.727806, 100.772334
1759315572.538681, 0.309002, 9.521890, 0.602142, 0.011705, 0.116141, 0.031348, 39.709702, -130.603470, 108.073090, 13.727806, 100.772334
1759315572.558834, 0.251690, 9.632173, 0.965163, 0.021063, 0.111011, -0.005017, 39.661011, -130.547699, 108.370255, 13.727806, 100.772334
1759315572.578780, 0.373196, 9.612869, 0.852186, 0.024066, 0.090484, -0.011660, 39.691193, -130.579147, 109.089554, 13.727806, 100.772334
1759315572.599279, 0.546327, 9.701455, 0.546028, 0.020013, 0.062413, 0.005267, 39.547531, -130.595810, 108.766266, 13.727806, 100.772334
1759315572.619276, 0.701202, 9.790340, 0.276381, -0.021863, 0.027729, 0.025344, 39.709076, -130.701004, 108.963760, 13.727806, 100.772334
1759315572.639272, 0.651672, 9.850344, 0.439336, -0.047582, -0.000673, 0.021433, 39.638428, -130.701599, 108.430740, 13.727806, 100.772334
1759315572.659140, 0.447267, 9.461586, 0.591368, -0.013411, -0.009883, -0.008359, 39.602768, -130.591812, 108.284225, 13.727806, 100.772334
1759315572.679058, 0.369904, 9.297733, 0.785747, 0.031623, 0.003260, -0.005821, 39.615997, -130.733719, 109.276718, 13.727806, 100.772334
1759315572.699286, 0.336385, 9.608231, 0.825850, 0.030075, -0.017527, -0.008938, 39.615417, -130.696320, 108.834503, 13.727806, 100.772334
1759315572.719271, 0.459088, 9.831939, 0.561590, -0.033231, -0.032469, 0.008505, 39.757431, -130.614731, 108.881424, 13.727806, 100.772334
1759315572.738384, 0.556053, 9.637111, 0.342520, -0.046406, 0.004155, 0.005971, 39.653946, -130.881470, 108.745438, 13.727806, 100.772334
1759315572.758985, 0.587328, 9.367164, 0.305710, -0.042472, 0.000980, 0.013798, 39.819366, -130.533875, 108.889252, 13.727806, 100.772334
1759315572.779249, 0.594809, 9.470863, 0.534206, -0.076778, -0.042653, 0.005833, 39.800049, -130.776978, 108.688110, 13.727806, 100.772334
1759315572.799274, 0.571167, 9.674819, 0.690578, -0.116748, -0.090855, -0.002394, 39.574615, -130.871658, 108.423325, 13.727806, 100.772334
1759315572.818296, 0.688034, 9.710283, 0.688932, -0.088702, -0.028649, -0.004739, 39.722473, -130.837997, 109.337982, 13.727806, 100.772334
1759315572.839277, 0.878073, 9.601796, 0.682497, -0.104080, 0.040635, -0.005163, 39.728088, -130.909912, 108.900925, 13.727806, 100.772334
1759315572.858842, 0.915034, 9.752780, 0.512958, -0.137112, 0.006474, 0.036128, 39.779861, -131.032974, 109.352158, 13.727806, 100.772334
1759315572.879245, 0.725144, 9.940127, 0.373944, -0.076330, -0.023173, 0.071396, 39.741196, -130.989578, 108.410721, 13.727806, 100.772334
1759315572.899278, 0.458789, 10.057443, 0.379331, -0.071106, -0.006386, 0.058090, 39.632980, -131.092575, 108.689926, 13.727806, 100.772334
1759315572.919272, 0.326509, 9.428067, 0.645836, -0.068060, 0.052677, 0.043196, 39.877960, -131.089218, 109.180984, 13.727806, 100.772334
1759315572.939280, 0.329951, 9.407118, 0.974739, -0.024185, -0.104912, -0.007309, 39.647339, -131.304993, 108.794128, 13.727806, 100.772334
1759315572.959276, 0.281468, 9.425373, 1.068861, -0.029046, -0.060799, -0.006857, 39.742722, -131.241211, 108.059677, 13.727806, 100.772334
1759315572.978452, 0.471209, 9.673772, 1.123479, -0.046965, 0.049942, -0.005604, 39.966278, -131.320724, 108.991547, 13.727806, 100.772334
1759315572.999279, 0.659902, 9.772084, 0.979977, -0.047566, 0.065074, 0.011070, 39.689026, -131.435287, 108.572006, 13.727806, 100.772334
1759315573.019276, 0.663343, 9.721955, 0.563236, -0.009592, 0.064493, 0.022745, 39.627228, -131.357056, 108.644745, 13.727806, 100.772334
1759315573.039269, 0.749535, 9.694871, 0.621744, -0.004439, 0.057987, 0.027236, 39.414246, -131.351349, 108.340668, 13.727806, 100.772334
1759315573.059272, 0.714370, 9.271396, 0.538097, -0.059084, 0.164101, 0.030024, 39.230743, -131.529846, 108.253815, 13.727806, 100.772334
1759315573.079249, 0.618901, 9.494506, 0.995539, 0.003116, 0.185292, 0.010579, 39.200775, -131.330917, 108.935608, 13.727806, 100.772334
1759315573.099256, 0.628478, 9.529521, 1.120187, 0.010468, 0.019955, 0.019141, 39.085190, -131.303955, 108.606216, 13.727806, 100.772334
1759315573.119268, 0.796072, 9.716867, 0.981473, -0.049977, -0.080707, 0.013802, 39.279556, -131.358841, 109.385635, 13.727806, 100.772334
1759315573.139311, 0.506972, 9.865458, 0.737414, -0.035599, 0.029989, 0.041296, 39.290710, -131.338989, 108.473938, 13.727806, 100.772334
1759315573.159271, 0.421529, 9.577106, 0.773626, 0.006914, 0.192057, 0.035308, 39.178665, -131.453796, 108.663788, 13.727806, 100.772334
1759315573.179255, 0.528370, 9.575310, 0.687585, 0.014282, 0.107849, 0.002402, 39.178802, -131.245956, 109.519302, 13.727806, 100.772334
1759315573.199269, 0.629974, 9.391256, 0.478391, 0.035711, 0.048373, -0.018362, 39.158096, -131.468277, 108.393402, 13.727806, 100.772334
1759315573.219270, 0.726939, 9.636512, 0.647632, -0.002338, 0.049339, -0.018505, 39.249252, -131.398956, 109.001389, 13.727806, 100.772334
1759315573.239270, 0.847697, 9.749638, 1.063175, -0.031011, 0.015216, -0.013481, 39.059891, -131.386414, 108.579636, 13.727806, 100.772334
1759315573.259264, 0.891391, 9.521141, 1.192163, -0.025981, -0.103083, 0.010427, 39.228363, -131.293716, 109.051559, 13.727806, 100.772334
1759315573.279240, 0.809091, 9.451410, 0.913837, -0.050880, -0.121345, 0.041339, 39.194672, -131.457993, 108.683624, 13.727806, 100.772334
1759315573.299272, 0.629525, 9.550470, 0.750283, -0.053502, -0.012376, 0.060745, 39.303772, -131.462112, 108.646896, 13.727806, 100.772334
1759315573.318311, 0.498742, 9.570223, 0.798466, -0.021675, 0.014044, 0.073229, 39.293777, -131.542511, 108.917038, 13.727806, 100.772334
1759315573.339246, 0.337882, 9.692626, 0.687136, -0.009303, 0.015690, 0.073477, 39.221741, -131.513336, 108.610184, 13.727806, 100.772334
1759315573.359268, 0.333841, 9.740809, 0.728885, 0.000653, 0.007459, 0.042334, 39.401398, -131.561249, 108.966339, 13.727806, 100.772334
1759315573.379247, 0.436643, 9.547029, 0.867449, 0.026065, -0.043305, 0.039081, 39.430817, -131.654953, 108.464828, 13.727806, 100.772334
1759315573.399262, 0.541987, 9.438242, 1.012747, 0.004792, -0.000043, 0.023791, 39.400558, -131.560547, 108.631180, 13.727806, 100.772334
1759315573.419244, 0.614412, 9.355193, 1.343446, -0.047481, 0.073038, 0.018026, 39.269974, -131.478989, 108.906723, 13.727806, 100.772334
1759315573.439246, 0.569371, 9.408614, 1.386243, -0.045774, -0.042371, 0.004473, 39.354141, -131.531616, 108.166641, 13.727806, 100.772334
1759315573.459259, 0.590171, 9.533861, 1.252467, -0.047618, -0.164412, -0.026976, 39.492004, -131.690079, 108.480164, 13.727806, 100.772334
1759315573.479232, 0.952743, 9.767744, 0.856526, -0.060865, -0.185599, -0.076374, 39.531616, -131.614182, 108.723755, 13.727806, 100.772334
1759315573.499262, 1.219098, 9.620501, 1.126921, -0.041803, -0.221581, -0.116421, 39.522369, -131.573151, 108.943222, 13.727806, 100.772334
1759315573.519238, 1.482160, 9.496751, 1.192911, 0.002375, -0.292627, -0.097534, 39.749542, -131.620041, 108.897766, 13.727806, 100.772334
1759315573.539243, 1.520917, 9.226804, 0.835427, 0.026044, -0.302613, -0.062183, 39.881226, -131.503983, 108.656982, 13.727806, 100.772334
1759315573.559249, 1.350928, 9.110835, 0.533757, -0.014577, -0.213988, -0.024436, 40.039795, -131.587219, 109.165466, 13.727806, 100.772334
1759315573.579237, 1.062427, 9.774628, 0.827496, -0.206928, -0.321681, 0.058310, 40.464340, -131.653122, 109.298584, 13.727806, 100.772334
1759315573.599259, 1.051354, 10.120590, 0.366313, -0.365103, -0.612499, 0.069637, 40.517960, -131.949799, 108.572952, 13.727806, 100.772334
1759315573.619268, 0.849942, 10.115203, -1.215806, 0.003473, -0.678528, 0.036823, 41.147827, -132.229004, 109.380890, 13.727806, 100.772334
1759315573.639304, 0.749834, 10.044723, -1.587505, -0.061728, -0.170524, 0.016401, 41.253937, -132.239029, 108.597702, 13.727806, 100.772334
1759315573.659256, 1.117793, 10.232818, -0.574159, -0.183543, 0.194882, 0.067983, 41.244308, -132.208054, 108.300232, 13.727806, 100.772334
1759315573.679234, 1.094300, 9.740959, 0.248398, -0.008389, 0.166337, 0.117754, 41.225708, -131.993210, 109.013733, 13.727806, 100.772334
1759315573.699248, 1.055993, 8.978556, 0.385616, 0.065135, 0.124158, 0.128754, 40.959900, -132.076065, 108.438919, 13.727806, 100.772334
1759315573.719261, 1.042974, 8.732402, 0.385766, -0.002083, 0.021239, 0.090826, 40.952972, -132.135086, 109.116486, 13.727806, 100.772334
1759315573.739255, 0.916680, 9.251046, -0.269497, 0.079429, -0.091991, 0.078867, 41.013046, -132.152954, 108.519180, 13.727806, 100.772334
1759315573.759257, 0.584634, 9.601796, -1.531990, 0.500325, -0.015092, 0.020728, 41.192017, -132.081497, 108.783997, 13.727806, 100.772334
1759315573.779236, 0.121057, 9.566631, -2.469320, 0.975575, 0.333547, -0.032433, 40.984787, -131.594009, 108.457840, 13.727806, 100.772334
1759315573.799272, -0.030676, 9.285911, -2.585289, 1.326906, 0.717582, -0.043774, 40.608261, -130.823425, 108.288483, 13.727806, 100.772334
1759315573.819279, 0.169689, 8.062624, -1.730559, 1.369773, 0.622718, -0.079002, 40.130814, -129.821457, 108.904327, 13.727806, 100.772334
1759315573.839232, 0.150835, 6.361095, -0.800561, 0.893747, 0.595403, -0.265384, 39.793549, -129.195190, 107.972275, 13.727806, 100.772334
1759315573.859275, -0.605883, 5.352537, -0.969502, 1.441087, -0.056975, -0.524132, 39.440063, -128.272705, 108.484055, 13.727806, 100.772334
1759315573.879235, -2.048838, 4.735132, -3.348740, 3.023800, -0.507265, -1.093477, 39.951431, -127.008881, 108.237900, 13.727806, 100.772334
1759315573.899263, -0.607978, 6.672191, 0.571616, 0.941486, 0.540316, -0.887825, 39.620193, -125.806564, 107.444351, 13.727806, 100.772334
1759315573.918520, 0.559495, 7.829638, 2.439542, -1.007422, 0.665241, -0.407147, 38.980530, -126.278107, 108.501160, 13.727806, 100.772334
1759315573.939248, 1.776797, 10.289231, 0.446219, -0.375484, 0.434611, -0.139534, 38.637222, -126.746979, 107.872040, 13.727806, 100.772334
1759315573.959206, 1.754052, 9.023896, -2.494160, 1.815288, 1.033069, -0.212858, 38.273880, -126.039902, 107.781647, 13.727806, 100.772334
1759315573.979232, 1.746420, 7.104195, -1.496376, 1.097364, 1.453691, -0.506546, 37.340912, -125.165268, 107.951050, 13.727806, 100.772334
1759315573.999257, 2.376245, 8.089409, -2.813037, 0.543560, 0.778606, -0.435559, 36.739380, -125.039703, 107.647537, 13.727806, 100.772334
1759315574.019069, 2.149095, 10.669161, -3.509002, 0.348105, 0.233512, -0.384546, 36.322739, -125.024353, 107.638870, 13.727806, 100.772334
1759315574.039268, 1.485602, 10.472537, -2.194884, 0.277290, 0.171680, -0.364547, 36.129517, -124.906281, 106.985611, 13.727806, 100.772334
1759315574.059049, 1.041178, 9.704597, -1.001524, 0.332586, -0.010720, -0.387588, 36.006271, -124.667282, 107.100388, 13.727806, 100.772334
1759315574.079230, 0.518045, 9.559299, -1.224185, 0.946641, -0.024212, -0.432699, 35.898422, -124.051498, 107.592468, 13.727806, 100.772334
1759315574.099298, -0.604087, 13.056928, -4.086154, 2.188958, 0.313822, -0.396418, 36.055634, -123.204147, 106.499954, 13.727806, 100.772334
1759315574.118649, -1.203086, 13.165116, -3.711312, 2.255521, 1.147287, -0.304659, 35.341003, -121.997452, 106.512909, 13.727806, 100.772334
1759315574.139255, -1.024269, 13.870658, -3.584270, 0.918323, 1.328759, -0.218799, 34.216919, -121.276321, 105.420120, 13.727806, 100.772334
1759315574.158910, -0.422427, 13.478607, -2.342726, 1.195868, 1.313038, -0.260402, 33.400055, -120.806824, 105.388382, 13.727806, 100.772334
1759315574.179229, -0.206949, 13.556269, 0.073622, 1.288612, 0.911083, -0.197081, 33.020889, -120.239426, 105.054916, 13.727806, 100.772334
1759315574.199229, -0.942118, 15.307927, -0.364068, 1.103359, 0.287422, -0.038554, 32.919083, -119.873123, 104.195007, 13.727806, 100.772334
1759315574.219257, -1.409886, 15.447389, -1.393126, 1.330901, -0.494959, 0.049119, 32.790192, -119.165573, 104.512985, 13.727806, 100.772334
1759315574.239261, -1.864185, 12.278663, -1.944840, 1.962794, -0.775154, -0.300855, 33.094147, -118.144852, 103.734406, 13.727806, 100.772334
1759315574.258746, -2.099266, 10.623971, -2.485630, 2.203463, -0.732430, -0.440667, 33.296509, -116.938858, 103.461594, 13.727806, 100.772334
1759315574.279197, -2.708740, 9.499145, -3.103634, 2.158511, -1.151003, 0.222466, 33.797150, -115.741623, 102.609741, 13.727806, 100.772334
1759315574.299256, -2.097171, 6.098780, -3.751415, 1.823670, -1.825298, 0.584684, 34.631210, -114.709122, 102.086609, 13.727806, 100.772334
1759315574.319256, -1.542016, 4.768502, -6.013636, 1.439354, -1.907790, 0.495620, 36.145447, -113.508469, 102.610718, 13.727806, 100.772334
1759315574.339123, -0.600945, 5.283255, -7.227347, 0.965821, -1.169430, 0.307474, 36.750259, -113.117294, 101.423920, 13.727806, 100.772334
1759315574.358619, -0.380678, 7.082647, -6.115988, 0.567413, -0.481179, 0.193765, 37.203857, -112.765457, 102.226440, 13.727806, 100.772334
1759315574.379227, -0.426617, 8.597578, -4.256442, 0.421818, -0.532881, 0.226079, 37.557053, -112.524658, 101.395203, 13.727806, 100.772334
1759315574.399252, -0.424672, 7.950096, -3.980510, 0.391036, -0.946446, 0.277689, 38.133148, -112.226028, 101.247330, 13.727806, 100.772334
1759315574.419072, -0.902165, 6.643610, -3.703531, 0.291567, -1.285936, 0.211983, 38.764664, -111.874649, 102.249115, 13.727806, 100.772334
1759315574.439259, -1.655142, 5.860706, -4.164564, 0.048169, -1.131733, 0.115853, 39.302109, -111.785782, 101.545547, 13.727806, 100.772334
1759315574.458466, -2.393902, 5.395782, -5.157410, -0.357971, -0.440647, 0.096281, 39.676117, -112.193024, 101.680359, 13.727806, 100.772334
1759315574.479226, -2.436549, 5.225345, -5.245995, -0.795546, 0.238488, 0.032096, 39.738892, -112.178558, 102.532104, 13.727806, 100.772334
1759315574.499254, -1.703774, 5.884948, -4.965275, -1.124848, 0.474554, -0.074597, 39.086624, -112.959000, 102.823441, 13.727806, 100.772334
1759315574.519252, -1.442955, 6.764218, -5.023035, -1.438464, 0.800088, -0.131661, 38.837540, -113.552048, 103.510101, 13.727806, 100.772334
1759315574.539149, -1.343446, 7.384167, -4.941183, -1.783536, 1.118106, -0.098412, 38.131134, -114.685822, 103.800217, 13.727806, 100.772334
1759315574.558319, -1.094599, 7.747188, -4.940285, -2.186829, 1.400374, -0.035687, 37.524429, -115.860855, 104.334427, 13.727806, 100.772334
1759315574.579224, -0.633865, 7.679402, -4.347571, -2.582242, 1.495395, 0.053928, 36.507294, -117.119003, 105.740509, 13.727806, 100.772334
1759315574.599251, -0.089034, 7.765892, -3.600131, -2.706425, 1.248563, 0.191794, 35.736099, -118.870880, 106.229568, 13.727806, 100.772334
1759315574.618645, -0.203657, 7.991247, -2.534412, -2.564197, 0.686447, 0.420597, 35.387436, -120.395706, 107.592209, 13.727806, 100.772334
1759315574.638998, -0.468066, 8.039430, -1.977012, -2.368679, 0.077436, 0.604399, 35.418167, -121.504181, 106.836334, 13.727806, 100.772334
1759315574.659246, -0.636409, 7.650372, -2.276886, -2.096196, -0.273211, 0.775835, 35.759384, -122.770752, 108.042908, 13.727806, 100.772334
1759315574.679232, -0.615160, 7.301567, -2.999037, -1.757393, -0.067941, 0.782720, 35.692749, -123.677582, 108.911362, 13.727806, 100.772334
1759315574.699245, -0.095020, 8.011298, -3.261202, -1.212747, 0.298917, 0.742422, 35.782364, -124.123428, 108.763443, 13.727806, 100.772334
1759315574.718524, 0.277278, 9.145701, -4.026299, -0.410820, 0.617667, 0.654952, 35.562103, -124.551025, 109.123352, 13.727806, 100.772334
1759315574.738846, 0.220416, 10.111462, -4.234744, 0.438016, 0.927643, 0.312831, 35.200180, -124.264496, 108.416870, 13.727806, 100.772334
1759315574.759254, -0.122254, 8.930971, -2.996194, 0.771786, 0.899269, -0.247901, 34.565170, -123.964035, 108.829742, 13.727806, 100.772334
1759315574.779224, -0.454749, 6.502352, -1.916858, 0.511015, 0.278919, -0.225269, 34.057724, -123.510208, 108.175949, 13.727806, 100.772334
1759315574.799243, 0.154875, 4.135834, -1.807473, 0.111954, -0.120711, -0.154820, 33.990463, -123.089203, 107.874802, 13.727806, 100.772334
1759315574.819249, 0.921019, 4.414459, -1.693149, -0.373171, -0.204070, -0.029805, 34.211365, -123.451157, 108.544800, 13.727806, 100.772334
1759315574.838688, 1.206827, 6.195446, -0.636259, -1.110726, -0.239084, 0.412939, 34.234634, -124.049789, 108.421234, 13.727806, 100.772334
1759315574.859246, 1.434875, 7.474698, 0.288352, -1.843797, -0.545762, 0.921787, 34.642990, -125.056641, 108.486404, 13.727806, 100.772334
1759315574.879222, 1.547402, 8.631546, 0.784700, -2.275693, -1.061306, 1.243646, 35.436981, -126.353195, 109.079620, 13.727806, 100.772334
1759315574.899250, 1.469591, 9.529372, 1.014543, -2.273224, -1.579560, 1.278614, 36.484848, -127.727982, 109.763229, 13.727806, 100.772334
1759315574.918366, -0.126444, 12.189180, 0.265457, -1.390862, -1.970521, 1.006385, 37.928436, -128.706009, 110.888504, 13.727806, 100.772334
1759315574.938538, -1.514482, 17.458818, -1.598130, 0.519214, -2.023860, 0.528107, 39.998932, -128.594650, 109.742233, 13.727806, 100.772334
1759315574.959251, -2.515109, 21.774666, -2.816030, 0.952690, -0.594425, -0.040901, 40.574265, -128.210800, 109.701965, 13.727806, 100.772334
1759315574.979220, -1.973421, 19.003377, -0.313042, 0.179244, 0.638537, -0.053199, 39.864090, -127.579590, 110.567688, 13.727806, 100.772334
1759315574.999245, 0.174627, 10.046669, 0.889596, -0.880661, 1.723124, 0.247837, 38.181580, -127.811630, 109.987839, 13.727806, 100.772334
1759315575.019239, 1.442656, 10.387693, 4.139126, -0.800626, 1.120400, 0.042132, 37.531021, -128.360977, 110.147934, 13.727806, 100.772334
1759315575.038390, 2.506280, 18.737621, 4.233397, -0.413989, -0.590136, -0.108513, 38.113342, -128.888275, 109.981903, 13.727806, 100.772334
1759315575.059266, 4.917391, 18.234090, -2.565986, 1.420437, -1.891818, 0.258953, 39.392502, -128.010742, 109.989059, 13.727806, 100.772334
1759315575.079219, 4.005350, 6.094291, -6.341492, -0.197361, -1.069089, -0.229161, 39.802399, -127.687317, 111.218094, 13.727806, 100.772334
1759315575.099246, 1.494880, 4.925322, 0.423624, -1.229957, 0.137784, -0.167975, 39.214890, -128.278397, 110.264725, 13.727806, 100.772334
1759315575.118748, 1.107618, 4.137480, 2.036867, -0.519985, 0.756735, 0.320299, 38.846512, -128.694138, 110.661362, 13.727806, 100.772334
1759315575.139250, 0.912340, 8.321946, 2.357690, 0.139912, 0.915400, 0.362191, 38.187073, -128.862259, 110.070541, 13.727806, 100.772334
1759315575.159043, 0.188693, 11.480047, 1.828123, 0.196971, 1.144231, 0.344333, 37.687836, -128.746597, 109.982590, 13.727806, 100.772334
1759315575.179217, 0.018256, 10.573543, 2.045546, -0.404389, 0.935995, 0.269852, 37.026413, -128.998276, 110.447342, 13.727805, 100.772332
1759315575.199232, 0.327557, 7.598448, 0.507720, -0.628653, 0.163006, 0.027682, 36.820312, -129.425552, 110.275909, 13.727805, 100.772332
1759315575.219005, 0.808193, 7.080851, -2.144008, 0.292572, -0.436712, -0.233329, 37.178024, -129.161346, 110.695694, 13.727805, 100.772332
1759315575.239246, 1.063325, 7.841010, -3.391087, 0.295092, 0.151210, -0.378051, 37.109299, -129.134384, 109.678223, 13.727805, 100.772332
1759315575.259239, 1.277456, 8.528595, -1.319205, 0.376286, 0.675316, -0.252354, 36.572098, -128.748520, 110.129578, 13.727805, 100.772332
1759315575.278231, 1.497424, 9.520393, -1.345841, 0.851905, 0.500975, -0.284456, 36.181778, -128.478043, 109.573425, 13.727805, 100.772332
1759315575.299244, 1.700182, 10.103980, -4.490176, 1.347503, 0.357151, -0.409644, 36.044464, -127.733398, 109.098282, 13.727805, 100.772332
1759315575.319246, 1.231817, 8.954015, -4.217985, 1.316648, 0.718122, -0.645302, 35.420639, -126.835098, 109.576599, 13.727805, 100.772332
1759315575.338708, 1.185279, 7.134422, 0.028730, 1.156295, 1.211171, -0.832207, 34.507172, -125.946487, 108.761078, 13.727805, 100.772332
1759315575.359244, 0.661697, 4.043657, 2.621950, 0.697096, 0.872990, -0.957146, 33.370087, -125.568237, 108.352600, 13.727805, 100.772332
1759315575.378616, -0.231190, 3.001431, 2.260426, 0.746698, 0.104264, -0.977432, 33.079269, -125.209885, 108.169647, 13.727805, 100.772332
1759315575.398490, -0.583287, 3.935619, 1.054646, 0.826503, -0.167264, -0.698870, 33.029816, -124.842010, 108.089203, 13.727805, 100.772332
1759315575.419242, 0.073921, 7.177218, -0.108338, 0.681455, -0.016955, -0.410789, 33.141190, -124.705612, 108.574097, 13.727805, 100.772332
1759315575.439242, 1.319504, 10.304195, -1.066766, 0.255372, 0.344087, -0.206408, 32.899948, -124.732422, 107.989288, 13.727805, 100.772332
1759315575.459240, 2.707992, 11.164013, -2.106449, 0.330230, 0.574602, 0.057875, 32.495819, -124.629288, 107.573349, 13.727805, 100.772332
1759315575.478702, 3.399467, 9.625738, -2.560299, 0.243752, 0.402283, 0.153033, 32.176743, -124.383743, 107.605804, 13.727805, 100.772332
1759315575.499243, 3.485209, 9.806351, -6.101922, 1.360041, 0.372593, 0.274027, 32.336365, -123.843536, 107.036209, 13.727805, 100.772332
1759315575.519241, 1.280748, 10.784681, -5.790077, 0.713589, 0.128352, 0.194274, 32.057358, -123.268250, 107.569504, 13.727805, 100.772332
1759315575.539245, 0.666187, 11.895741, -6.108806, 0.684696, 0.601712, 0.104287, 31.673111, -122.736298, 106.572906, 13.727805, 100.772332
1759315575.559239, 0.981473, 11.607987, -2.986018, 0.960568, 0.737402, -0.104316, 31.008408, -122.253937, 106.352280, 13.727805, 100.772332
1759315575.578753, 0.929549, 12.307394, -2.356942, 1.551999, 0.152221, -0.223948, 31.135208, -121.240402, 106.194031, 13.727805, 100.772332
1759315575.599280, 0.625485, 12.306945, -3.407398, 2.696249, -0.087754, -0.352397, 30.974091, -119.952225, 104.891556, 13.727805, 100.772332
1759315575.619238, 0.060005, 12.157008, -1.826626, 1.800241, -0.041573, -0.312792, 30.712311, -118.977280, 104.809753, 13.727805, 100.772332
1759315575.639232, -0.651223, 11.870601, -2.230648, 1.571716, 0.228192, -0.247252, 30.565720, -118.345932, 103.656677, 13.727805, 100.772332
1759315575.659239, -0.802506, 12.684929, -0.366014, 1.352811, -0.084822, -0.558057, 30.684586, -118.085999, 103.585938, 13.727805, 100.772332
1759315575.678754, -0.413449, 19.734806, -0.428562, 1.070507, -1.554958, 0.046442, 32.051468, -117.385468, 103.700027, 13.727805, 100.772332
1759315575.698337, 0.142006, 17.806426, -5.198410, 1.818295, -2.184548, 1.102283, 32.582565, -116.784302, 103.526367, 13.727805, 100.772332
1759315575.719238, -1.070208, 11.747599, -4.453215, 1.811728, -1.464671, 0.846957, 33.780121, -115.324310, 103.425339, 13.727805, 100.772332
1759315575.739245, -1.910872, 7.758261, -4.827608, 1.183592, -0.935854, 0.300873, 34.333145, -114.520172, 102.470703, 13.727805, 100.772332
1759315575.759097, -2.103755, 6.523302, -4.400842, 0.911309, -0.930257, 0.052693, 34.859543, -113.950790, 102.926651, 13.727805, 100.772332
1759315575.778744, -1.739687, 5.828385, -3.784335, 0.574174, -1.290012, 0.268556, 35.611298, -113.424026, 102.171509, 13.727805, 100.772332
1759315575.799232, -0.428263, 4.222773, -2.233341, 0.465573, -1.341640, 0.334525, 36.270264, -113.216904, 102.399521, 13.727805, 100.772332
1759315575.819239, 0.713622, 3.865588, -1.924190, 0.312692, -1.483197, 0.103445, 36.969299, -112.970901, 103.160583, 13.727805, 100.772332
1759315575.838715, 0.433201, 6.376806, -4.490624, -0.029928, -1.179772, -0.031599, 37.558136, -113.258835, 102.428391, 13.727805, 100.772332
1759315575.859216, -0.844704, 7.536049, -4.669142, -0.454562, -0.555015, 0.040598, 37.898514, -113.307678, 103.106873, 13.727805, 100.772332
1759315575.879215, -2.041207, 6.797587, -3.529053, -0.648738, -0.421163, -0.096388, 38.125549, -113.664368, 103.170731, 13.727805, 100.772332
1759315575.899235, -2.432958, 6.591237, -3.356671, -0.866751, -0.233112, -0.305666, 38.157303, -114.074707, 103.893311, 13.727805, 100.772332
1759315575.919232, -2.574515, 6.931064, -3.859902, -1.138095, 0.196452, -0.292424, 37.853622, -114.900665, 104.287888, 13.727805, 100.772332
1759315575.939233, -2.193687, 7.008427, -4.471172, -1.482730, 0.682880, -0.131599, 37.415176, -115.784348, 104.224197, 13.727805, 100.772332
1759315575.958609, -1.309778, 6.353762, -4.841974, -1.833012, 1.075575, -0.195675, 36.644104, -116.764648, 104.517105, 13.727805, 100.772332
1759315575.979212, -0.971747, 6.467487, -5.328445, -2.032455, 1.489408, -0.312512, 35.424576, -117.898514, 105.840820, 13.727805, 100.772332
1759315575.999226, -0.285060, 6.466589, -5.062390, -1.944890, 1.814859, -0.263671, 34.162109, -119.353943, 105.982391, 13.727805, 100.772332
1759315576.018391, 0.502483, 6.094141, -4.143765, -1.696172, 1.902502, 0.005329, 33.249451, -120.327515, 106.895416, 13.727805, 100.772332
1759315576.039247, 1.171214, 6.303634, -2.696470, -1.723731, 1.620847, 0.463624, 32.295013, -121.380981, 106.659027, 13.727805, 100.772332
1759315576.059212, 1.629254, 6.525247, -0.903512, -2.005272, 0.869671, 0.836991, 31.826630, -122.418213, 106.827255, 13.727805, 100.772332
1759315576.079199, 1.804480, 6.711995, -0.291494, -2.093331, -0.139840, 1.069692, 32.542816, -123.440186, 107.689026, 13.727805, 100.772332
1759315576.099228, 1.586458, 6.875848, -0.695366, -1.834543, -0.755090, 1.130545, 33.001953, -124.489349, 107.764236, 13.727805, 100.772332
1759315576.119233, 1.525406, 7.170933, -1.543213, -1.357534, -0.730512, 0.936915, 33.624481, -124.939758, 108.246429, 13.727805, 100.772332
1759315576.139209, 1.366940, 8.545055, -2.138920, -0.835003, -0.458752, 0.501890, 34.061646, -125.640274, 108.344650, 13.727805, 100.772332
1759315576.158238, 0.586579, 10.521469, -3.201048, -0.209579, -0.344846, 0.310036, 34.407272, -125.806076, 108.077072, 13.727805, 100.772332
1759315576.179198, -0.259921, 11.599308, -4.079271, 0.284582, -0.230656, 0.446752, 34.548340, -125.502640, 108.800766, 13.727805, 100.772332
1759315576.198459, -1.125724, 10.428245, -4.802320, -0.078493, -0.253623, 0.712477, 34.728546, -125.605896, 107.882355, 13.727805, 100.772332
1759315576.219224, -1.615188, 8.916306, -5.118055, -0.401903, -0.070975, 0.564727, 34.682358, -125.939774, 108.564987, 13.727750, 100.772295
1759315576.238866, -1.513435, 10.417022, -3.703680, -0.527783, 0.307510, 0.470898, 34.521957, -126.253952, 108.218018, 13.727750, 100.772295
1759315576.259228, -0.763451, 12.897714, -2.162263, -0.653184, 0.599453, 0.278573, 34.423080, -126.673080, 108.796936, 13.727750, 100.772295
1759315576.279206, 0.928052, 17.490990, -0.270096, -0.903759, 0.947891, 0.222868, 33.840179, -127.436249, 107.879898, 13.727750, 100.772295
1759315576.299220, 2.282123, 18.863167, 3.677494, -0.907864, 0.746210, 0.165608, 32.929459, -127.930893, 107.852631, 13.727750, 100.772295
1759315576.319206, 2.497152, 12.499828, 5.185242, -0.436017, -0.269549, -0.220242, 32.807800, -127.912216, 108.719635, 13.727750, 100.772295
1759315576.338687, 1.779041, 8.073098, 3.191172, 0.155972, -1.168342, -0.191747, 33.511688, -127.950974, 108.225693, 13.727750, 100.772295
1759315576.359213, 1.696741, 7.822455, 1.325340, 0.213581, -1.381296, -0.038501, 34.503723, -128.069473, 108.409775, 13.727750, 100.772295
1759315576.379212, 2.076671, 14.980071, 0.096816, -0.232147, -0.906165, 0.118332, 35.281708, -128.468063, 107.757416, 13.727750, 100.772295
1759315576.399223, 2.710835, 19.372533, -0.469413, -1.240590, 0.370161, 0.197734, 35.022446, -129.059097, 108.306122, 13.727750, 100.772295
1759315576.419236, 1.981052, 12.075306, 0.314987, -0.540258, 0.248210, 0.219473, 34.243439, -129.133163, 109.448517, 13.727750, 100.772295
1759315576.438598, 1.014393, 5.666626, -0.939724, 0.470935, -0.306331, 0.070109, 34.711533, -129.037750, 108.858093, 13.727750, 100.772295
1759315576.459242, 1.301997, 6.168661, -0.721702, 0.323248, -0.727204, -0.062561, 35.160568, -128.998718, 108.923462, 13.727750, 100.772295
1759315576.478857, 0.948852, 7.228244, -1.825579, -0.760546, -0.053368, 0.208474, 35.131287, -129.320602, 109.170792, 13.727750, 100.772295
1759315576.499213, 0.546477, 7.491906, -0.055964, -0.272591, 0.737308, 0.035408, 34.690613, -129.745621, 108.624985, 13.727750, 100.772295
1759315576.519229, 0.339378, 6.846369, 0.513556, -0.024376, 0.796219, -0.005757, 33.980698, -129.639450, 109.310516, 13.727750, 100.772295
1759315576.539217, 0.608726, 8.256105, -0.236577, 0.090901, 0.665132, -0.027614, 33.666229, -129.871490, 108.379913, 13.727750, 100.772295
1759315576.559201, 1.470339, 9.835680, -2.913295, 0.123145, 0.228070, -0.142806, 33.718399, -129.955872, 108.147400, 13.727750, 100.772295
1759315576.579196, 2.590676, 10.887782, -5.408202, -0.146363, 0.365859, -0.146747, 33.470856, -130.004135, 108.763412, 13.727750, 100.772295
1759315576.598957, 2.623746, 8.965088, -1.917007, 0.136182, 0.893418, -0.308122, 32.690048, -129.935394, 107.830231, 13.727750, 100.772295
1759315576.619142, 1.502661, 7.727585, 2.433706, 0.473940, 0.788370, -0.533305, 31.932251, -129.548889, 108.809631, 13.727750, 100.772295
1759315576.639272, 1.362301, 8.487894, 0.419285, 1.101081, 0.176536, -0.505160, 31.683945, -129.208786, 107.701233, 13.727750, 100.772295
1759315576.659210, 0.642245, 7.548170, -2.618957, 1.752783, 0.038349, -0.737836, 31.791580, -128.327942, 107.467606, 13.727750, 100.772295
1759315576.679197, 0.449960, 5.676802, -1.541118, 1.583568, 0.671516, -0.758334, 31.075409, -127.392059, 107.864243, 13.727750, 100.772295
1759315576.699204, 0.035913, 3.200748, -0.254534, 1.372580, 0.631675, -0.800535, 30.401199, -127.002686, 106.826706, 13.727750, 100.772295
1759315576.718992, -0.238073, 2.263568, 1.167173, 0.888414, 0.175211, -0.795359, 30.059280, -126.449875, 107.127502, 13.727750, 100.772295
1759315576.739220, 0.392948, 5.651663, -0.020949, 0.657951, -0.173948, -0.464273, 30.089172, -126.339981, 106.340714, 13.727750, 100.772295
1759315576.759222, 1.566855, 9.250297, -0.023942, 0.533272, -0.275602, -0.190630, 30.076569, -126.439590, 106.878113, 13.727750, 100.772295
1759315576.779197, 3.226037, 15.711649, -2.926313, 0.106702, -0.324261, 0.107763, 30.691635, -126.701706, 106.209366, 13.727750, 100.772295
1759315576.798665, 4.520402, 12.448801, -4.820875, 1.103384, 0.299312, 0.344237, 30.538498, -125.935333, 106.229019, 13.727750, 100.772295
1759315576.818835, 2.584092, 7.937078, -5.805041, 1.072890, 0.093003, -0.221239, 30.217255, -125.249817, 106.475403, 13.727750, 100.772295
1759315576.839218, -0.303615, 9.129241, -4.716428, 1.421088, -0.119126, -0.333445, 30.289795, -124.681427, 105.975067, 13.727750, 100.772295
1759315576.859216, -0.413748, 10.730363, -3.141193, 1.238266, -0.116108, -0.508871, 30.012970, -124.099243, 105.955307, 13.727750, 100.772295
1759315576.878732, 0.121805, 12.464812, -3.950582, 2.229393, 0.201890, -0.297452, 29.790161, -122.930038, 104.784592, 13.727750, 100.772295
1759315576.899224, 0.357185, 12.294076, -3.313874, 2.685508, 0.772749, -0.270010, 29.443375, -121.922821, 103.964264, 13.727750, 100.772295
1759315576.918685, 0.395791, 13.960291, -1.494431, 2.425015, 0.760539, -0.225537, 28.804779, -120.609589, 103.662369, 13.727750, 100.772295
1759315576.939263, 0.252289, 17.243789, -1.317709, 1.828065, -0.551377, 0.183264, 28.943436, -119.791977, 102.964386, 13.727750, 100.772295
1759315576.959223, -0.068384, 21.319767, -2.563891, 1.372654, -2.407491, 0.772831, 30.396042, -118.917343, 102.505066, 13.727750, 100.772295
1759315576.979199, -1.732953, 16.869545, -7.424719, 1.894604, -2.749537, 1.120028, 32.069992, -117.494232, 103.230850, 13.727750, 100.772295
1759315576.998360, -2.127697, 11.206959, -6.128408, 1.619049, -2.065682, 0.901257, 33.513458, -116.215912, 102.804794, 13.727750, 100.772295
1759315577.018531, -2.069039, 5.760599, -6.462100, 0.835519, -1.468847, 0.501393, 34.356567, -115.380447, 103.523056, 13.727750, 100.772295
1759315577.038807, -1.604115, 3.859603, -4.443339, 0.197683, -0.815594, 0.222559, 34.910522, -115.003799, 102.793228, 13.727750, 100.772295
1759315577.059223, -0.624887, 3.355623, -2.554613, -0.143651, -0.248257, 0.104885, 34.968109, -114.897308, 103.083374, 13.727750, 100.772295
1759315577.079001, 0.190189, 3.477428, -1.061828, -0.302740, -0.032844, 0.063377, 35.075638, -114.947845, 103.458572, 13.727750, 100.772295
1759315577.099222, 0.338480, 4.867562, -1.221192, -0.512330, -0.205108, 0.042083, 35.253387, -115.401840, 103.053177, 13.727750, 100.772295
1759315577.118348, 0.223858, 6.959795, -2.936189, -0.734502, -0.053570, 0.220602, 35.520966, -115.791824, 104.111618, 13.727750, 100.772295
1759315577.139025, -0.394744, 7.397036, -3.602076, -1.106132, 0.101216, 0.209477, 35.363144, -116.443604, 103.821762, 13.727750, 100.772295
1759315577.159221, -1.130362, 7.224055, -3.810821, -1.378205, 0.343544, 0.040664, 35.116440, -117.056152, 105.020233, 13.727750, 100.772295
1759315577.179192, -1.396867, 7.062596, -3.345897, -1.552976, 0.737389, -0.143755, 34.468384, -118.113785, 105.574417, 13.727750, 100.772295
1759315577.199204, -1.591845, 7.214029, -2.762909, -1.869596, 0.883549, -0.213188, 33.783112, -119.314285, 105.127487, 13.727750, 100.772295
1759315577.218196, -1.451335, 7.266701, -2.869151, -2.191250, 0.826591, -0.193174, 33.526047, -119.929611, 105.993683, 13.727750, 100.772295
1759315577.239219, -1.014094, 7.638850, -3.600430, -2.150332, 0.883218, -0.140497, 32.937500, -121.435074, 106.254715, 13.727750, 100.772295
1759315577.259217, -0.674566, 8.592790, -3.816806, -1.862248, 1.044514, 0.011945, 32.412308, -122.732178, 107.220581, 13.727750, 100.772295
1759315577.279189, -0.096367, 8.710255, -3.673753, -1.540341, 1.132340, 0.174923, 31.610580, -123.509628, 106.226913, 13.727750, 100.772295
1759315577.299253, 0.500388, 8.442105, -3.626318, -1.145555, 0.898015, 0.319820, 31.206497, -124.617340, 106.694183, 13.727750, 100.772295
1759315577.319191, 1.229123, 6.963536, -3.880702, -1.032326, -0.007291, 0.299221, 30.742844, -125.138336, 107.149796, 13.727750, 100.772295
1759315577.339217, 1.084873, 6.844125, -4.054730, -0.825707, -0.507707, 0.302447, 31.033585, -125.682953, 106.984131, 13.727750, 100.772295
1759315577.359222, 0.942717, 6.122423, -3.279757, -0.596824, 0.298466, 0.531845, 30.844788, -125.996933, 107.511185, 13.727750, 100.772295
1759315577.379198, 0.991648, 6.372168, -1.586757, -0.741862, 1.123198, 0.555448, 30.310791, -126.198334, 106.911194, 13.727750, 100.772295
1759315577.399214, 1.401655, 8.390031, -0.488118, -1.101233, 1.255463, 0.603537, 29.682678, -126.920746, 106.545517, 13.727750, 100.772295
1759315577.419191, 1.006612, 9.675717, -0.175226, -1.001825, 0.442096, 0.463282, 29.100616, -127.382004, 107.058243, 13.727750, 100.772295
1759315577.439226, -0.289249, 9.938331, -0.788141, -0.389374, -1.116611, 0.404706, 29.520416, -127.888138, 106.611633, 13.727750, 100.772295
1759315577.459218, -1.570447, 8.959851, -2.895188, -0.490252, -2.088115, 0.334248, 30.920303, -128.105804, 107.215088, 13.727750, 100.772295
1759315577.479188, -2.003199, 9.035567, -5.125387, -0.432588, -1.872384, 0.091823, 32.112885, -128.473328, 108.037979, 13.727750, 100.772295
1759315577.499223, -1.606360, 11.309012, -6.447884, 0.194224, -0.539417, -0.149915, 32.606186, -128.826889, 107.962769, 13.727750, 100.772295
1759315577.519198, 0.032471, 16.174478, -6.304681, 0.867593, 1.496584, -0.168965, 32.085205, -128.739487, 107.904800, 13.727750, 100.772295
1759315577.539211, 1.833510, 19.112463, 1.381604, -0.967019, 3.315650, 0.103764, 29.709656, -129.049622, 107.205887, 13.727750, 100.772295
1759315577.559212, 3.854365, 17.404948, 7.286154, -1.317775, 1.617528, 0.063055, 28.213989, -129.686783, 106.291153, 13.727750, 100.772295
1759315577.579187, 4.153790, 11.551574, 7.411700, -0.218437, -1.298527, -0.097956, 28.972015, -129.798279, 107.532455, 13.727750, 100.772295
1759315577.599224, 3.237260, 10.531195, 2.998139, 0.243376, -2.762824, 0.102012, 30.754196, -129.964584, 107.693954, 13.727750, 100.772295
1759315577.619221, 2.810344, 15.466842, -0.894833, -0.368742, -2.206573, 0.379268, 32.362244, -130.272278, 108.410446, 13.727750, 100.772295
1759315577.638201, 1.882890, 16.583288, -2.094777, -1.311196, -0.598982, 0.738615, 32.548050, -130.629547, 108.231277, 13.727750, 100.772295
1759315577.659222, 0.886154, 10.867581, -0.447267, -1.572360, 0.509963, 0.781808, 32.047211, -131.104782, 108.492599, 13.727750, 100.772295
1759315577.679189, -1.339855, 5.993435, -1.646313, 0.172395, 0.172835, 0.123057, 32.115784, -131.007278, 108.705673, 13.727750, 100.772295
1759315577.699201, -1.483956, 6.601263, -2.004695, 0.797377, -0.585579, -0.384550, 32.371338, -130.894669, 108.703812, 13.727750, 100.772295
1759315577.719215, -1.433828, 6.011990, -3.430143, -0.467945, 0.330483, -0.142769, 32.268600, -130.676010, 108.931717, 13.727750, 100.772295
1759315577.739214, 0.428712, 5.777508, -0.795324, -0.060474, 1.455005, -0.266660, 31.599457, -131.096237, 108.352188, 13.727750, 100.772295
1759315577.759219, 0.718111, 4.920084, 1.361852, 0.064302, 1.684911, -0.516822, 30.318298, -131.213394, 108.328339, 13.727750, 100.772295
1759315577.779185, 0.508768, 4.416554, 1.321749, 0.242597, 1.331182, -0.582414, 29.247223, -131.255814, 107.593933, 13.727750, 100.772295
1759315577.799223, 0.616657, 4.278588, -0.112079, 0.910707, 1.041955, -0.486761, 28.451065, -130.885056, 107.437637, 13.727750, 100.772295
1759315577.819219, 0.578798, 4.401590, -1.321300, 1.667434, 1.203564, -0.498624, 27.699356, -130.307037, 107.157486, 13.727750, 100.772295
1759315577.839221, 0.529418, 4.237737, -1.372476, 1.677632, 1.435513, -0.661017, 26.768112, -129.590958, 106.109146, 13.727750, 100.772295
1759315577.859221, -0.181810, 5.366154, -1.719186, 1.103148, 1.259895, -0.716723, 25.851074, -129.207489, 106.332840, 13.727750, 100.772295
1759315577.878318, 0.137816, 8.031499, -0.989853, 0.515865, 0.801667, -0.674459, 25.122360, -129.218277, 105.093292, 13.727750, 100.772295
1759315577.899214, 0.921917, 11.859528, -2.168847, 0.994359, 0.757998, -0.565156, 24.636581, -129.101929, 104.445465, 13.727750, 100.772295
1759315577.919182, 1.446696, 9.706842, -1.056890, 0.904264, 0.501786, -0.595879, 24.259888, -128.917145, 104.671341, 13.727750, 100.772295
1759315577.939214, 1.439514, 6.851906, -4.177134, 1.000617, 0.742603, -0.399161, 23.746445, -128.578583, 103.973511, 13.727750, 100.772295
1759315577.959219, 1.726818, 5.931036, -2.889652, 0.566255, 0.914372, -0.498818, 23.241119, -128.485458, 103.719437, 13.727750, 100.772295
1759315577.979190, 3.133860, 9.789142, -4.581305, 0.624822, 0.772871, -0.483381, 22.694534, -128.768234, 103.726578, 13.727750, 100.772295
1759315577.999208, 4.095132, 14.973936, -3.465457, 0.639533, 0.220716, -0.297095, 22.512329, -128.917358, 103.148697, 13.727750, 100.772295
1759315578.019213, 3.656395, 18.707992, -3.787328, 1.377497, -0.369220, 0.240259, 22.740753, -128.211914, 103.725861, 13.727750, 100.772295
1759315578.039211, 0.795922, 16.468366, -5.936872, 2.805492, -0.276943, 0.393316, 22.827515, -126.511902, 102.847427, 13.727750, 100.772295
1759315578.059218, -1.568651, 13.490578, -5.123891, 2.859239, 0.281315, 0.149605, 22.780716, -124.946823, 102.145355, 13.727750, 100.772295
1759315578.079187, -1.963245, 14.865598, -4.293552, 2.483539, 1.030825, -0.216348, 22.252960, -124.025726, 101.825394, 13.727750, 100.772295
1759315578.099211, -1.690306, 20.417602, -2.731634, 1.682284, 0.114814, 0.260806, 22.323853, -123.065109, 100.709396, 13.727750, 100.772295
1759315578.119144, 0.049081, 17.204733, -2.661604, 1.305163, -2.218129, 0.888160, 23.761353, -121.892502, 102.327850, 13.727750, 100.772295
1759315578.139208, 0.161908, 12.376825, -4.358195, 1.170706, -2.504031, 0.878683, 24.996292, -120.692139, 102.148956, 13.727750, 100.772295
1759315578.159218, -0.111181, 7.315334, -3.736152, 0.809484, -1.843121, 0.761829, 25.888626, -119.800903, 102.705093, 13.727750, 100.772295
1759315578.179188, -0.558448, 4.626346, -2.689736, 0.600925, -1.032560, 0.392636, 26.453491, -119.374161, 103.229507, 13.727750, 100.772295
1759315578.199196, -0.155174, 3.916465, -1.843535, 0.362548, -0.603692, 0.161794, 26.796631, -118.959869, 102.953064, 13.727750, 100.772295
1759315578.218995, 0.014964, 3.762039, -1.767070, -0.014394, -0.429244, 0.127446, 26.765854, -118.958801, 103.592484, 13.727750, 100.772295
1759315578.239211, -0.375740, 4.211999, -2.642899, -0.497350, -0.111619, 0.144804, 27.100464, -119.190292, 103.561050, 13.727750, 100.772295
1759315578.259219, -0.736217, 4.401291, -2.938733, -0.892550, 0.283672, 0.157915, 27.233521, -119.713959, 104.215240, 13.727750, 100.772295
1759315578.279183, -0.856226, 4.664354, -2.379986, -1.224038, 0.324803, -0.010246, 26.909958, -120.278030, 104.017731, 13.727750, 100.772295
1759315578.299201, -1.184232, 4.949563, -2.174384, -1.467517, 0.259661, -0.257502, 26.588516, -121.389313, 104.187439, 13.727750, 100.772295
1759315578.318844, -1.630601, 5.288193, -1.920150, -1.726230, 0.173032, -0.374928, 26.332474, -122.425858, 105.246323, 13.727750, 100.772295
1759315578.339009, -1.317559, 5.914277, -1.912369, -2.171761, 0.038018, -0.246965, 26.252747, -123.823410, 105.339737, 13.727750, 100.772295
1759315578.359204, -0.266205, 6.486042, -2.109591, -2.650936, 0.180904, -0.025650, 25.882660, -125.256302, 106.147125, 13.727750, 100.772295
1759315578.379184, 0.192434, 7.454197, -1.666364, -2.892851, 0.204936, 0.322260, 25.770050, -126.995743, 105.970322, 13.727750, 100.772295
1759315578.398954, 0.383521, 7.463924, -1.019331, -2.666977, -0.022551, 0.685215, 25.609039, -128.414886, 105.972809, 13.727750, 100.772295
1759315578.418705, 0.668282, 7.340622, -0.435146, -2.188132, -0.405395, 0.955638, 26.011765, -129.854996, 107.031265, 13.727750, 100.772295
1759315578.439205, 0.833930, 7.654412, -0.636558, -1.667432, -0.779701, 0.994501, 26.401947, -130.716003, 107.308578, 13.727750, 100.772295
1759315578.459210, 1.147122, 9.199720, -2.107496, -0.997889, -0.958125, 0.746941, 27.151581, -131.263626, 108.150543, 13.727750, 100.772295
1759315578.479182, 1.468693, 10.267235, -4.227711, -0.420212, -0.521418, 0.457813, 27.476074, -131.745697, 107.818161, 13.727750, 100.772295
1759315578.499201, 0.129885, 10.373328, -5.253028, 0.069960, 0.238387, 0.320560, 27.377655, -131.693787, 107.370758, 13.727750, 100.772295
1759315578.518555, -1.669806, 9.599402, -6.518962, 0.530998, 0.735640, 0.399496, 27.056747, -131.619568, 107.810394, 13.727750, 100.772295
1759315578.539208, -1.874361, 8.164377, -5.583877, 0.002388, 0.458361, 0.455157, 26.449234, -131.677536, 107.541519, 13.727750, 100.772295
1759315578.559214, -1.140089, 9.714024, -3.320159, -0.358174, 0.577787, 0.301815, 25.965530, -132.098495, 106.999268, 13.727750, 100.772295
1759315578.579181, -0.268151, 14.263157, -2.267309, -0.498800, 1.138299, -0.047919, 25.360397, -132.807755, 107.175705, 13.727750, 100.772295
1759315578.599143, 1.184681, 20.728250, -0.457592, -0.127052, 1.720812, -0.101295, 24.232071, -132.898483, 106.221329, 13.727750, 100.772295
1759315578.618456, 1.981950, 19.990985, 5.745186, -0.065372, 1.429930, -0.315122, 23.442657, -132.878479, 106.932816, 13.727750, 100.772295
1759315578.639210, 2.985869, 15.366585, 6.124517, 0.524168, -0.646874, -0.355238, 24.097900, -132.852921, 106.600845, 13.727750, 100.772295
1759315578.659238, 3.224690, 17.992874, 2.760215, 0.300554, -1.889300, -0.174406, 25.229523, -132.831909, 107.098633, 13.727750, 100.772295
1759315578.679180, 2.738817, 14.372542, -0.654365, -0.251299, -1.410911, -0.152954, 25.721176, -132.980270, 108.392944, 13.727750, 100.772295
1759315578.698958, 1.795352, 9.359682, -0.843208, -0.626925, -0.823624, 0.152327, 25.956604, -132.684433, 108.293579, 13.727750, 100.772295
1759315578.718271, 0.731129, 5.043087, -4.135834, 0.995166, -0.585631, 0.143143, 26.409134, -132.525986, 109.123856, 13.727750, 100.772295
1759315578.739199, 0.771980, 6.003910, -2.832490, 0.515024, 0.547332, 0.258298, 26.404404, -132.138931, 108.172043, 13.727750, 100.772295
1759315578.759206, 0.828244, 6.429629, -0.615160, -1.215233, 0.704269, 0.492794, 25.871140, -132.509781, 108.960068, 13.727750, 100.772295
1759315578.778685, 0.857872, 7.325359, -0.071527, -1.421242, 0.055110, 0.358387, 25.542633, -133.004379, 108.353958, 13.727750, 100.772295
1759315578.798821, 1.093701, 6.188562, 1.283142, -0.996034, -0.607668, 0.017894, 25.723190, -133.698715, 108.295837, 13.727750, 100.772295
1759315578.819209, 0.519542, 5.929240, 1.315913, -0.769967, -0.667268, -0.103193, 25.862167, -134.251144, 108.855804, 13.727750, 100.772295
1759315578.839209, 0.418985, 8.765621, -0.097264, -0.303772, -0.204375, -0.159282, 26.174026, -134.710205, 108.403610, 13.727750, 100.772295
1759315578.859203, 0.691026, 13.134590, -4.633828, 1.732195, 0.351650, -0.185705, 26.108475, -134.171112, 109.365814, 13.727750, 100.772295
1759315578.879178, 0.483180, 11.784111, -6.999299, 2.356316, 0.839589, -0.400207, 25.924286, -132.778992, 108.507385, 13.727750, 100.772295
1759315578.898671, -0.044742, 4.954052, -4.072387, 0.894362, 0.925480, -0.432791, 24.799728, -131.972656, 107.958511, 13.727750, 100.772295
1759315578.919206, -0.345813, 1.181389, -0.403124, 0.837822, 1.758051, -0.855603, 23.390305, -131.551712, 108.328522, 13.727750, 100.772295
1759315578.938493, -0.035913, 1.864485, 0.989553, 0.767570, 1.858582, -1.079964, 22.140793, -131.712158, 106.940369, 13.727750, 100.772295
1759315578.959188, 0.678307, 6.345233, 1.339257, 1.017871, 1.026341, -0.535008, 21.518539, -131.660980, 106.532715, 13.727750, 100.772295
1759315578.978394, 2.245761, 9.626935, -0.577751, 0.664706, 0.199037, -0.442894, 21.750259, -131.851547, 106.513641, 13.727750, 100.772295
1759315578.998509, 4.141969, 11.196035, -4.000861, 0.582591, -0.355291, -0.452598, 21.613220, -131.796326, 106.872360, 13.727750, 100.772295
1759315579.019193, 4.110096, 8.617181, -2.354997, 0.455333, -0.362144, -0.165404, 21.787659, -131.485413, 107.288788, 13.727750, 100.772295
1759315579.039206, 4.286668, 8.591593, -4.375852, 0.575022, -0.143435, -0.105924, 22.020279, -131.503799, 107.096436, 13.727750, 100.772295
1759315579.059201, 3.912126, 11.653777, -2.936339, 0.337721, -0.465253, -0.204785, 22.233887, -131.374420, 106.875397, 13.727750, 100.772295
1759315579.078702, 2.431461, 11.842170, -2.861221, 0.848348, -0.818768, -0.014104, 22.542480, -130.938248, 108.158981, 13.727750, 100.772295
1759315579.098341, 0.772729, 11.114333, -2.059612, 1.301516, -1.178829, 0.124880, 23.191086, -129.860092, 108.095917, 13.727750, 100.772295
1759315579.119195, -0.949900, 11.953351, -4.719271, 2.229672, -1.163527, 0.023285, 23.989075, -128.237198, 108.636398, 13.727750, 100.772295
1759315579.139193, -1.803732, 13.478308, -5.672163, 2.913126, -0.333433, -0.191483, 23.994537, -126.773331, 108.137131, 13.727750, 100.772295
1759315579.159186, -2.278532, 13.819033, -5.205743, 2.432328, 0.607690, -0.285300, 23.648956, -125.480530, 107.698120, 13.727750, 100.772295
1759315579.179166, -1.253215, 17.219248, -2.364873, 1.633914, 0.388828, -0.086581, 23.854385, -124.862259, 107.713486, 13.727750, 100.772295
1759315579.199179, -1.229871, 21.452047, -1.198597, 1.080018, -2.231732, 0.837173, 25.465927, -123.362076, 107.970505, 13.727750, 100.772295
1759315579.219199, -1.132158, 13.592930, -4.214992, 1.500704, -2.714364, 1.077785, 26.601273, -122.410492, 109.051239, 13.727750, 100.772295
1759315579.239191, -1.535132, 8.696788, -5.566519, 1.068497, -1.174200, 0.799449, 27.562729, -121.100876, 108.778549, 13.727750, 100.772295
1759315579.259190, -1.635838, 6.177040, -4.696077, 0.537819, -0.138912, 0.461088, 27.752960, -120.477737, 109.259506, 13.727750, 100.772295
1759315579.279166, -0.782006, 5.477185, -3.205836, 0.061260, -0.063390, 0.262709, 27.808014, -119.920639, 108.808426, 13.727750, 100.772295
1759315579.299195, -0.002394, 4.573524, -2.327164, -0.280377, -0.063051, 0.240472, 27.703766, -119.904846, 108.783142, 13.727750, 100.772295
1759315579.319191, 0.060903, 2.801964, -0.981623, -0.573089, 0.042565, 0.025281, 27.569763, -120.255493, 109.608047, 13.727750, 100.772295
1759315579.339193, -0.157718, 3.442862, -0.729783, -0.712448, -0.093512, -0.291173, 27.650101, -121.017029, 109.452560, 13.727750, 100.772295
1759315579.359193, -0.216077, 6.126612, -2.584990, -0.994372, -0.134548, -0.235141, 27.888397, -121.604813, 110.498169, 13.727750, 100.772295
1759315579.379173, -1.021426, 7.299472, -3.950283, -1.494099, -0.102372, -0.173484, 27.783463, -122.890747, 110.228500, 13.727750, 100.772295
1759315579.399193, -1.735647, 6.814347, -3.671508, -1.779950, 0.307362, -0.223545, 27.416946, -124.226105, 110.963425, 13.727750, 100.772295
1759315579.419186, -1.362600, 6.479458, -2.907459, -1.937804, 0.650239, -0.168620, 26.573395, -125.593414, 111.733597, 13.727750, 100.772295
1759315579.439207, -0.276830, 6.183475, -2.306065, -2.152476, 0.922847, 0.004263, 25.770187, -127.333496, 111.285172, 13.727750, 100.772295
1759315579.459193, 0.156222, 6.848464, -1.999308, -2.411398, 0.871361, 0.179032, 25.205017, -128.933212, 111.617676, 13.727750, 100.772295
1759315579.478703, 0.344615, 7.602787, -1.554435, -2.453664, 0.534529, 0.440793, 24.865753, -130.448395, 112.132858, 13.727750, 100.772295
1759315579.499217, 0.717662, 6.975058, -0.805200, -1.952013, -0.326798, 0.915293, 24.876373, -131.867447, 112.202164, 13.727750, 100.772295
1759315579.519167, 0.540341, 5.725284, -0.940173, -1.521167, -0.636976, 0.952162, 25.370605, -132.904663, 113.266739, 13.727750, 100.772295
1759315579.539171, 1.023671, 7.769035, -2.060809, -0.770417, -0.925983, 0.613073, 25.971680, -133.645035, 113.114716, 13.727750, 100.772295
1759315579.559173, 1.553538, 10.554539, -4.239832, -0.276229, -0.416448, 0.469081, 26.687851, -134.113190, 113.339386, 13.727750, 100.772295
1759315579.579168, 0.859069, 11.780669, -4.700117, -0.429769, 0.369805, 0.600926, 26.348984, -134.271622, 114.208160, 13.727750, 100.772295
1759315579.599175, -1.386841, 9.315988, -5.627122, -0.203237, -0.185412, 0.634552, 26.003281, -134.434692, 113.271179, 13.727750, 100.772295
1759315579.618535, -2.250101, 7.622540, -5.697302, -0.184582, -0.662633, 0.464518, 26.325424, -134.234802, 114.756088, 13.727750, 100.772295
1759315579.639176, -1.808969, 7.341670, -4.673182, 0.222524, 0.127478, -0.076290, 26.430588, -134.242966, 114.025146, 13.727750, 100.772295
1759315579.658965, -0.155025, 11.392659, -2.948609, -0.346287, 1.601989, -0.119743, 25.300858, -135.015930, 113.936951, 13.727750, 100.772295
1759315579.679167, 1.123329, 18.243817, 0.200664, -1.183133, 2.352220, 0.108422, 23.607452, -135.888107, 113.683075, 13.727750, 100.772295
1759315579.699173, 3.266439, 27.131841, 6.522853, -0.971016, 1.386229, 0.198490, 22.536682, -136.980438, 112.854813, 13.727750, 100.772295
1759315579.718752, 4.278139, 26.249578, 7.537994, 0.333123, -0.548243, -0.152764, 22.437592, -136.760681, 113.512360, 13.727750, 100.772295
1759315579.739181, 3.593697, 17.023821, 4.236540, 0.312035, -2.430091, -0.294326, 23.444061, -136.221878, 113.782700, 13.727750, 100.772295
1759315579.759186, 2.033276, 9.381978, -0.119860, -0.117206, -2.372871, -0.290421, 25.091949, -135.839859, 115.356171, 13.727750, 100.772295
1759315579.779165, 1.227777, 5.181651, -1.219546, -0.303153, -1.559293, -0.092791, 26.496948, -135.865997, 115.635162, 13.727750, 100.772295
1759315579.799242, 0.700154, 2.709039, -1.323844, -0.303360, -0.687244, 0.144056, 27.490234, -135.865326, 115.654541, 13.727750, 100.772295
1759315579.819164, 0.141856, 2.480692, -1.149217, -0.160493, 0.302349, 0.359389, 27.656036, -135.689072, 116.221359, 13.727750, 100.772295
1759315579.839181, 0.319327, 5.903952, -0.662296, -0.289478, 1.118883, 0.494853, 27.224136, -136.061935, 115.331879, 13.727750, 100.772295
1759315579.859186, 0.452354, 8.548647, -0.291793, -0.639357, 1.736351, 0.468560, 25.751862, -136.351273, 115.689636, 13.727750, 100.772295
1759315579.879157, 0.178069, 8.261043, 0.111779, -0.232091, 1.439137, 0.001305, 24.338104, -136.780258, 114.889374, 13.727750, 100.772295
1759315579.899189, 0.871489, 7.632116, -0.024541, 0.327071, 0.438644, -0.354360, 23.710632, -136.832321, 114.643295, 13.727750, 100.772295
1759315579.919181, 1.496526, 9.013870, -2.562394, 0.771801, -0.334639, -0.343269, 23.968628, -136.476669, 115.249542, 13.727750, 100.772295
1759315579.939172, 2.021754, 11.169998, -6.493973, 2.360923, -0.870263, -0.298043, 24.633148, -135.481186, 115.158859, 13.727750, 100.772295
1759315579.959188, 1.547851, 9.643994, -8.209717, 1.844378, -0.968721, -0.404004, 25.544220, -133.713669, 115.532089, 13.727750, 100.772295
1759315579.978546, -0.505177, 5.568015, -5.161600, 0.915505, 0.371983, -0.731907, 25.107498, -132.666031, 116.477432, 13.727750, 100.772295
1759315579.999185, -0.317980, 2.860921, -0.903961, 0.247513, 1.648484, -1.174826, 23.489578, -132.675812, 115.516281, 13.727750, 100.772295
1759315580.019182, 0.472406, 3.383306, 0.816572, 0.256898, 1.642457, -1.125613, 21.935562, -132.850861, 115.515427, 13.727750, 100.772295
1759315580.039184, 1.590049, 7.401226, 0.611569, 0.700677, 0.702982, -0.623810, 21.422028, -132.840134, 114.802460, 13.727750, 100.772295
1759315580.059187, 2.748244, 10.129867, -1.609053, 1.094847, 0.193479, -0.467126, 21.214127, -132.414047, 114.754562, 13.727750, 100.772295
1759315580.079155, 3.410091, 9.350555, -5.108777, 0.519462, -0.326454, -0.560185, 21.187866, -132.223404, 115.571533, 13.727750, 100.772295
1759315580.099181, 3.198354, 8.344691, -5.099051, 0.225173, 0.213046, -0.348255, 20.943390, -132.117020, 115.159363, 13.727750, 100.772295
1759315580.119185, 3.195960, 8.215703, -1.340753, 0.136692, 0.686277, -0.249962, 20.161682, -131.881042, 115.975906, 13.727750, 100.772295
1759315580.139178, 2.231246, 9.709685, 0.032172, 0.169927, 0.237863, -0.201375, 19.735123, -131.726776, 114.945114, 13.727750, 100.772295
1759315580.158956, 0.993145, 11.844265, -1.607258, 1.658752, -0.494668, -0.099898, 20.370880, -130.874634, 115.611191, 13.727750, 100.772295
1759315580.179154, 0.610671, 13.941736, -4.300884, 1.959534, -1.036189, 0.082531, 21.199860, -129.357864, 116.593460, 13.727750, 100.772295
1759315580.199180, 1.610101, 13.175591, -5.941511, 1.624910, -0.516950, 0.137188, 21.448059, -127.612213, 116.307404, 13.727750, 100.772295
1759315580.218175, 1.037138, 14.060997, -5.206790, 1.439633, 0.533207, 0.169675, 21.379242, -127.057541, 116.107925, 13.727750, 100.772295
1759315580.238992, 1.322497, 19.603723, -4.222025, 1.652544, 0.654526, 0.244626, 20.870880, -125.558365, 115.400543, 13.727750, 100.772295
1759315580.258671, -0.688932, 23.082797, -5.355979, 1.688306, -0.566062, 1.184925, 21.007462, -123.843521, 115.701263, 13.727750, 100.772295
1759315580.279146, -1.691354, 13.578565, -4.536863, 0.756434, -1.557164, 1.314126, 21.955017, -121.715561, 115.496841, 13.727750, 100.772295
1759315580.299182, -2.287061, 8.052748, -3.550152, -0.000571, -1.286213, 0.781210, 23.293701, -120.511734, 116.089066, 13.727750, 100.772295
1759315580.318277, -1.695843, 4.768502, -1.732205, 0.162041, -1.155882, 0.347583, 24.260254, -119.886780, 117.244308, 13.727750, 100.772295
1759315580.339181, -1.332074, 4.905719, -2.810643, 0.132980, -0.619423, 0.075668, 25.087601, -119.602844, 116.941055, 13.727750, 100.772295
1759315580.359175, -0.273837, 4.827010, -2.729689, 0.125561, 0.434063, -0.056853, 25.100235, -119.205109, 117.617661, 13.727750, 100.772295
1759315580.379093, 0.259771, 4.947468, -0.165798, -0.135024, 0.420802, -0.281775, 24.321320, -118.999512, 116.447922, 13.727750, 100.772295
1759315580.399049, 0.223708, 7.782801, -0.387861, -0.400787, -0.322859, -0.179759, 24.477737, -119.525162, 116.893234, 13.727750, 100.772295
1759315580.418894, 0.655712, 9.183110, -1.688361, -0.511276, -1.028332, 0.217025, 25.219269, -119.701050, 117.982849, 13.727750, 100.772295
1759315580.439176, 0.567725, 7.971943, -2.914641, -0.578502, -1.176287, 0.361712, 26.389572, -120.045654, 118.202347, 13.727750, 100.772295
1759315580.459179, -0.798915, 6.365284, -3.133112, -0.678430, -0.755026, 0.509803, 27.123016, -120.102402, 118.452118, 13.727750, 100.772295
1759315580.479151, -1.635539, 5.720197, -2.300229, -0.839607, -0.332684, 0.440282, 27.372040, -120.375320, 119.396103, 13.727750, 100.772295
1759315580.498856, -1.159392, 6.010344, -2.137723, -1.084594, -0.026591, 0.235211, 27.752548, -121.185471, 119.536072, 13.727750, 100.772295
1759315580.519213, -0.342820, 6.876746, -2.168847, -1.377988, 0.267065, 0.169622, 27.494232, -122.123383, 120.861374, 13.727750, 100.772295
1759315580.539177, 0.161309, 8.157793, -2.180519, -1.648730, 0.351585, 0.314823, 27.166519, -123.496506, 121.066681, 13.727750, 100.772295
1759315580.558626, 0.374693, 9.114576, -2.199673, -1.746711, 0.271044, 0.481717, 27.160522, -124.879578, 120.938416, 13.727750, 100.772295
1759315580.579149, 0.422277, 8.640225, -1.980454, -1.651452, 0.043513, 0.631284, 26.779205, -125.969025, 122.112289, 13.727750, 100.772295
1759315580.599044, 0.169090, 7.384466, -2.583793, -1.334799, -0.198801, 0.513050, 27.055252, -127.098465, 122.102081, 13.727750, 100.772295
1759315580.619165, -0.050129, 6.983288, -3.269432, -0.806298, -0.800671, 0.035094, 27.775177, -127.731033, 123.679886, 13.727750, 100.772295
1759315580.639175, 0.492906, 8.456320, -5.165340, 0.032005, -1.485082, -0.084294, 29.160599, -127.719864, 123.268097, 13.727750, 100.772295
1759315580.659162, 1.149965, 10.238953, -7.480384, 1.298465, -0.829302, 0.266147, 30.044785, -126.241241, 123.520569, 13.727750, 100.772295
1759315580.679147, 0.668730, 9.276933, -6.812701, 1.562449, 0.617569, 0.493061, 29.485931, -124.807510, 123.848984, 13.727750, 100.772295
1759315580.698668, 0.293739, 6.418106, -4.870854, 0.243046, 0.765137, 0.398612, 28.878799, -124.172379, 123.471619, 13.727750, 100.772295
1759315580.719156, -0.571765, 3.848530, -3.811868, -0.473132, -0.686671, 0.037286, 29.693039, -124.380554, 125.075699, 13.727750, 100.772295
1759315580.739172, -0.041899, 5.197961, -4.012832, -0.481214, -0.991123, -0.111460, 29.941589, -124.264755, 124.511551, 13.727750, 100.772295
1759315580.759173, 1.015291, 5.771971, -2.373851, -0.430425, -0.778907, 0.078743, 30.737366, -124.319717, 125.831009, 13.727750, 100.772295
1759315580.778671, 1.287183, 6.308272, -1.410484, -0.628467, -0.616629, 0.534648, 31.513992, -124.520599, 125.476501, 13.727750, 100.772295
1759315580.799167, 1.342698, 11.507431, -2.186505, -1.111301, -0.168566, 0.841040, 32.302490, -125.487823, 126.136230, 13.727750, 100.772295
1759315580.819151, 1.709610, 23.227048, -3.018639, -0.994379, -0.116716, 1.153296, 32.832687, -126.482254, 126.466415, 13.727750, 100.772295
1759315580.839170, 1.441609, 28.983158, -2.213888, -0.160317, -0.061537, 0.635611, 33.160095, -126.582550, 126.696640, 13.727750, 100.772295
1759315580.858840, 1.500117, 26.300156, 3.246388, -1.047797, 1.756631, -0.114347, 31.511047, -126.806442, 127.479935, 13.727750, 100.772295
1759315580.878995, 1.796100, 20.719421, 6.711247, -0.420444, 1.278563, -0.643293, 29.450150, -127.095062, 126.589905, 13.727750, 100.772295
1759315580.898230, 0.444424, 11.722161, 3.544316, 0.330166, 0.466968, -0.826157, 28.431274, -126.565781, 126.409195, 13.727750, 100.772295
1759315580.919166, -0.190788, 5.563825, 1.748216, 0.793905, 0.067665, -0.851017, 28.087646, -125.930710, 127.056763, 13.727750, 100.772295
1759315580.939178, -0.207697, 2.060360, 0.497096, 0.869121, 0.069635, -0.782919, 28.100204, -125.089279, 126.232330, 13.727750, 100.772295
1759315580.958714, 0.275333, 2.555361, 0.433201, 0.594175, 0.231653, -0.426447, 28.028778, -124.500305, 125.875366, 13.727750, 100.772295
1759315580.978840, 0.767491, 6.241983, 1.350629, -0.014303, 0.201462, 0.149640, 27.645157, -124.493042, 125.957413, 13.727750, 100.772295
1759315580.999171, 1.206079, 9.216779, 1.475427, -0.971055, 0.372450, 0.306960, 27.591705, -125.395096, 125.624680, 13.727750, 100.772295
1759315581.018596, 1.929727, 10.511892, 2.358139, -1.409290, 0.317519, 0.194510, 27.294296, -126.430847, 126.896790, 13.727750, 100.772295
1759315581.039170, 2.018761, 9.440337, 1.694945, -1.129964, -0.120549, 0.146120, 27.269745, -127.581284, 126.565643, 13.727750, 100.772295
1759315581.058531, 1.734749, 8.331523, 0.566079, -0.954688, -0.448130, 0.181254, 27.743393, -128.436111, 126.535187, 13.727750, 100.772295
1759315581.078682, 1.675043, 8.636634, -0.183007, -1.101560, -0.579165, 0.198163, 28.550629, -129.484009, 127.784454, 13.727750, 100.772295
1759315581.099172, 1.793107, 10.975469, -0.434697, -1.414449, -0.518806, 0.227631, 28.827164, -131.243729, 127.438721, 13.727750, 100.772295
1759315581.118588, 1.954566, 13.107506, -0.515352, -1.725091, -0.319398, 0.297194, 29.275772, -132.379272, 128.345795, 13.727750, 100.772295
1759315581.139215, 2.176928, 13.063662, -7.499388, 0.780392, -0.182463, 0.246363, 29.529602, -131.711884, 127.491806, 13.727750, 100.772295
1759315581.159165, 1.590648, 9.721207, -7.630770, 1.152765, 0.295412, -0.107621, 29.181763, -130.773193, 127.561264, 13.727750, 100.772295
1759315581.178526, 0.547973, 7.727286, -1.899500, -1.081768, -0.031958, -0.164978, 28.951126, -131.569855, 127.871445, 13.727750, 100.772295
1759315581.199165, 0.852336, 7.759159, 1.048511, -0.342422, 0.313318, -0.220960, 28.487854, -131.807556, 128.086349, 13.727750, 100.772295
1759315581.219144, 1.151611, 9.465027, 1.549497, 0.439739, 0.936763, -0.362484, 27.794098, -131.311966, 128.120438, 13.727750, 100.772295
1759315581.239182, 0.979079, 12.360665, 2.597410, 0.356464, 0.634730, -0.194070, 27.254822, -131.189392, 127.076813, 13.727750, 100.772295
1759315581.258223, 1.488745, 12.418874, 3.309236, -0.218496, -0.472113, 0.090819, 27.169952, -130.918350, 127.829178, 13.727750, 100.772295
1759315581.278371, 1.547702, 8.871714, 2.111686, -0.480793, -1.409626, 0.171392, 28.523590, -131.145218, 127.356094, 13.727750, 100.772295
1759315581.299171, 0.998981, 6.825570, 0.555604, -0.360171, -1.211122, 0.200534, 29.761536, -131.364304, 127.792648, 13.727750, 100.772295
1759315581.319165, 0.477494, 7.751826, -0.335637, -0.231476, -0.212916, 0.189258, 30.527222, -131.854523, 128.999344, 13.727750, 100.772295
1759315581.339165, -0.057461, 9.440786, 0.165499, -0.352909, 0.694946, 0.194810, 29.819275, -132.043884, 128.405548, 13.727750, 100.772295
1759315581.359165, -0.445471, 10.232668, 0.936582, -0.450781, 1.159364, 0.086062, 28.771942, -132.483017, 128.381226, 13.727750, 100.772295
1759315581.378217, -0.826748, 10.264691, 1.329829, -0.292811, 1.116157, 0.032281, 27.618561, -132.855728, 127.290085, 13.727750, 100.772295
1759315581.399168, -1.229273, 10.918607, 0.335188, 0.284405, 0.361527, -0.144731, 27.000015, -132.700378, 127.364853, 13.727750, 100.772295
1759315581.419166, -0.177171, 9.811738, -1.298106, 0.349684, -0.158208, -0.382532, 27.179840, -132.491501, 127.815353, 13.727750, 100.772295
1759315581.439163, 1.077091, 8.831013, -1.641674, 0.023655, 0.240381, -0.315853, 26.839859, -132.451904, 127.442261, 13.727750, 100.772295
1759315581.459161, 1.786523, 8.640375, 0.622941, -0.113225, 0.523923, -0.281989, 26.395264, -132.654419, 127.384933, 13.727750, 100.772295
1759315581.478841, 2.094926, 9.328707, 2.198625, -0.161492, 0.032543, -0.300013, 26.350525, -132.706161, 127.625977, 13.727750, 100.772295
1759315581.499162, 2.264915, 10.204237, 1.634940, -0.189812, -0.532153, -0.149794, 26.872086, -133.129135, 127.396225, 13.727750, 100.772295
1759315581.518258, 2.232892, 10.506655, 0.112677, -0.256180, -0.710940, 0.011331, 27.552353, -133.524094, 128.355576, 13.727750, 100.772295
1759315581.539167, 1.356166, 9.936835, -1.431433, -0.174464, -0.404195, 0.166036, 27.961487, -133.435760, 127.792099, 13.727750, 100.772295
1759315581.558635, 0.373495, 9.277980, -1.601422, 0.032779, -0.029111, 0.173481, 27.944824, -133.425705, 127.556732, 13.727750, 100.772295
1759315581.578686, 0.034267, 9.340529, -0.773477, 0.027613, 0.184434, 0.050022, 27.809265, -133.443192, 128.193375, 13.727750, 100.772295
1759315581.599160, 0.259771, 9.502736, 0.305859, -0.026630, 0.199509, -0.066583, 27.626205, -133.231644, 127.860779, 13.727750, 100.772295
1759315581.619161, 0.613664, 9.572168, 1.149516, -0.046025, -0.015077, -0.082711, 27.596176, -133.497803, 128.279816, 13.727750, 100.772295
1759315581.639164, 0.889147, 9.700407, 1.237802, -0.120503, -0.235911, -0.065590, 27.870132, -133.633972, 127.841843, 13.727750, 100.772295
1759315581.659157, 1.319055, 9.792734, 0.895880, -0.189092, -0.362089, -0.034959, 28.333664, -133.995758, 127.927383, 13.727750, 100.772295
1759315581.678528, 1.493084, 9.931448, 0.440533, -0.163591, -0.403381, 0.009996, 29.030014, -133.988907, 128.821365, 13.727750, 100.772295
1759315581.699153, 1.164929, 9.924864, 0.160112, -0.143066, -0.383173, 0.064570, 29.256027, -134.109009, 128.257812, 13.727750, 100.772295
1759315581.719159, 0.657208, 9.516203, 0.086491, -0.162569, -0.332413, 0.118181, 29.139282, -133.912125, 128.514664, 13.727750, 100.772295
1759315581.739158, 0.337582, 9.438990, 0.005237, -0.160432, -0.208070, 0.135427, 29.442215, -134.041397, 128.321457, 13.727750, 100.772295
1759315581.759155, 0.139911, 9.578752, 0.166846, -0.107400, -0.065751, 0.097054, 29.307266, -134.223129, 129.104385, 13.727750, 100.772295
1759315581.778265, 0.169240, 9.752032, 0.439935, -0.068013, -0.086529, 0.030544, 29.623077, -134.391724, 128.392670, 13.727750, 100.772295
1759315581.799156, 0.421978, 9.866056, 0.551564, -0.057171, -0.176047, -0.005162, 29.744888, -134.378098, 128.415955, 13.727750, 100.772295
1759315581.818273, 0.707936, 9.678411, 0.411204, -0.044479, -0.194477, 0.004579, 30.159271, -134.381454, 128.914154, 13.727750, 100.772295
1759315581.839160, 0.902764, 9.486426, 0.220117, -0.042635, -0.115171, 0.016779, 30.246094, -134.593292, 128.396240, 13.727750, 100.772295
1759315581.859155, 0.871340, 9.600150, 0.310498, -0.058202, -0.057897, 0.029287, 30.344879, -134.345459, 129.223679, 13.727750, 100.772295
1759315581.878820, 0.803704, 9.589077, 0.474351, -0.042979, -0.094693, 0.023613, 30.322266, -134.501434, 128.827194, 13.727750, 100.772295
1759315581.899169, 0.762404, 9.629928, 0.452654, -0.047203, -0.082615, 0.025888, 30.451828, -134.776550, 128.929749, 13.727750, 100.772295
1759315581.918920, 0.784400, 9.499594, 0.618003, -0.085878, -0.028240, 0.023566, 30.418350, -134.733322, 129.307159, 13.727750, 100.772295
1759315581.939160, 0.866701, 9.471312, 0.821062, -0.120277, -0.060059, 0.024340, 30.602554, -134.587006, 128.467545, 13.727750, 100.772295
1759315581.959157, 0.952144, 9.532963, 0.606182, -0.127327, -0.094304, 0.028488, 30.540192, -134.772766, 128.468658, 13.727750, 100.772295
1759315581.979130, 1.020828, 9.423278, 0.426467, -0.118481, -0.033688, 0.029048, 30.504929, -134.875214, 128.913177, 13.727750, 100.772295
1759315581.999158, 1.071705, 9.602395, 0.469114, -0.120444, -0.015519, 0.024768, 30.749756, -135.033066, 128.934113, 13.727750, 100.772295
1759315582.019155, 1.100136, 9.758317, 0.600945, -0.107383, -0.076999, 0.021569, 30.697388, -135.188721, 129.655640, 13.727750, 100.772295
1759315582.039157, 1.102680, 9.701455, 0.554258, -0.114089, -0.137510, 0.016753, 30.858536, -135.263336, 128.937057, 13.727750, 100.772295
1759315582.059155, 1.089960, 9.582942, 0.437840, -0.141495, -0.104692, 0.024358, 30.956314, -135.371262, 128.892151, 13.727750, 100.772295
1759315582.078665, 1.198747, 9.443330, 0.463727, -0.168652, -0.055714, 0.018980, 31.149124, -135.515564, 129.598145, 13.727750, 100.772295
1759315582.099002, 1.383400, 9.303419, 0.544531, -0.171333, -0.107015, 0.008430, 31.176865, -135.836746, 128.784943, 13.727750, 100.772295
1759315582.119162, 1.510292, 9.575460, 0.496946, -0.185121, -0.204159, 0.001201, 31.401062, -136.027237, 129.767746, 13.727750, 100.772295
1759315582.139203, 1.538275, 9.872640, 0.475698, -0.216050, -0.275641, 0.015342, 31.796997, -136.277695, 128.953339, 13.727750, 100.772295
1759315582.159151, 1.609951, 9.728090, 0.416890, -0.214411, -0.341280, 0.042869, 32.108597, -136.596069, 129.357101, 13.727750, 100.772295
1759315582.179128, 1.698387, 9.916035, 0.327407, -0.226576, -0.367825, 0.056651, 32.571106, -136.659424, 129.707397, 13.727750, 100.772295
1759315582.199152, 1.671153, 9.677513, 0.181510, -0.211216, -0.392465, 0.058842, 32.856598, -136.739716, 129.416809, 13.727750, 100.772295
1759315582.219135, 1.458518, 9.579949, 0.023343, -0.109235, -0.400447, 0.090214, 33.229095, -136.805496, 129.605606, 13.727750, 100.772295
1759315582.239161, 1.295113, 10.144681, 0.026187, -0.065476, -0.271733, 0.140107, 33.267990, -136.685577, 129.008713, 13.727750, 100.772295
1759315582.259155, 1.155053, 10.007464, 0.206949, -0.110830, -0.058998, 0.188256, 33.331787, -136.696259, 130.093887, 13.727750, 100.772295
1759315582.279132, 0.994043, 9.438691, 0.482731, -0.129326, 0.057473, 0.201642, 33.363388, -136.736404, 129.199005, 13.727750, 100.772295
1759315582.299159, 0.863409, 9.426122, 0.807594, -0.111383, 0.030468, 0.164964, 33.296005, -136.768570, 129.291306, 13.727750, 100.772295
1759315582.319165, 0.976086, 9.590573, 0.941370, -0.130820, -0.094521, 0.083704, 33.514908, -136.836548, 130.008636, 13.727750, 100.772295
1759315582.339165, 1.202488, 9.501988, 0.952294, -0.104306, -0.293841, 0.027543, 33.954971, -136.920105, 129.671753, 13.727750, 100.772295
1759315582.359151, 1.521665, 9.753828, 0.896479, -0.049520, -0.443886, 0.015938, 34.257309, -136.910675, 129.847427, 13.727750, 100.772295
1759315582.379128, 1.649755, 9.637260, 0.736367, -0.051043, -0.531234, 0.027267, 34.881989, -137.090851, 129.648651, 13.727750, 100.772295
1759315582.399154, 1.735647, 9.518149, 0.330400, -0.113532, -0.438635, 0.005960, 35.522690, -137.181305, 129.784271, 13.727750, 100.772295
1759315582.419154, 1.834108, 9.690681, 0.266804, -0.132220, -0.236887, -0.014578, 35.691956, -137.100235, 130.578796, 13.727750, 100.772295
1759315582.439155, 1.984943, 9.845107, 0.448015, -0.121489, -0.111304, -0.040901, 35.750717, -137.392349, 129.684036, 13.727750, 100.772295
1759315582.458968, 2.020706, 9.619453, 0.694019, -0.091391, -0.190625, -0.067696, 36.037308, -137.229660, 129.953537, 13.727735, 100.772284
1759315582.479002, 2.082357, 9.421034, 0.826000, -0.093886, -0.525259, -0.077454, 36.427521, -137.329559, 129.919235, 13.727735, 100.772284
1759315582.499157, 2.136825, 9.596409, 0.811634, -0.105694, -0.626308, -0.080045, 37.102646, -137.346207, 129.747208, 13.727735, 100.772284
1759315582.519148, 2.287660, 9.786150, 0.822558, -0.127923, -0.807477, -0.091213, 38.269745, -137.446518, 130.445267, 13.727735, 100.772284
1759315582.538806, 2.359186, 9.636063, 0.594660, -0.151909, -0.930579, -0.127418, 39.149918, -137.378342, 129.794373, 13.727735, 100.772284
1759315582.559146, 2.294393, 9.408764, 0.368408, -0.201314, -0.927379, -0.127987, 40.279373, -137.536774, 129.900497, 13.727735, 100.772284
1759315582.579130, 2.379388, 9.360880, 0.435894, -0.230550, -0.850441, -0.153041, 41.280685, -137.788925, 130.538147, 13.727735, 100.772284
1759315582.599084, 2.319981, 9.558850, 0.427215, -0.212567, -0.836902, -0.147785, 42.162888, -137.841583, 129.995239, 13.727735, 100.772284
1759315582.619144, 2.283769, 9.668684, 0.524181, -0.204126, -0.872005, -0.152097, 43.284988, -138.037231, 130.987259, 13.727735, 100.772284
1759315582.639137, 2.021604, 9.509470, 0.736516, -0.248093, -0.961551, -0.146607, 44.438721, -138.227814, 130.156204, 13.727735, 100.772284
1759315582.658283, 1.928978, 9.289951, 0.720655, -0.283452, -1.005557, -0.150320, 45.595505, -138.350571, 130.018707, 13.727735, 100.772284
1759315582.678629, 1.731307, 8.917952, 0.650774, -0.346528, -1.064271, -0.184509, 46.107590, -138.267029, 130.012695, 13.727735, 100.772284
1759315582.699137, 1.732055, 8.867375, 0.284461, -0.334943, -1.132073, -0.296550, 47.932831, -138.746826, 130.366714, 13.727735, 100.772284
1759315582.719128, 1.936610, 9.219622, 0.140659, -0.286755, -1.047042, -0.346047, 49.325165, -138.673630, 129.737228, 13.727735, 100.772284
1759315582.739130, 1.979705, 9.528324, 0.173131, -0.241144, -0.878119, -0.347596, 49.635437, -138.696777, 129.637268, 13.727735, 100.772284
1759315582.759150, 1.798494, 9.562142, 0.056563, -0.268178, -0.751782, -0.321171, 50.518372, -138.684082, 129.695175, 13.727735, 100.772284
1759315582.778467, 1.631200, 9.523087, -0.321122, -0.243619, -0.634135, -0.334010, 51.194931, -138.641617, 128.983017, 13.727735, 100.772284
1759315582.799142, 1.450587, 9.341876, -0.644788, -0.118788, -0.522840, -0.395660, 51.807617, -138.615891, 128.870056, 13.727735, 100.772284
1759315582.819151, 1.525555, 9.382727, -0.646734, -0.041718, -0.455738, -0.482915, 52.734131, -138.519974, 130.050308, 13.727735, 100.772284
1759315582.839144, 1.829619, 9.157971, -0.951845, 0.130649, -0.430046, -0.570700, 53.150375, -138.333740, 129.439362, 13.727735, 100.772284
1759315582.859126, 2.066046, 10.029610, -1.054945, 0.442245, -0.344634, -0.606832, 53.414368, -137.515808, 129.889099, 13.727735, 100.772284
1759315582.878317, 2.426224, 11.686098, 0.612018, 0.719545, -0.420792, -0.635374, 53.764175, -136.628662, 129.105499, 13.727735, 100.772284
1759315582.899181, 2.605939, 13.303830, 1.590199, 0.832584, -0.746051, -0.665743, 54.626816, -135.347977, 128.837997, 13.727735, 100.772284
1759315582.919147, 2.667141, 11.605893, 0.760009, 0.941147, -1.239888, -0.572432, 55.730255, -133.890671, 129.335449, 13.727735, 100.772284
1759315582.938819, 2.277335, 9.015965, -0.093374, 1.338134, -1.676792, -0.653698, 57.140579, -132.148895, 128.288406, 13.727735, 100.772284
1759315582.958956, 1.199495, 6.972963, 0.130933, 1.446339, -1.821721, -0.788692, 58.920135, -130.089325, 127.621643, 13.727735, 100.772284
1759315582.978171, 0.376339, 7.691223, -0.971148, 1.754691, -1.638218, -0.735129, 60.790237, -127.988251, 127.256271, 13.727735, 100.772284
1759315582.999199, -0.058658, 9.964518, -1.451036, 2.184635, -1.071056, -0.473853, 62.085159, -125.474350, 126.366486, 13.727735, 100.772284
1759315583.019138, 0.042347, 12.490251, -1.194407, 2.116386, -0.316832, 0.029815, 62.674744, -123.084961, 125.966202, 13.727735, 100.772284
1759315583.038636, 0.651522, 12.864644, -1.280299, 1.908690, 0.385805, 0.484642, 62.358948, -121.096603, 125.054382, 13.727735, 100.772284
1759315583.058808, 1.455076, 11.216984, -0.208744, 1.791691, 0.850931, 0.408941, 61.473526, -118.999176, 125.123657, 13.727735, 100.772284
1759315583.079118, 2.033725, 10.044275, 1.112256, 1.663829, -0.100805, 0.373685, 61.333405, -117.509476, 124.883118, 13.727735, 100.772284
1759315583.099161, 1.945588, 9.682750, 1.278204, 1.425236, -0.936018, 0.421854, 62.496063, -116.002075, 123.448700, 13.727735, 100.772284
1759315583.119141, 1.955165, 8.959851, 1.451485, 1.298586, -2.172491, 0.622193, 64.644928, -114.844162, 122.630829, 13.727735, 100.772284
1759315583.139152, 1.815403, 9.412056, -0.449062, 1.204412, -2.958098, 0.884386, 67.421936, -114.060028, 120.665207, 13.727735, 100.772284
1759315583.158655, 1.935413, 10.421960, -1.998709, 1.219097, -2.418593, 1.261199, 70.024872, -113.590302, 118.434509, 13.727735, 100.772284
1759315583.179120, 1.892616, 10.150966, -1.353921, 1.029987, -1.821240, 1.502042, 72.243362, -113.278122, 117.549515, 13.727735, 100.772284
1759315583.199138, 1.689857, 9.129540, -0.556353, 0.722755, -1.843121, 1.528620, 74.046021, -113.506760, 115.710617, 13.727735, 100.772284
1759315583.219128, 1.122132, 8.107365, -0.464924, 0.429740, -2.295885, 1.304878, 76.274414, -113.698914, 114.392502, 13.727735, 100.772284
1759315583.239137, 0.169689, 7.048829, -1.318457, 0.180544, -2.459397, 0.895774, 77.325760, -113.697418, 112.862762, 13.727735, 100.772284
1759315583.258493, -0.638354, 6.674136, -1.628207, -0.068281, -2.150253, 0.470900, 79.090012, -114.079315, 111.642380, 13.727735, 100.772284
1759315583.279113, -1.205181, 6.831106, -1.770961, -0.291440, -1.583078, 0.071009, 80.520874, -114.291092, 109.732559, 13.727735, 100.772284
1759315583.299182, -1.901445, 7.061099, -1.571195, -0.463234, -1.018438, -0.319305, 81.379288, -114.443619, 109.096725, 13.727735, 100.772284
1759315583.319140, -2.398392, 7.787141, -1.057040, -0.649215, -0.924536, -0.518254, 81.754318, -114.323898, 108.946167, 13.727735, 100.772284
1759315583.339145, -2.893393, 8.169465, -1.351676, -0.694801, -0.943462, -0.553396, 81.839127, -114.253479, 108.278839, 13.727735, 100.772284
1759315583.358334, -3.220800, 8.899397, -1.846528, -0.677550, -0.984013, -0.375736, 82.324097, -114.110214, 108.514053, 13.727735, 100.772284
1759315583.378870, -3.397671, 9.829993, -2.766799, -0.779646, -1.093008, -0.183449, 83.106491, -114.352753, 107.248505, 13.727735, 100.772284
1759315583.399147, -3.410690, 10.174160, -3.859603, -0.901644, -1.368814, -0.254766, 83.678741, -114.340057, 106.148361, 13.727735, 100.772284
1759315583.419142, -3.092710, 9.582792, -5.969942, -0.830041, -1.706650, -0.470984, 84.411316, -114.378891, 106.356552, 13.727735, 100.772284
1759315583.439136, -1.184980, 9.311948, -7.836821, -0.561312, -1.062032, -0.652483, 84.912933, -114.035538, 104.498093, 13.727735, 100.772284
1759315583.458179, 1.691204, 10.227281, -7.735516, -0.522528, 0.101860, -0.095821, 84.939789, -113.924637, 104.700836, 13.727735, 100.772284
1759315583.478721, 2.681057, 10.372879, -5.715259, -0.776625, 1.313423, 1.154543, 84.239624, -114.610626, 105.844086, 13.727735, 100.772284
1759315583.498730, 3.140744, 8.833257, -2.763058, -0.645794, 1.564175, 1.725171, 83.681259, -116.160461, 107.113159, 13.727735, 100.772284
1759315583.519138, 4.582203, 7.473351, -2.949357, -0.417360, 0.698104, 1.421889, 83.152252, -117.406540, 108.476059, 13.727735, 100.772284
1759315583.539139, 4.841375, 11.258584, -1.793257, -0.597588, -0.388392, 0.555903, 83.795654, -118.357956, 108.070099, 13.727735, 100.772284
1759315583.559133, 2.691382, 18.453609, 1.031003, -0.968147, -0.890901, 0.011546, 84.068909, -118.904556, 107.442780, 13.727735, 100.772284
1759315583.578689, 0.688034, 15.561413, 1.630302, -1.221945, -1.151027, -0.082010, 84.436050, -119.074768, 107.518890, 13.727735, 100.772284
1759315583.599125, -0.202310, 8.158242, -0.181211, -0.432112, -1.236995, -0.110780, 84.846191, -118.920532, 106.437424, 13.727735, 100.772284
1759315583.618790, -0.339378, 5.008520, -0.197522, 0.204203, -1.231175, -0.191196, 85.279282, -118.512619, 105.859100, 13.727735, 100.772284
1759315583.639137, -0.297629, 4.467281, 0.414347, -0.117096, -1.369995, -0.120734, 85.845062, -118.048325, 104.452240, 13.727735, 100.772284
1759315583.659124, 0.745345, 6.336404, 1.265784, -0.251464, -1.565001, -0.150503, 86.600937, -117.967819, 102.883148, 13.727735, 100.772284
1759315583.679107, 1.605312, 10.799795, 2.558354, -0.071573, -2.092519, -0.092272, 87.766449, -117.919449, 101.622452, 13.727735, 100.772284
1759315583.699135, 1.987936, 13.545944, 2.977339, 0.155043, -2.785949, 0.089282, 88.895554, -117.781036, 98.327744, 13.727735, 100.772284
1759315583.719121, 1.153706, 11.897686, 1.224185, -0.074561, -2.839015, 0.521166, 90.033035, -118.349640, 95.832138, 13.727735, 100.772284
1759315583.738232, 0.210091, 9.569774, -0.323367, -0.634323, -1.767598, 0.876661, 90.516159, -118.582123, 94.973846, 13.727735, 100.772284
1759315583.759128, -0.442179, 8.515577, -0.319327, -1.078397, -0.467590, 0.987682, 90.964157, -119.828583, 95.039810, 13.727735, 100.772284
1759315583.779115, -0.398635, 8.553435, 0.559645, -1.187749, 0.233771, 0.915738, 90.949142, -121.158585, 94.645813, 13.727735, 100.772284
1759315583.799143, 0.097564, 8.423849, 1.056142, -1.160585, 0.081372, 0.685129, 91.211334, -122.055222, 95.463791, 13.727735, 100.772284
1759315583.819142, 0.419584, 8.082526, 0.888099, -1.187988, -0.408515, 0.370492, 91.188309, -123.010376, 95.975143, 13.727735, 100.772284
1759315583.839141, 0.655712, 8.846575, 0.672471, -1.317457, -1.022756, 0.205942, 91.650558, -123.703995, 94.486145, 13.727735, 100.772284
1759315583.859136, 0.104896, 9.157821, -0.712574, -0.209353, -2.793892, -0.240402, 92.389572, -123.564972, 93.344101, 13.727735, 100.772284
1759315583.878651, -0.089483, 10.253468, -2.455254, -0.124008, -3.874810, -0.490297, 93.360626, -123.296570, 88.884750, 13.727735, 100.772284
1759315583.899141, 0.588974, 10.398467, -3.471592, -0.962900, -3.063093, -0.114677, 94.005722, -123.133118, 86.107574, 13.727735, 100.772284
1759315583.919130, 0.800860, 9.658060, -2.000056, -1.281291, -1.749364, 0.252006, 94.313828, -123.270309, 84.692596, 13.727735, 100.772284
1759315583.939127, 0.988506, 8.863783, -0.405668, -1.086476, -0.908156, 0.169078, 94.496140, -123.391006, 83.459610, 13.727735, 100.772284
1759315583.959136, 1.298854, 8.953716, 0.771232, -0.698939, -0.634197, -0.142097, 94.254669, -123.419907, 83.011703, 13.727735, 100.772284
1759315583.979105, 1.767819, 9.458593, -0.053421, -0.362662, -0.683387, -0.201051, 94.508987, -123.321960, 82.416626, 13.727735, 100.772284
1759315583.999143, 1.802385, 8.913613, -2.863016, -0.818971, -0.346611, -0.133065, 94.347977, -123.041412, 82.578720, 13.727735, 100.772284
1759315584.019132, 1.508946, 9.420286, 0.601992, -0.040905, -0.426629, -0.077108, 94.480484, -122.774246, 82.826736, 13.727735, 100.772284
1759315584.039122, 0.823605, 10.962900, 1.603068, 0.390987, -0.799891, 0.084390, 94.639297, -122.767365, 81.285233, 13.727735, 100.772284
1759315584.059137, -0.777667, 10.436175, 0.456245, -0.291447, -0.420640, 0.412678, 94.529129, -123.178421, 81.334045, 13.727735, 100.772284
1759315584.079105, -0.900070, 9.714324, 2.205808, -0.726405, 0.098398, 0.331881, 94.502914, -123.218750, 82.106232, 13.727735, 100.772284
1759315584.099136, 0.065541, 10.948684, 3.362357, -0.293162, -0.772684, 0.267692, 94.431229, -123.503693, 81.230316, 13.727735, 100.772284
1759315584.119132, 1.627608, 12.779500, 0.369006, 0.348702, -1.520091, 0.019349, 94.754593, -123.312439, 80.050705, 13.727735, 100.772284
1759315584.139123, 2.309806, 12.161647, 1.074099, 0.511580, -1.233893, -0.166914, 94.532974, -122.935394, 78.033813, 13.727735, 100.772284
1759315584.159137, 2.384774, 11.412411, -0.113575, 0.842130, -0.840705, -0.404684, 94.178589, -122.383072, 77.211517, 13.727735, 100.772284
1759315584.179106, 2.261323, 11.433959, -0.099060, 1.095638, -0.452117, -0.508638, 93.943848, -121.878372, 77.105972, 13.727735, 100.772284
1759315584.199127, 1.395371, 10.789769, 0.080655, 1.325066, -0.385841, -0.513559, 93.827972, -121.042267, 76.092850, 13.727735, 100.772284
1759315584.219113, -0.458939, 8.476222, 0.864307, 1.416753, -0.812144, -0.721549, 93.055069, -120.282974, 75.318100, 13.727735, 100.772284
1759315584.239108, -1.592892, 7.221361, 0.286556, 1.629544, -1.144573, -1.109210, 92.946564, -119.104416, 72.823608, 13.727735, 100.772284
1759315584.259127, -1.691503, 8.597279, -1.051653, 1.819295, -0.680920, -1.030559, 92.701340, -118.592789, 73.102005, 13.727735, 100.772284
1759315584.279109, -1.160140, 10.488399, -1.142333, 1.883032, 0.313830, -0.397612, 92.578491, -118.102249, 71.768616, 13.727735, 100.772284
1759315584.299138, 0.628777, 10.874015, -0.353145, 1.749283, 1.095220, -0.017888, 92.438248, -118.271729, 72.045120, 13.727735, 100.772284
1759315584.319141, 1.832163, 12.246790, 0.502483, 1.590587, 1.369376, 0.278910, 92.174713, -118.459274, 73.302734, 13.727735, 100.772284
1759315584.339132, 2.341828, 11.444434, 1.124227, 1.556561, 0.904282, 0.458375, 92.285645, -118.848434, 73.223755, 13.727735, 100.772284
1759315584.359136, 2.569128, 10.311976, 2.131737, 1.433034, -0.308129, 0.338756, 92.148285, -119.249466, 73.783203, 13.727735, 100.772284
1759315584.379100, 1.546804, 9.432706, 0.952892, 1.250057, -1.431318, 0.238270, 92.193344, -119.858246, 71.276306, 13.727735, 100.772284
1759315584.399127, 0.500538, 8.683171, -0.713472, 1.084587, -1.687497, 0.373046, 91.918289, -120.305588, 69.318314, 13.727735, 100.772284
1759315584.419129, 0.113425, 8.214057, -0.922815, 0.725439, -1.623668, 0.455625, 91.659561, -120.925339, 67.961182, 13.727735, 100.772284
1759315584.439126, -0.097264, 8.266430, -0.787992, 0.257642, -1.523415, 0.444294, 91.389053, -121.244843, 65.682373, 13.727735, 100.772284
1759315584.459126, -0.316484, 8.483105, -0.813280, 0.068005, -1.741847, 0.454129, 90.937729, -121.697113, 64.027649, 13.727735, 100.772284
1759315584.479099, -0.246303, 8.407987, -1.135300, 0.039612, -1.996228, 0.582411, 90.653961, -122.205231, 62.188416, 13.727735, 100.772284
1759315584.499132, -0.148740, 7.578247, -1.557279, -0.210703, -2.052691, 0.591374, 90.160629, -122.674408, 60.614655, 13.727735, 100.772284
1759315584.518720, -0.181810, 8.091653, -1.453430, -0.731094, -2.192276, 0.489517, 89.351440, -123.123428, 59.084457, 13.727735, 100.772284
1759315584.539129, 0.091429, 9.050681, -1.363199, -1.212192, -2.378982, 0.512257, 88.616898, -123.187927, 56.700989, 13.727735, 100.772284
1759315584.558902, 0.364667, 9.539846, -1.153257, -1.544108, -2.244505, 0.528138, 87.885376, -123.082321, 54.660919, 13.727735, 100.772284
1759315584.579098, 0.737115, 9.897480, -0.608875, -1.684033, -2.130813, 0.562525, 86.887421, -122.515640, 53.610062, 13.727735, 100.772284
1759315584.599127, 0.659603, 9.496451, -1.489193, -1.277665, -2.193420, 0.577447, 85.884781, -122.576767, 51.855728, 13.727735, 100.772284
1759315584.619125, -0.696862, 9.022100, -2.377143, -0.706399, -2.289186, 0.354200, 84.846756, -122.489944, 50.495056, 13.727735, 100.772284
1759315584.639122, -1.515829, 9.017461, -2.092383, -0.553098, -2.795509, 0.214745, 83.292725, -122.259445, 47.786591, 13.727735, 100.772284
1759315584.659056, -1.213262, 9.048586, -2.162563, -0.573607, -2.756437, 0.049898, 81.734482, -121.869415, 45.580185, 13.727735, 100.772284
1759315584.679098, -0.560842, 10.767024, -1.603367, -0.506042, -2.076084, 0.089601, 80.458572, -121.665588, 44.506897, 13.727735, 100.772284
1759315584.699157, -0.241665, 11.744008, -1.393575, -0.162020, -1.758987, 0.310536, 79.516052, -121.971298, 42.802094, 13.727735, 100.772284
1759315584.719146, 0.009427, 10.922797, -2.219575, 0.273473, -1.469264, 0.402970, 78.411575, -122.427292, 42.472519, 13.727735, 100.772284
1759315584.739101, 0.768389, 9.423877, -1.463905, -0.012583, -1.198529, 0.408939, 77.540634, -122.636902, 40.975830, 13.727735, 100.772284
1759315584.758888, 1.203086, 9.921572, 0.982371, -0.624783, -1.642245, 0.571196, 77.013733, -122.514328, 40.947464, 13.727735, 100.772284
1759315584.779104, 0.851737, 8.892364, 1.878700, -0.796973, -2.406810, 0.553540, 75.323334, -122.218201, 39.445358, 13.727735, 100.772284
1759315584.799136, 0.285808, 8.714744, 1.199645, -0.625660, -2.686829, 0.238726, 73.040771, -122.068039, 37.882004, 13.727735, 100.772284
1759315584.819133, -0.294936, 9.114576, 0.557699, -0.208440, -1.936499, 0.101254, 71.662155, -121.880554, 37.263657, 13.727735, 100.772284
1759315584.839131, -0.221763, 8.754847, 0.951097, 0.038860, -1.091273, 0.220371, 70.899246, -122.287308, 35.769470, 13.727735, 100.772284
1759315584.858724, -0.527772, 9.659856, 0.887052, -0.168958, -0.279056, 0.336938, 70.581436, -122.214401, 36.182510, 13.727735, 100.772284
1759315584.878099, -0.613215, 10.619781, 1.659631, -0.543061, 0.566266, 0.314059, 71.132874, -121.893326, 35.643524, 13.727735, 100.772284
1759315584.899124, -0.553958, 10.509498, 2.084751, -0.716379, 0.617533, 0.343935, 71.730499, -121.537231, 36.515045, 13.727735, 100.772284
1759315584.919118, -0.266505, 10.311378, 1.544709, -0.699859, 0.292537, 0.334255, 72.214371, -121.177399, 37.526581, 13.727735, 100.772284
1759315584.938305, 0.099659, 9.939079, 0.809839, -0.831198, -0.061741, 0.157343, 72.186096, -120.524689, 37.096603, 13.727735, 100.772284
1759315584.958563, 0.425869, 9.890746, 0.490662, -1.076753, -0.390696, -0.030978, 71.780548, -119.643738, 37.101044, 13.727735, 100.772284
1759315584.978470, 1.232415, 10.765079, -1.026963, -0.146394, -1.672869, -0.032221, 70.463348, -119.619354, 36.218582, 13.727735, 100.772284
1759315584.998344, 0.921468, 10.203938, -3.154660, 1.238168, -3.004518, -0.073133, 68.062500, -120.725739, 34.374802, 13.727735, 100.772284
1759315585.019056, -0.744896, 9.488221, -2.631527, -0.370734, -2.227976, -0.114084, 66.184906, -120.167892, 34.067856, 13.727735, 100.772284
1759315585.039116, -0.432453, 9.298331, -1.589451, -1.360664, -1.176212, 0.083258, 65.223038, -119.164551, 32.950073, 13.727735, 100.772284
1759315585.058407, -0.288352, 10.164733, -1.166874, -0.807657, -0.232617, 0.095530, 64.665787, -118.463882, 33.354004, 13.727735, 100.772284
1759315585.078845, -0.125097, 10.366145, 0.343568, 0.121478, 0.726743, 0.042309, 65.479187, -118.514282, 34.602173, 13.727735, 100.772284
1759315585.099121, -0.270994, 9.163807, 1.047314, 0.644386, 1.194478, 0.086251, 66.758377, -119.300720, 33.984482, 13.727735, 100.772284
1759315585.118844, -0.594361, 9.273192, 1.168819, 0.708582, 1.274162, 0.034407, 67.937820, -119.748856, 35.634781, 13.727735, 100.772284
1759315585.139025, -0.826598, 9.693823, 1.282993, 0.461538, 1.123993, 0.045729, 68.728821, -120.234222, 34.686050, 13.727735, 100.772284
1759315585.158229, -0.497545, 9.411906, 1.319055, 0.052349, 0.769078, 0.039568, 69.174866, -120.053085, 35.789520, 13.727735, 100.772284
1759315585.178142, 0.222511, 9.171289, 1.381604, -0.276473, 0.283373, -0.060607, 69.293152, -119.623306, 36.533951, 13.727735, 100.772284
1759315585.199174, 0.660650, 9.585186, 1.354370, -0.383086, -0.289046, -0.090956, 68.815735, -119.337418, 35.575806, 13.727735, 100.772284
1759315585.219161, 0.899322, 10.057443, 1.033397, -0.371097, -0.731125, -0.081805, 68.177322, -119.054733, 35.537994, 13.727735, 100.772284
1759315585.238868, 1.032799, 9.999533, 0.571765, -0.324264, -0.945027, -0.072711, 67.768188, -118.735550, 35.427338, 13.727735, 100.772284
1759315585.258190, 1.066617, 9.582343, -0.062399, -0.295127, -0.862676, -0.034108, 66.991531, -118.470688, 35.732727, 13.727735, 100.772284
1759315585.278606, 1.123479, 9.630975, -1.349731, -0.057057, -0.492266, 0.064824, 66.417847, -118.492294, 34.204712, 13.727735, 100.772284
1759315585.299116, 0.713921, 9.808296, -2.029086, 0.452551, 0.033462, 0.066343, 66.466125, -118.821945, 34.281693, 13.727735, 100.772284
1759315585.318513, 0.125995, 9.645790, -1.221791, 0.115134, 0.532719, 0.052021, 66.873840, -118.892868, 35.107391, 13.727735, 100.772284
1759315585.338699, 0.090830, 9.415048, -0.312892, -0.219136, 0.557140, 0.142970, 67.479156, -118.826889, 34.694275, 13.727735, 100.772284
1759315585.359137, 0.231938, 9.624840, 0.396091, -0.133532, 0.305503, 0.069818, 67.609863, -118.706375, 35.969772, 13.727735, 100.772284
1759315585.379091, 0.410007, 9.812336, 0.766294, 0.038263, 0.092697, 0.040564, 67.661224, -118.911987, 35.253647, 13.727735, 100.772284
1759315585.399119, 0.602441, 9.544186, 0.712874, 0.123236, 0.000507, 0.033514, 67.869705, -118.815811, 34.875992, 13.727735, 100.772284
1759315585.418458, 0.594061, 9.649381, 0.497096, 0.097354, -0.002108, 0.049342, 67.762436, -118.941528, 35.423737, 13.727735, 100.772284
1759315585.438554, 0.563236, 9.504382, 0.362123, -0.016214, 0.018334, 0.078972, 67.900696, -118.876022, 35.045883, 13.727735, 100.772284
1759315585.459111, 0.408062, 9.606285, 0.311396, -0.064207, -0.001141, 0.098127, 67.814529, -118.759521, 34.737289, 13.727735, 100.772284
1759315585.478709, 0.140061, 9.615264, 0.036212, 0.028025, -0.056375, 0.084311, 67.922256, -118.983383, 35.591965, 13.727735, 100.772284
1759315585.499113, 0.039205, 9.620950, -0.142305, 0.003971, -0.011918, 0.055197, 67.874527, -119.077530, 34.945129, 13.727735, 100.772284
1759315585.518235, 0.189292, 9.733926, 0.002095, -0.080089, 0.031178, 0.031283, 67.822235, -119.137833, 35.639572, 13.727735, 100.772284
1759315585.538390, 0.413748, 9.778967, 0.199766, -0.055888, -0.028261, 0.017091, 67.885223, -118.914505, 34.726593, 13.727735, 100.772284
1759315585.559106, 0.623989, 9.687688, 0.285808, -0.046900, -0.072024, 0.008468, 67.546310, -118.811203, 34.807388, 13.727735, 100.772284
1759315585.579090, 0.708983, 9.589975, 0.346860, -0.060174, -0.169668, 0.035621, 67.589264, -118.790054, 35.602966, 13.727735, 100.772284
1759315585.599099, 0.640748, 9.611822, 0.233584, -0.039450, -0.238248, 0.048304, 67.429092, -118.928635, 34.604111, 13.727735, 100.772284
1759315585.619080, 0.563535, 9.643844, 0.161609, -0.021037, -0.231126, 0.060528, 67.437988, -118.924026, 35.345901, 13.727735, 100.772284
1759315585.638253, 0.338929, 9.754426, 0.037110, -0.008971, -0.211989, 0.074106, 67.264053, -118.846085, 34.346024, 13.727735, 100.772284
1759315585.659090, 0.336984, 9.659556, 0.034117, -0.037520, -0.096482, 0.055964, 66.952164, -118.831268, 34.633804, 13.727735, 100.772284
1759315585.679090, 0.337433, 9.561693, 0.290147, -0.074220, -0.090658, 0.051496, 67.029922, -118.817749, 34.978104, 13.727735, 100.772284
1759315585.699092, 0.243011, 9.648333, 0.377087, -0.071156, -0.151557, 0.056320, 66.934158, -118.804138, 34.156754, 13.727735, 100.772284
1759315585.718633, 0.217723, 9.837475, 0.279972, -0.059821, -0.173271, 0.064659, 66.849396, -118.777084, 34.898224, 13.727735, 100.772284
1759315585.738275, 0.307505, 9.746795, 0.020800, -0.045742, -0.120382, 0.076664, 66.747589, -118.834000, 34.121948, 13.727735, 100.772284
1759315585.759166, 0.429610, 9.547927, 0.003142, -0.004559, -0.009225, 0.082589, 66.671249, -118.600449, 34.720413, 13.727735, 100.772284
1759315585.778429, 0.455048, 9.549872, 0.001646, -0.018533, -0.004475, 0.076610, 66.933716, -118.798798, 34.132477, 13.727735, 100.772284
1759315585.799100, 0.399233, 9.550620, 0.409708, -0.068022, -0.057800, 0.083327, 66.595535, -118.708435, 34.107468, 13.727735, 100.772284
1759315585.818966, 0.332644, 9.719860, 0.594959, -0.073873, -0.107890, 0.083927, 66.737198, -118.681625, 34.718887, 13.727735, 100.772284
1759315585.839142, 0.341174, 9.682002, 0.594660, -0.033424, -0.113317, 0.075668, 66.648758, -118.839462, 34.406403, 13.727735, 100.772284
1759315585.859110, 0.278476, 9.635614, 0.334739, 0.004177, -0.061106, 0.070414, 66.696121, -118.660995, 34.716461, 13.727735, 100.772284
1759315585.879093, 0.152032, 9.579650, 0.357335, -0.035599, 0.005243, 0.056301, 66.480820, -118.806534, 34.623962, 13.727735, 100.772284
1759315585.898185, -0.012869, 9.472509, 0.352247, -0.071931, 0.002590, 0.040717, 66.628357, -118.656158, 34.412491, 13.727735, 100.772284
1759315585.918543, -0.062997, 9.575610, 0.192135, -0.018702, 0.073301, 0.046585, 66.643494, -118.515976, 34.779251, 13.727735, 100.772284
1759315585.938540, 0.123750, 9.467571, 0.214281, -0.033496, 0.197069, 0.022262, 66.790451, -118.572449, 34.470245, 13.727735, 100.772284
1759315585.959106, 0.365116, 9.271845, 0.504129, -0.064561, 0.179138, -0.018006, 66.925980, -118.566849, 34.659531, 13.727735, 100.772284
1759315585.979079, 0.692523, 9.094674, 0.602740, -0.028721, 0.018760, -0.068153, 67.028046, -118.319290, 34.592911, 13.727735, 100.772284
1759315585.999106, 1.081132, 9.535806, 0.592116, -0.038807, -0.157284, -0.121631, 67.096252, -118.309708, 34.447449, 13.727735, 100.772284
1759315586.019108, 1.634641, 9.999982, 0.669179, -0.123766, -0.357725, -0.110238, 66.597412, -118.176483, 35.083862, 13.727735, 100.772284
1759315586.039103, 2.126799, 9.963919, 0.571915, -0.130273, -0.530958, -0.017133, 66.059616, -118.069122, 34.183777, 13.727735, 100.772284
1759315586.059105, 2.503736, 9.488371, 0.133626, -0.101174, -0.585764, 0.059718, 65.638672, -117.923630, 33.772034, 13.727735, 100.772284
1759315586.079079, 1.664569, 9.864560, -0.704195, -0.157204, -0.611059, 0.055630, 65.178879, -117.703842, 34.169830, 13.727735, 100.772284
1759315586.098315, 0.382773, 10.203489, -0.716465, -0.161096, -0.636583, 0.153240, 64.694260, -117.625122, 33.313736, 13.727735, 100.772284
1759315586.119106, 0.038008, 10.185981, -1.030405, -0.119285, -0.510184, 0.168126, 64.483780, -117.714828, 34.116272, 13.727735, 100.772284
1759315586.139106, 0.593014, 9.465177, -1.248277, -0.142272, 0.036187, 0.134774, 64.483643, -117.566605, 33.183533, 13.727735, 100.772284
1759315586.159105, 1.299303, 9.406519, -0.348506, -0.145799, 0.369930, 0.096555, 64.656021, -117.621094, 33.659103, 13.727735, 100.772284
1759315586.179078, 1.809268, 9.349357, 0.579247, -0.134306, 0.199999, 0.114415, 64.999023, -117.575897, 34.232361, 13.727735, 100.772284
1759315586.199107, 1.840543, 9.340080, 0.475249, -0.175792, -0.217634, 0.150775, 64.831451, -117.498489, 33.983902, 13.727735, 100.772284
1759315586.218452, 1.403750, 9.635614, -0.851737, -0.154540, -0.548445, 0.178517, 64.456390, -117.415024, 33.888123, 13.727735, 100.772284
1759315586.239090, 0.694318, 9.557503, -2.015469, -0.035829, -0.622149, 0.131135, 64.169266, -117.431335, 33.381027, 13.727735, 100.772284
1759315586.259105, 0.212635, 9.246556, -1.925537, 0.084695, -0.424188, 0.062885, 63.695404, -117.682480, 33.988434, 13.727735, 100.772284
1759315586.279076, 0.142754, 9.360131, -1.313818, 0.135427, -0.081881, 0.078424, 63.436035, -117.949997, 32.949661, 13.727735, 100.772284
1759315586.299114, 0.368408, 9.447969, -0.826897, 0.146437, 0.221465, 0.106172, 63.706665, -118.081177, 32.914200, 13.727735, 100.772284
1759315586.319102, 0.404171, 9.248053, -1.196053, 0.209904, 0.364863, 0.149510, 64.073349, -118.363937, 33.438843, 13.727735, 100.772284
