SamplingTime, AccelerationX, AccelerationY, AccelerationZ, GyroX, GyroY, GyroZ, MagneticFieldX, MagneticFieldY, MagneticFieldZ, Latitude, Longitude
1759230022.634118, 2.747496, -4.202722, -5.457732, -0.220889, 0.232218, 0.438071, -88.431335, -168.813660, -897.579651, , 
1759230022.653302, 1.830666, -4.868011, -6.336853, -0.265167, -0.124011, 0.493083, -88.253723, -168.698532, -897.310730, 13.727651, 100.772651
1759230022.674160, 1.245434, -4.739173, -7.539191, -0.115721, -0.138326, 0.448521, -88.083282, -168.950104, -897.657593, 13.727651, 100.772651
1759230022.694215, 1.657236, -4.329315, -7.657555, 0.009819, -0.108990, 0.563134, -87.803986, -168.986542, -897.143433, 13.727651, 100.772651
1759230022.714201, 2.177526, -3.905242, -7.722647, 0.149283, 0.099216, 0.861643, -87.622421, -169.393234, -897.262146, 13.727651, 100.772651
1759230022.734179, 1.807173, -4.494665, -6.536619, 0.129954, 0.119321, 1.031793, -86.876526, -169.881042, -897.569336, 13.727651, 100.772651
1759230022.753338, 1.443554, -5.317073, -6.198887, -0.019972, -0.044882, 0.901300, -86.595886, -170.278595, -897.505798, 13.727651, 100.772651
1759230022.774187, 1.679981, -5.309441, -6.897096, -0.039984, -0.203158, 0.620986, -86.504547, -170.237091, -897.452087, 13.727651, 100.772651
1759230022.794150, 2.809895, -3.956568, -7.823952, 0.040294, -0.158271, 0.601022, -86.218765, -170.307785, -897.498413, 13.727651, 100.772651
1759230022.813738, 4.480748, -2.843713, -8.506449, -0.018274, 0.369998, 1.022245, -85.742767, -170.786041, -897.034485, 13.727651, 100.772651
1759230022.834186, 5.545121, -2.919430, -7.618350, -0.412455, 0.990464, 1.591419, -84.586960, -171.078339, -896.649048, 13.727651, 100.772651
1759230022.853352, 5.978322, -3.315520, -6.464195, -0.797811, 0.954077, 2.086913, -83.361496, -171.718262, -896.292114, 13.727651, 100.772651
1759230022.874189, 4.327819, -2.822614, -6.015881, -0.844860, 0.150496, 2.185959, -82.191528, -172.462616, -895.483093, 13.727651, 100.772651
1759230022.894166, 1.859247, -2.461539, -6.038925, -0.920754, -1.280477, 1.948763, -81.739624, -173.074783, -895.691833, 13.727651, 100.772651
1759230022.913679, 0.485873, -2.338387, -9.357438, -0.864747, -1.459402, 1.712185, -81.620529, -173.608017, -896.262146, 13.727651, 100.772651
1759230022.934170, 0.378134, -1.689857, -11.303924, -0.716007, -0.528706, 1.693717, -81.101288, -174.123154, -896.028625, 13.727651, 100.772651
1759230022.954156, 0.893785, -1.864784, -9.561095, -0.681339, 0.226371, 2.005393, -80.514221, -174.684174, -895.723389, 13.727651, 100.772651
1759230022.974179, 0.546028, -2.968062, -5.030367, -0.997097, -0.047044, 1.949736, -79.412399, -175.636841, -895.413696, 13.727651, 100.772651
1759230022.994164, -6.450279, -9.421333, -11.598560, -0.668196, 2.036500, 0.065686, -78.747009, -175.507385, -893.673157, 13.727651, 100.772651
1759230023.014182, -6.367529, -7.992893, -9.962872, -0.422544, 1.326836, -0.937531, -78.890839, -174.618515, -893.138123, 13.727651, 100.772651
1759230023.034185, -1.608754, -0.539294, -10.531046, 0.297280, 1.798522, -0.978822, -78.344070, -174.054184, -892.195557, 13.727651, 100.772651
1759230023.054173, 1.417816, 1.393725, -7.348553, 0.415337, 1.205538, 0.150297, -78.260345, -174.055222, -891.533081, 13.727651, 100.772651
1759230023.073772, 2.194435, -1.891120, -6.019472, -0.014002, -0.774119, 0.975775, -78.164978, -174.558289, -891.616455, 13.727859, 100.772432
1759230023.094155, 2.034772, -4.407127, -12.646921, 0.010374, -0.199316, 1.471162, -77.724792, -175.388184, -891.960938, 13.727859, 100.772432
1759230023.114183, 0.245555, -3.514239, -11.361385, 0.462440, 1.129977, 1.667860, -76.591873, -176.669739, -891.560181, 13.727859, 100.772432
1759230023.134187, -2.501641, -3.477428, -10.945392, 0.764039, 3.083590, 1.211431, -75.383881, -177.462601, -889.876221, 13.727859, 100.772432
1759230023.153252, -2.880075, -3.232172, -8.175600, 0.079925, 3.715150, 0.529976, -74.508163, -177.865128, -887.687927, 13.727859, 100.772432
1759230023.174193, -1.970877, -3.975123, -6.659023, -0.691119, 2.615222, 0.046863, -73.970963, -177.483444, -885.936951, 13.727859, 100.772432
1759230023.194157, -0.871938, -4.472967, -8.068460, -1.331039, 2.667897, -0.451319, -73.682526, -177.152283, -883.634644, 13.727859, 100.772432
1759230023.214181, -0.955137, -5.211728, -11.855787, -0.835771, 3.637675, -1.168905, -73.908005, -176.103516, -880.992188, 13.727859, 100.772432
1759230023.234194, 1.576133, -3.065775, -9.672724, 0.574353, 2.201251, -1.282165, -74.519882, -175.313187, -879.702576, 13.727859, 100.772432
1759230023.254149, 4.987870, -2.922572, -9.022399, 1.328884, 1.813530, -0.502765, -74.261658, -175.303116, -879.129883, 13.727859, 100.772432
1759230023.274186, 3.538331, -4.149151, -8.362348, 1.114053, 1.900419, -0.212323, -74.051605, -175.169876, -878.489502, 13.727859, 100.772432
1759230023.294049, 1.936460, -4.342783, -9.362526, 0.720344, 2.727261, -0.455151, -74.245132, -174.646988, -877.056824, 13.727859, 100.772432
1759230023.314185, 3.584270, -2.373851, -6.696283, 0.922906, 1.438112, -0.709952, -74.688400, -173.965790, -876.031555, 13.727859, 100.772432
1759230023.334190, 4.157830, -2.758569, -9.094525, 1.165756, 1.208015, -1.271270, -75.235336, -172.876236, -875.709595, 13.727859, 100.772432
1759230023.354156, 5.760898, -3.756203, -7.608474, 0.731768, 1.400660, -1.341043, -76.001740, -171.963531, -875.208740, 13.727859, 100.772432
1759230023.373938, 7.004387, -2.718167, -7.227796, 0.236859, 1.131687, -1.325313, -76.447067, -171.242798, -874.694824, 13.727859, 100.772432
1759230023.393499, 6.660519, -2.866608, -7.635708, -0.016653, 0.461934, -1.807308, -77.232422, -170.083801, -874.351868, 13.727859, 100.772432
1759230023.414268, 6.929568, -1.730260, -8.366687, -0.780483, 0.476188, -1.998901, -78.099838, -169.003357, -873.831909, 13.727859, 100.772432
1759230023.434179, 5.778705, -0.543185, -8.732102, -1.097708, 0.048712, -1.868651, -78.846756, -168.130875, -873.205811, 13.727859, 100.772432
1759230023.453304, 6.364985, 1.382651, -9.328857, -1.189148, -0.095056, -1.522143, -79.225922, -167.555435, -872.783875, 13.727859, 100.772432
1759230023.474189, 4.060267, 2.543241, -8.705766, -1.412561, -0.120786, -1.616532, -80.119522, -166.591858, -871.567932, 13.727859, 100.772432
1759230023.493242, 5.074062, 3.619584, -5.293580, -2.138386, -0.030944, -1.931080, -80.917175, -166.010223, -870.716492, 13.727859, 100.772432
1759230023.514173, 2.136376, 3.502567, -5.919664, -2.851798, 0.547351, -2.676370, -82.501175, -165.193863, -868.281616, 13.727859, 100.772432
1759230023.534184, 2.086696, 4.515165, -6.290765, -3.430070, 0.765567, -3.366748, -84.711746, -164.448990, -866.236694, 13.727859, 100.772432
1759230023.553328, 4.070891, 6.329072, -5.970690, -3.798240, 0.522914, -3.727570, -86.887650, -163.764282, -863.780518, 13.727859, 100.772432
1759230023.574175, 6.505644, 7.278672, -6.259491, -3.722035, 0.488377, -3.545155, -89.219955, -163.735107, -861.637207, 13.727859, 100.772432
1759230023.594151, 8.338406, 7.828142, -5.784840, -3.383534, 0.156743, -2.902206, -90.691574, -164.195786, -859.625793, 13.727859, 100.772432
1759230023.614246, 9.124602, 6.505644, -6.116587, -2.834994, 0.019986, -2.234552, -92.053146, -164.582321, -857.947571, 13.727859, 100.772432
1759230023.634169, 8.691102, 5.191377, -6.465691, -2.248513, 0.346277, -1.848935, -93.202316, -165.015060, -856.499512, 13.727859, 100.772432
1759230023.653402, 8.429086, 4.178929, -5.813122, -1.660067, 0.485591, -1.855039, -94.349304, -165.233719, -855.738403, 13.727859, 100.772432
1759230023.674177, 9.938780, 4.757728, -5.485565, -1.188781, 0.699865, -1.742037, -95.525436, -165.362000, -854.920654, 13.727859, 100.772432
1759230023.694154, 11.633725, 5.007622, -4.529381, -1.000957, 1.098683, -1.404082, -96.920532, -165.478683, -854.393311, 13.727859, 100.772432
1759230023.714182, 12.053159, 4.188057, -2.865261, -1.249134, 1.586162, -1.203113, -98.415329, -166.127502, -853.285400, 13.727859, 100.772432
1759230023.734172, 12.147880, 4.117428, -2.280926, -1.909693, 2.086665, -0.831282, -99.873978, -166.856812, -851.753784, 13.727859, 100.772432
1759230023.754152, 13.028647, 4.747403, -2.805705, -1.911993, 1.816980, -0.402867, -100.966858, -167.881393, -850.955933, 13.727859, 100.772432
1759230023.774181, 13.656377, 4.749647, -3.710264, -1.827955, 1.667900, -0.109434, -101.508240, -168.462708, -850.454651, 13.727859, 100.772432
1759230023.793873, 12.560431, 4.772392, -2.972850, -1.856177, 1.357556, 0.367628, -102.082779, -169.520355, -849.525513, 13.727859, 100.772432
1759230023.814160, 11.467478, 5.240309, -1.935263, -2.341969, 0.989425, 0.896916, -102.474869, -170.860794, -848.636353, 13.727859, 100.772432
1759230023.834177, 11.253346, 6.447286, -2.388665, -2.593631, 0.753561, 1.250374, -102.688248, -172.263474, -847.611572, 13.727859, 100.772432
1759230023.853317, 10.802488, 6.856245, -1.584662, -2.819849, 0.602288, 1.320966, -102.597931, -173.966125, -846.347473, 13.727859, 100.772432
1759230023.874164, 3.506608, 5.041590, -20.017621, 0.888203, -0.284973, 0.548002, -102.126694, -175.940247, -845.519653, 13.727859, 100.772432
1759230023.894147, 6.285378, 7.603236, -10.652701, 1.947618, 2.574574, 0.826950, -102.557785, -174.428055, -845.933167, 13.727859, 100.772432
1759230023.914164, 6.686856, 4.813542, 5.421819, -0.380495, 1.508546, 0.348410, -104.071014, -173.726562, -845.793945, 13.727859, 100.772432
1759230023.934165, 7.013365, 7.548319, 2.355894, -1.719793, 0.011434, 0.015979, -104.200089, -174.389008, -845.816284, 13.727859, 100.772432
1759230023.953450, 7.439233, 7.466767, -0.949900, -1.885182, -0.113573, 0.254109, -104.210129, -175.275787, -845.169006, 13.727859, 100.772432
1759230023.974161, 10.967987, 8.728511, 2.214487, -2.283894, -0.848070, 1.272346, -103.577332, -176.716003, -844.517822, 13.727859, 100.772432
1759230023.994153, 10.595091, 9.141810, 2.937985, -2.445206, -0.550536, 1.658761, -102.366730, -178.550934, -843.787537, 13.727859, 100.772432
1759230024.014167, 8.701277, 7.491457, 1.728165, -2.156879, -0.049941, 1.509646, -101.781494, -180.442642, -843.364258, 13.727859, 100.772432
1759230024.034167, 5.631761, 4.442591, -0.817919, -1.325131, 0.635423, 0.784315, -101.707367, -181.735550, -842.822937, 13.727859, 100.772432
1759230024.054153, 4.285920, 1.982249, -1.170914, -0.538850, 1.243966, -0.006724, -102.548004, -182.319260, -842.708496, 13.727859, 100.772432
1759230024.074224, 5.041590, 2.765303, 2.683900, -0.486393, 0.894105, -0.440400, -103.431580, -182.560059, -842.319458, 13.727859, 100.772432
1759230024.094163, 6.562207, 4.513968, 3.062034, -0.272167, 0.027444, -0.319097, -103.571106, -182.653595, -842.079590, 13.727859, 100.772432
1759230024.113338, 6.454917, 4.925322, 2.344223, -0.104766, -0.261079, -0.213655, -103.729156, -182.948654, -842.445801, 13.727859, 100.772432
1759230024.134158, 7.295581, 4.678270, 0.514604, 0.119557, -0.123443, 0.243022, -103.579132, -182.704681, -842.520691, 13.727859, 100.772432
1759230024.154156, 8.610746, 4.316297, 0.816273, 0.203614, -0.090779, 0.476843, -103.716171, -182.609329, -842.517456, 13.727859, 100.772432
1759230024.174172, 7.177517, 3.554492, -1.465102, 0.372308, 0.343955, 0.394560, -103.476074, -182.303238, -842.443481, 13.727859, 100.772432
1759230024.194171, 7.189488, 3.237110, -1.632247, 0.412636, 0.899188, 0.114653, -103.796432, -181.942719, -842.769653, 13.727859, 100.772432
1759230024.214173, 9.126098, 4.129250, -0.194679, 0.415306, 1.049261, 0.130491, -104.544632, -181.657455, -842.303345, 13.727859, 100.772432
1759230024.234184, 8.762329, 4.629488, 2.731784, 0.264283, 0.283883, 0.032068, -104.966476, -181.480164, -842.170166, 13.727859, 100.772432
1759230024.254155, 7.619996, 4.967968, 1.649605, 0.245299, -0.180850, -0.227824, -104.950043, -181.358475, -842.682129, 13.727859, 100.772432
1759230024.274171, 7.847594, 5.487361, -0.164452, 0.386259, 0.116896, -0.450457, -104.901077, -181.101028, -842.667358, 13.727859, 100.772432
1759230024.294213, 8.792556, 5.790377, 1.498321, 0.301044, 0.373313, -0.654747, -105.294006, -180.836411, -842.595459, 13.727859, 100.772432
1759230024.314164, 7.977181, 6.860585, 0.764798, 0.351387, 0.609970, -0.815056, -105.944382, -180.715027, -842.353271, 13.727859, 100.772432
1759230024.334193, 6.409278, 6.648099, 0.776320, 0.409906, 0.765206, -1.050703, -106.754654, -180.182343, -842.629456, 13.727859, 100.772432
1759230024.354146, 7.962067, 7.171382, 1.824531, 0.256109, 0.439258, -0.889960, -107.509018, -180.251007, -842.783875, 13.727859, 100.772432
1759230024.374184, 7.930643, 7.045986, 2.798522, 0.570666, -0.351854, -0.417802, -107.652954, -179.773117, -842.939453, 13.727859, 100.772432
1759230024.394144, 4.208558, 5.346701, -0.044293, 1.091129, -0.234511, -0.775499, -107.257462, -179.554306, -842.890564, 13.727859, 100.772432
1759230024.414174, 1.452233, 5.513098, 0.295684, 1.074123, 0.289075, -1.747013, -107.958801, -178.741241, -843.280823, 13.727859, 100.772432
1759230024.434159, 2.419042, 7.166444, 1.179593, 1.033604, 0.117410, -2.350776, -108.620438, -178.047363, -843.574280, 13.727859, 100.772432
1759230024.454186, 5.799654, 8.244433, 1.976413, 0.780125, -0.117479, -1.943297, -109.693619, -177.382568, -843.343384, 13.727859, 100.772432
1759230024.474177, 5.912481, 5.449203, 5.773468, -0.300366, 0.076961, -1.915364, -110.221252, -177.445343, -843.736694, 13.727859, 100.772432
1759230024.494173, 18.011878, 8.866178, -0.178667, 0.067646, 0.006054, -0.341689, -110.233032, -177.965149, -843.568542, 13.727859, 100.772432
1759230024.514163, 12.172720, 7.503428, -2.366968, 0.831878, 0.898676, -0.188397, -110.716827, -177.470367, -843.628418, 13.727859, 100.772432
1759230024.534183, 3.614347, 3.558681, -1.021726, 0.538631, 1.429612, -1.352626, -111.789200, -177.413467, -844.292236, 13.727859, 100.772432
1759230024.553560, 5.033210, 5.285499, 0.060154, 0.342283, 0.793467, -1.390654, -112.865570, -177.297104, -844.464722, 13.727859, 100.772432
1759230024.573683, 5.516540, 4.172046, 2.131139, 0.224925, -0.118494, -1.466856, -113.496658, -177.527679, -844.617859, 13.727859, 100.772432
1759230024.594088, 3.835960, 1.838448, 1.299303, 0.486690, -0.418221, -2.218119, -113.546768, -177.782120, -844.908081, 13.727859, 100.772432
1759230024.614169, 2.230947, 5.174169, -3.140893, 0.666636, 0.844654, -2.866453, -114.328583, -178.286911, -845.293274, 13.727859, 100.772432
1759230024.633819, -0.289100, 4.909759, -0.183306, 1.183546, 0.577861, -3.719401, -115.800842, -178.282318, -845.890808, 13.727859, 100.772432
1759230024.654144, 0.597353, 10.047716, 0.274585, 0.750202, 0.407402, -3.429936, -116.925568, -178.624954, -846.057007, 13.727859, 100.772432
1759230024.673426, 4.348918, 15.594932, 0.812383, 0.879732, -0.609350, -1.850234, -117.443771, -178.807877, -846.284668, 13.727859, 100.772432
1759230024.694164, 4.441094, 12.540080, 0.834828, 1.493923, -1.002027, -2.065291, -116.689362, -178.651306, -846.316650, 13.727859, 100.772432
1759230024.714165, 2.681356, 13.989021, -0.179715, 0.589379, 0.191379, -2.628816, -117.955383, -178.992981, -846.548828, 13.727859, 100.772432
1759230024.734143, 2.499247, 11.605893, -0.170138, -0.184810, -0.016035, -2.695283, -118.803925, -179.552643, -846.450928, 13.727859, 100.772432
1759230024.754163, 3.631705, 12.561778, -2.320281, -0.363034, 0.301107, -1.896599, -119.525665, -179.980804, -846.140381, 13.727859, 100.772432
1759230024.774136, 5.609614, 13.680917, -2.616264, 0.190384, 0.746444, -0.621335, -120.287781, -180.414505, -846.569519, 13.727859, 100.772432
1759230024.794164, 5.564274, 14.539538, -0.189740, 0.335133, 0.728959, 0.607917, -120.163620, -180.314026, -847.075806, 13.727859, 100.772432
1759230024.813541, 3.822792, 10.722582, -1.284489, 0.096825, 1.324844, 1.053416, -120.956131, -179.775040, -847.385254, 13.727859, 100.772432
1759230024.834201, 0.526724, 6.406734, 0.355838, 0.078853, 0.776300, 0.197005, -121.155273, -179.923279, -847.952759, 13.727859, 100.772432
1759230024.853161, -1.654992, 5.759252, 1.785925, -0.416958, 0.252530, -0.958316, -121.589981, -180.147278, -847.957336, 13.727859, 100.772432
1759230024.874202, 0.096816, 6.123021, -1.872116, -0.766534, 1.250283, -1.879205, -122.423569, -181.401398, -848.183899, 13.727859, 100.772432
1759230024.894190, -0.007781, 6.660370, -3.215862, -0.525706, 2.471232, -2.740144, -124.294067, -182.717026, -849.101685, 13.727859, 100.772432
1759230024.914168, -0.771382, 6.635979, -2.912995, -0.021234, 3.101988, -3.459423, -126.874802, -184.378159, -850.581177, 13.727859, 100.772432
1759230024.934165, -1.025317, 6.289867, -0.263512, 0.195808, 2.900222, -4.121040, -129.120010, -186.374390, -851.716675, 13.727859, 100.772432
1759230024.953188, 3.693206, 17.577031, 4.007594, 1.367906, 0.478203, -0.798432, -129.593857, -186.705811, -852.323059, 13.727859, 100.772432
1759230024.974176, -0.311097, 7.946056, 4.102913, 0.596761, -1.228678, -0.801929, -129.057846, -186.842575, -852.067932, 13.727859, 100.772432
1759230024.994162, -0.050727, 7.120505, 0.193481, 0.167722, -1.466539, -1.036811, -128.486267, -187.020721, -851.000977, 13.727859, 100.772432
1759230025.014184, -0.912789, 6.073641, -0.684442, -0.221553, -0.717970, -1.441905, -128.203552, -187.763412, -850.549194, 13.727859, 100.772432
1759230025.034163, -0.459836, 11.276540, -2.184859, 0.367545, -0.849720, 0.149873, -127.574600, -187.778595, -850.375305, 13.727859, 100.772432
1759230025.053209, -1.857302, 12.082788, -0.351798, 0.232021, -1.241236, 0.155521, -126.751923, -187.529617, -849.748291, 13.727859, 100.772432
1759230025.073216, -0.826897, 13.054983, 0.638204, -0.148373, -0.567147, 0.712585, -126.465164, -187.563705, -849.598633, 13.727859, 100.772432
1759230025.094169, -0.210989, 11.154137, -0.168941, -0.139727, -0.577528, 1.023128, -126.071121, -186.906372, -849.011597, 13.727859, 100.772432
1759230025.114162, -0.212934, 10.211569, 0.105195, -0.168623, -1.070580, 0.598914, -125.697067, -186.862717, -848.483276, 13.727859, 100.772432
1759230025.133704, -0.266056, 9.036914, 1.386243, -0.633148, -1.421269, 0.064980, -124.954468, -187.051407, -848.006409, 13.727859, 100.772432
1759230025.153222, 0.924611, 9.175179, 0.796970, -0.545481, -1.407651, 0.048178, -124.402893, -187.389893, -847.575562, 13.727859, 100.772432
1759230025.174147, 0.048034, 13.834745, 0.860117, -0.449217, -1.550975, -0.008894, -122.524475, -187.986542, -846.382019, 13.727859, 100.772432
1759230025.194139, -3.288137, 17.190817, 1.070358, -0.743111, -1.077159, -0.223585, -122.027145, -188.305161, -845.926270, 13.727859, 100.772432
1759230025.214204, -2.370559, 10.808474, -0.189591, -0.740617, -0.688697, 0.376351, -121.961029, -188.546951, -845.973999, 13.727859, 100.772432
1759230025.234163, -3.150470, 7.105242, -2.670283, -0.317177, -0.234407, -0.128806, -121.531311, -188.899200, -845.762756, 13.727859, 100.772432
1759230025.253232, -1.362301, 10.604667, -1.598279, 0.135869, -0.247513, -0.246908, -121.405914, -188.965759, -845.607300, 13.727859, 100.772432
1759230025.274175, 0.104148, 10.492888, -0.292542, 0.419991, -0.211407, -0.229605, -121.334549, -188.695023, -845.627930, 13.727859, 100.772432
1759230025.294171, 0.368707, 9.839720, 1.418415, 0.336194, -0.277447, -0.096633, -121.195419, -188.611801, -845.598816, 13.727859, 100.772432
1759230025.313354, -0.547674, 9.062203, 2.285565, 0.112664, -0.373065, -0.021275, -120.901764, -188.889679, -845.281860, 13.727859, 100.772432
1759230025.334161, -1.074697, 8.683470, 1.486201, -0.108185, -0.400562, -0.058647, -120.633911, -188.615051, -845.281250, 13.727859, 100.772432
1759230025.353263, -0.960973, 9.473407, 0.257077, -0.193192, -0.409579, -0.046359, -120.424316, -188.827789, -844.995728, 13.727859, 100.772432
1759230025.374165, -0.929100, 9.492112, -0.487519, -0.203156, -0.292720, 0.007985, -120.173553, -189.081558, -845.090820, 13.727859, 100.772432
1759230025.394163, -1.341501, 9.716568, -0.257676, -0.019338, -0.200052, 0.004555, -119.937775, -189.100021, -845.145203, 13.727859, 100.772432
1759230025.414198, -1.536329, 9.387665, 0.477344, 0.022685, -0.206565, -0.114288, -119.714310, -189.273041, -845.033142, 13.727859, 100.772432
1759230025.434163, -1.198148, 9.722404, 1.024120, -0.188713, -0.175042, -0.087083, -119.619659, -189.147507, -844.536926, 13.727859, 100.772432
1759230025.453291, -0.742053, 9.176975, -0.274735, -0.256336, -0.055804, -0.055115, -119.684830, -189.362167, -844.900879, 13.727859, 100.772432
1759230025.474171, -0.951845, 9.381679, -0.448015, -0.275676, -0.067571, 0.011834, -119.622803, -189.577026, -844.800903, 13.727859, 100.772432
1759230025.494176, -1.307833, 10.909928, -0.857423, -0.352944, -0.036790, 0.023396, -119.284958, -189.766632, -844.745605, 13.727859, 100.772432
1759230025.514157, -0.616956, 11.742811, -2.230797, 0.028890, 0.418319, 0.046476, -119.975174, -189.795425, -844.798096, 13.727859, 100.772432
1759230025.534149, 0.253187, 8.944288, -0.238522, 0.636350, 0.222577, -0.016882, -119.989258, -189.370773, -844.834961, 13.727859, 100.772432
1759230025.553306, 0.163853, 7.450756, 1.856404, 0.339963, 0.144857, -0.054193, -120.379715, -189.324966, -844.968079, 13.727859, 100.772432
1759230025.574203, 0.598102, 7.637653, 2.639458, -0.002014, -0.099702, -0.075521, -120.476364, -189.096863, -844.860535, 13.727859, 100.772432
1759230025.594162, 0.260070, 10.753706, 1.638382, -0.508079, -0.200414, 0.024267, -120.028549, -189.393372, -844.452698, 13.727859, 100.772432
1759230025.614168, -0.677559, 11.674127, -0.464325, -0.326383, -0.163241, -0.012601, -119.942383, -189.744354, -844.684937, 13.727859, 100.772432
1759230025.633223, -1.249324, 10.362105, -1.008557, 0.088627, 0.034559, -0.032791, -119.782913, -189.678314, -844.472046, 13.727859, 100.772432
1759230025.653329, -1.533486, 8.794801, 0.836025, 0.161468, -0.009595, -0.129474, -120.116150, -189.636505, -844.418152, 13.727859, 100.772432
1759230025.674220, -0.656161, 8.863484, 1.694646, 0.007657, -0.048582, -0.143985, -120.148163, -189.667953, -844.829712, 13.727859, 100.772432
1759230025.694049, 0.078859, 10.108619, 1.201141, -0.199587, 0.122802, -0.049771, -120.090256, -189.641754, -844.568848, 13.727859, 100.772432
1759230025.713625, 0.142305, 10.528951, 0.508768, -0.166489, 0.196750, 0.009189, -120.222244, -189.883514, -844.326660, 13.727859, 100.772432
1759230025.734166, -0.287903, 10.050859, 0.430807, -0.002028, 0.217569, 0.024716, -120.601501, -190.008392, -844.626587, 13.727859, 100.772432
1759230025.753345, -0.461632, 9.238326, 1.358410, -0.006118, 0.130559, -0.032094, -120.581543, -189.896469, -844.720215, 13.727859, 100.772432
1759230025.774169, -0.280271, 8.751855, 1.374870, -0.166031, 0.096555, -0.068483, -120.734085, -190.091415, -844.763672, 13.727859, 100.772432
1759230025.794136, 0.099509, 9.491214, 0.836923, -0.267785, 0.025811, -0.073184, -120.390701, -190.215988, -844.837036, 13.727859, 100.772432
1759230025.814166, -0.002693, 10.148871, 0.342969, -0.250031, 0.131885, -0.096438, -120.777100, -190.267944, -845.130859, 13.727859, 100.772432
1759230025.834163, -0.134075, 9.517700, 0.355240, -0.204562, 0.205733, -0.096230, -120.817093, -190.650772, -844.846497, 13.727859, 100.772432
1759230025.853364, -0.458939, 8.940697, 0.318429, -0.185682, 0.229920, -0.107785, -121.051453, -190.706833, -844.853149, 13.727859, 100.772432
1759230025.874173, -0.578349, 9.278280, 0.268300, -0.200090, 0.284677, -0.108617, -121.143951, -190.881073, -844.916443, 13.727859, 100.772432
1759230025.894153, -0.638055, 10.073903, -0.080804, -0.227309, 0.341397, -0.112750, -121.243057, -191.077698, -845.035522, 13.727859, 100.772432
1759230025.914139, -0.512958, 9.777321, -0.547524, -0.072765, 0.407600, -0.166780, -121.404922, -191.116959, -845.053833, 13.727859, 100.772432
1759230025.934162, -0.361824, 9.135825, 0.165798, 0.001446, 0.353552, -0.188461, -121.900085, -191.393646, -845.292480, 13.727859, 100.772432
1759230025.953376, -0.289698, 9.066243, 0.560243, -0.021365, 0.341893, -0.214239, -121.997070, -191.239120, -845.189026, 13.727859, 100.772432
1759230025.973562, 0.280720, 8.711752, -0.101454, -0.039558, 0.443106, -0.150686, -122.425186, -191.350677, -845.464355, 13.727859, 100.772432
1759230025.993667, 0.448763, 8.020576, -1.187524, 0.086605, 0.425682, -0.060044, -122.737305, -191.367325, -845.577576, 13.727859, 100.772432
1759230026.014167, 0.148141, 9.251046, -1.164779, 0.178392, 0.304793, -0.115356, -123.123260, -191.339020, -845.673645, 13.727859, 100.772432
1759230026.034161, 0.970549, 9.586234, -1.036839, 0.317511, 0.273078, -0.183302, -123.387650, -191.222183, -845.818359, 13.727859, 100.772432
1759230026.053407, 1.734300, 8.329876, -1.080383, 0.542254, 0.125601, -0.135890, -123.456085, -191.002289, -845.619446, 13.727859, 100.772432
1759230026.074160, 1.319953, 6.778733, -1.132008, 0.757500, -0.097054, -0.131637, -123.521667, -190.530945, -846.055176, 13.727859, 100.772432
1759230026.094134, 0.727837, 6.702717, -1.076194, 0.770671, -0.282914, -0.176501, -123.288925, -190.248383, -845.720947, 13.727859, 100.772432
1759230026.114157, 0.332794, 7.421427, 0.217124, 0.703351, -0.529461, -0.324414, -123.213257, -189.799927, -845.658020, 13.727859, 100.772432
1759230026.134156, 0.097564, 8.477868, 0.737863, 0.385970, -0.609467, -0.505347, -122.660675, -189.615677, -845.208252, 13.727859, 100.772432
1759230026.153422, 0.486771, 9.075072, -1.189020, 0.404577, -0.408841, -0.592676, -122.655060, -189.616180, -844.983215, 13.727859, 100.772432
1759230026.174163, 1.298555, 8.165874, -3.779397, 0.913915, -0.101360, -0.603334, -122.690506, -189.361984, -845.005249, 13.727859, 100.772432
1759230026.194166, 2.450465, 7.100005, -1.202937, 1.218946, -0.715239, -0.548504, -122.313324, -188.645248, -844.836182, 13.727859, 100.772432
1759230026.214160, 2.688240, 6.568792, 1.999907, 0.928380, -1.063057, -0.493028, -121.883591, -188.108398, -844.333069, 13.727859, 100.772432
1759230026.234159, 3.663278, 8.086266, 0.706289, 0.373575, -0.760187, -0.251316, -121.454758, -188.074432, -843.863647, 13.727859, 100.772432
1759230026.253445, 2.952649, 8.724172, -3.144036, 0.856391, -0.526716, -0.074041, -120.907654, -187.413544, -843.660522, 13.727859, 100.772432
1759230026.274199, 1.755997, 9.411158, -6.859537, 2.081497, -0.556046, 0.233624, -120.438049, -185.981583, -843.478394, 13.727859, 100.772432
1759230026.294166, 1.029956, 13.836989, -2.105700, 2.695519, -0.994179, 0.861617, -119.375397, -183.962463, -843.620972, 13.727859, 100.772432
1759230026.313773, -0.703596, 17.249774, -1.839345, 2.450616, -0.091181, 1.703124, -119.045807, -181.689468, -843.943787, 13.727859, 100.772432
1759230026.333567, -4.273051, 17.612196, -0.787992, 2.506035, 0.479885, 2.003756, -119.042816, -179.538162, -844.950867, 13.727859, 100.772432
1759230026.353466, -7.368754, 19.085079, 1.952621, 1.980613, 0.350895, 2.262515, -118.338440, -177.819626, -845.636780, 13.727859, 100.772432
1759230026.374164, -11.131392, 14.306402, 0.907552, 0.959195, 0.172291, 1.510064, -118.277069, -176.492813, -845.895020, 13.727859, 100.772432
1759230026.394170, -6.078130, 16.432753, -6.290615, 0.554800, 0.776815, 0.892190, -118.545685, -175.381851, -846.335999, 13.727859, 100.772432
1759230026.414177, 0.989703, 17.804181, -5.208436, 0.886774, 1.245408, 0.907051, -119.577606, -174.450165, -847.044434, 13.727859, 100.772432
1759230026.434180, 3.230077, 13.603854, 0.802955, 0.574865, 0.925560, 1.036171, -119.873413, -173.728378, -847.660400, 13.727859, 100.772432
1759230026.453487, 0.569970, 10.297312, 0.929399, -0.125525, 0.490345, 0.950735, -119.643509, -173.463577, -847.469177, 13.727859, 100.772432
1759230026.474167, -2.075324, 8.162881, -0.954688, -0.366301, 0.146682, 0.874242, -119.407562, -173.523727, -847.392578, 13.727859, 100.772432
1759230026.494151, -3.996521, 6.291064, -0.710779, -0.510710, -0.161952, 0.782051, -119.080261, -173.479858, -847.072144, 13.727859, 100.772432
1759230026.514156, -4.764611, 4.389021, 0.071976, -0.856408, -0.046897, 0.602489, -118.999207, -173.899979, -846.566650, 13.727859, 100.772432
1759230026.534147, -4.568286, 2.698116, 0.539294, -0.894896, 0.181272, 0.287416, -119.022064, -174.408752, -846.304504, 13.727859, 100.772432
1759230026.553509, -3.714454, 0.630274, 1.453729, -1.071797, 0.150797, -0.090217, -119.164200, -174.646652, -846.439209, 13.727859, 100.772432
1759230026.574156, -2.294693, -1.762282, 1.296759, -1.186594, -0.283027, -0.481352, -119.359146, -175.962479, -845.618469, 13.727859, 100.772432
1759230026.593525, -1.343746, -2.807501, 0.990900, -1.270810, -0.272573, -0.760045, -119.130051, -176.507217, -845.486877, 13.727859, 100.772432
1759230026.614157, -0.047884, -1.053000, 1.681328, -1.578612, -0.190268, -1.024829, -119.198807, -177.894272, -844.855042, 13.727859, 100.772432
1759230026.634171, 0.805499, 2.546682, 0.403722, -1.906354, -0.199524, -1.026407, -119.117432, -179.251450, -844.321655, 13.727859, 100.772432
1759230026.654120, 0.307954, 6.872855, -2.021305, -1.894586, -0.592894, -0.711065, -118.990768, -180.976318, -843.904541, 13.727859, 100.772432
1759230026.674169, 0.415544, 12.809129, -4.523545, -1.678308, -0.786781, -0.443677, -118.569290, -182.359879, -843.395203, 13.727859, 100.772432
1759230026.693730, 1.363947, 18.357691, -8.318654, -0.894072, 0.103354, -0.303256, -118.294846, -183.056137, -842.651001, 13.727859, 100.772432
1759230026.714163, 3.527258, 10.128820, -6.241983, 0.481997, 0.889665, 0.045140, -119.393967, -183.077042, -842.927307, 13.727859, 100.772432
1759230026.734160, -0.330549, 1.758691, 7.006930, 0.227240, 0.062716, -0.264265, -119.791595, -182.755188, -842.981934, 13.727859, 100.772432
1759230026.754139, -1.096095, 0.552312, 6.152799, -0.885923, -1.372900, -0.269390, -119.213577, -183.210968, -842.682434, 13.727859, 100.772432
1759230026.774092, -3.773561, 14.252832, 2.663849, -2.385220, -2.172410, -0.427664, -117.260635, -184.852264, -841.732727, 13.727859, 100.772432
1759230026.794167, -1.451185, 31.669602, -14.176218, -0.419512, 0.334831, -0.332966, -116.839615, -185.846298, -841.518616, 13.727859, 100.772432
1759230026.814165, -2.130989, 24.216901, -12.657546, 3.592387, -0.228137, 0.415376, -117.032333, -183.959686, -841.845764, 13.727859, 100.772432
1759230026.834158, 1.928230, 7.217770, 11.780520, 1.763343, -0.534255, 0.538465, -116.706635, -181.915649, -842.057129, 13.727859, 100.772432
1759230026.853568, 0.898125, 15.425542, 3.098396, -1.966456, 1.448327, 0.036577, -117.254715, -182.555954, -842.544983, 13.727859, 100.772432
1759230026.874181, 12.256816, 22.673090, -3.248632, -0.525066, 0.029903, -0.233385, -117.823761, -183.328552, -842.089355, 13.727859, 100.772432
1759230026.894163, 3.485658, 14.239365, -0.228347, 1.063464, -2.080434, 0.009699, -116.362122, -183.153900, -842.282654, 13.727859, 100.772432
1759230026.914272, -2.225261, 10.337564, 4.543895, 0.241380, -1.339663, -0.146395, -115.307053, -182.883194, -841.820251, 13.727859, 100.772432
1759230026.934199, -2.581548, 7.666084, 4.799177, -0.974459, -0.491994, -0.173305, -114.868607, -183.420593, -841.495605, 13.727859, 100.772432
1759230026.953594, -2.885911, 6.891560, 0.782904, -1.202076, 0.085882, -0.278282, -114.943054, -184.322830, -841.177246, 13.727859, 100.772432
1759230026.974155, -2.502539, 7.260117, -0.684293, -1.251689, 0.736390, -0.312212, -115.374359, -185.235611, -841.226257, 13.727859, 100.772432
1759230026.994162, -2.353201, 6.786963, -1.493533, -1.202634, 0.987545, -0.493428, -116.084778, -186.099777, -841.065063, 13.727859, 100.772432
1759230027.014161, -1.016039, 8.229619, -4.457854, -0.563729, 0.626108, -0.577477, -116.606781, -186.820053, -841.101196, 13.727859, 100.772432
1759230027.034165, -0.655712, 6.750003, -4.964527, 0.451664, 0.461138, -0.639456, -117.126495, -186.800842, -841.525940, 13.727859, 100.772432
1759230027.053610, 0.145597, 5.212476, -1.629254, 0.633702, 0.449204, -0.484993, -117.653870, -186.422165, -841.466919, 13.727859, 100.772432
1759230027.074167, 0.193332, 4.267066, -2.520047, 0.894821, 0.719619, -0.439992, -118.179672, -185.766342, -841.666260, 13.727859, 100.772432
1759230027.094171, 0.597054, 4.616320, -0.280870, 0.964599, 0.622968, -0.599414, -118.656708, -185.173431, -842.039917, 13.727859, 100.772432
1759230027.113833, 1.499518, 5.735460, 0.240917, 0.921440, 0.503275, -0.631962, -119.225754, -184.647079, -842.044189, 13.727859, 100.772432
1759230027.134157, 2.123657, 7.131579, 0.571017, 0.744750, 0.134285, -0.745532, -119.537064, -184.303146, -842.224854, 13.727859, 100.772432
1759230027.153633, 2.661754, 7.921067, 1.375170, 0.822564, -0.532527, -1.068891, -119.550308, -184.004639, -842.520996, 13.727859, 100.772432
1759230027.174164, 6.010344, 8.816199, -3.773112, 1.096771, -0.231357, -0.882496, -119.556595, -183.222534, -842.603333, 13.727859, 100.772432
1759230027.194161, 9.223363, 11.748198, -11.765107, 1.996556, 0.131393, 0.152621, -119.355713, -182.039627, -843.255493, 13.727859, 100.772432
1759230027.214186, 5.165041, 15.238944, 2.324919, 2.191166, -1.307796, 0.876702, -118.098434, -180.384476, -843.483643, 13.727859, 100.772432
1759230027.234156, 0.126144, 19.565117, -1.273865, 1.762867, -1.147972, 1.241812, -117.106308, -178.767776, -843.581665, 13.727859, 100.772432
1759230027.253651, 0.972794, 23.995587, -5.238813, 2.300184, -1.218513, 2.277591, -115.305832, -176.764557, -843.740479, 13.727859, 100.772432
1759230027.274157, -10.977115, 27.307666, -1.195904, 1.593119, 0.770674, 3.044600, -113.930649, -175.334717, -844.510742, 13.727859, 100.772432
1759230027.293472, -13.708301, 11.479748, -1.358111, 1.013699, 0.086811, 1.649743, -114.006760, -173.890076, -844.722778, 13.727859, 100.772432
1759230027.314159, -6.817938, 9.678560, -6.821230, 0.537805, 1.381874, 1.057077, -114.585648, -173.077240, -845.088013, 13.727859, 100.772432
1759230027.334156, 1.194707, 14.291888, -3.306093, -0.283827, 2.408398, 1.254359, -115.524765, -172.985168, -845.651367, 13.727859, 100.772432
1759230027.353668, 5.499032, 14.698603, 0.579995, -0.678372, 1.497659, 1.426819, -116.078217, -172.992142, -845.611450, 13.727859, 100.772432
1759230027.374195, 3.024026, 9.952098, -0.952743, -0.490868, 0.113448, 1.175887, -115.784378, -173.320602, -845.401978, 13.727859, 100.772432
1759230027.394166, -2.557456, 7.206697, -2.708590, 0.049073, -0.773882, 0.661353, -114.770096, -173.084274, -845.259705, 13.727859, 100.772432
1759230027.414164, -4.571429, 5.367202, -1.607706, 0.051655, -0.887925, 0.519770, -114.159760, -172.913895, -845.206055, 13.727859, 100.772432
1759230027.434156, -6.598569, 2.970606, -2.588431, -0.206513, -0.122614, 0.095017, -113.996658, -172.874588, -844.690918, 13.727859, 100.772432
1759230027.453689, -6.403143, 1.517176, -1.802086, -0.286280, 0.429564, -0.230593, -114.201797, -173.183884, -844.767700, 13.727859, 100.772432
1759230027.474165, -5.458929, 0.379780, 0.099509, -0.285316, 0.435252, -0.547268, -115.012085, -173.272629, -844.770325, 13.727859, 100.772432
1759230027.494161, -3.138499, 0.038457, 1.271022, -0.392296, 0.069393, -0.777027, -115.299896, -173.626099, -844.550110, 13.727859, 100.772432
1759230027.514157, -1.218349, -0.270694, 1.848174, -0.792948, 0.149592, -0.795933, -116.048172, -174.415771, -844.400940, 13.727859, 100.772432
1759230027.534151, 0.591517, -1.145326, 3.824139, -1.503310, 0.578464, -0.690275, -116.364761, -175.434662, -844.201172, 13.727859, 100.772432
1759230027.553715, 0.857723, 1.146823, 3.167828, -1.915161, 0.244238, -0.805259, -116.503723, -177.079865, -843.498535, 13.727859, 100.772432
1759230027.574198, 0.345813, 4.291606, -0.577152, -2.014201, 0.087348, -0.970874, -117.066956, -178.692139, -842.772339, 13.727859, 100.772432
1759230027.594158, 2.296339, 6.386383, -2.651129, -1.736063, -0.676115, -1.020218, -116.597763, -179.963150, -842.099121, 13.727859, 100.772432
1759230027.613896, 3.776703, 10.021081, -5.230433, -1.647635, 0.194508, -0.689857, -117.048553, -181.241348, -841.774292, 13.727859, 100.772432
1759230027.634036, 5.171775, 13.360244, -6.610391, -1.206975, 1.343888, -0.210739, -117.986710, -182.017609, -842.095459, 13.727859, 100.772432
1759230027.653732, 3.227384, 10.425551, -4.243124, -0.615110, 1.340419, 0.346294, -118.892105, -182.430038, -842.361816, 13.727859, 100.772432
1759230027.674199, -2.823961, 5.609914, 1.410185, -0.863891, 0.850604, 0.405180, -118.628525, -183.451584, -842.447449, 13.727859, 100.772432
1759230027.694156, -9.242516, 15.137340, -0.435296, -1.176331, -0.990268, -0.424070, -118.076233, -183.887512, -841.949524, 13.727859, 100.772432
1759230027.714175, -0.614861, 19.137303, -3.452888, 0.420654, -0.397722, -0.862880, -118.489395, -183.452347, -841.988281, 13.727859, 100.772432
1759230027.734163, 0.493804, 20.048596, 2.787749, 0.424854, -0.170771, -0.286496, -118.686890, -183.334259, -842.016846, 13.727859, 100.772432
1759230027.753751, 5.306449, 37.682490, -15.733197, 0.285166, 2.733055, 1.035601, -120.351959, -182.225494, -843.146240, 13.727859, 100.772432
1759230027.774183, 5.446360, 12.535741, 4.294599, 3.093548, 0.843835, 0.536513, -120.976181, -180.270554, -843.674072, 13.727859, 100.772432
1759230027.794160, 0.900818, 9.336788, 1.110461, 0.811745, 0.161806, 0.142180, -120.716751, -179.606949, -843.880981, 13.727859, 100.772432
1759230027.813662, -0.842310, 8.005313, 6.557269, 0.827548, -1.901891, -0.319200, -119.757156, -179.262527, -843.726501, 13.727859, 100.772432
1759230027.834142, 0.483030, 9.864410, 5.213973, -0.282287, -1.594711, -0.132580, -118.613800, -179.812576, -843.111145, 13.727859, 100.772432
1759230027.853770, -1.574786, 11.822867, 1.634342, -1.067318, 0.924349, 0.355314, -119.301392, -180.564301, -843.506470, 13.727859, 100.772432
1759230027.874154, -0.358083, 11.257387, -2.197279, -1.012913, 1.860864, 0.572817, -120.194473, -180.982330, -843.532166, 13.727859, 100.772432
1759230027.894186, 0.982969, 10.681431, -6.864326, -0.118460, 1.231303, 0.350389, -120.939301, -180.540482, -843.769226, 13.727859, 100.772432
1759230027.914143, 1.003769, 8.318953, 1.323245, 0.342742, 0.282571, -0.094610, -121.331146, -180.610550, -843.804565, 13.727859, 100.772432
1759230027.934143, -0.523432, 4.694581, 2.656965, 0.075618, -0.376027, -0.399587, -121.298325, -180.602249, -843.887329, 13.727859, 100.772432
1759230027.953789, -1.051503, 2.673874, -2.455553, -0.406326, 0.131869, -0.412237, -121.121399, -181.008957, -843.474243, 13.727859, 100.772432
1759230027.974159, -0.584335, 3.948039, -6.229413, 0.079251, 0.511620, -0.542460, -121.633881, -181.390015, -843.966614, 13.727859, 100.772432
1759230027.994165, -0.276231, 4.548085, -1.312172, 0.338668, 0.317905, -0.727637, -121.958511, -181.207642, -843.826660, 13.727859, 100.772432
1759230028.014156, 0.090082, 3.350536, 0.372448, 0.029273, 0.725704, -0.788301, -122.560425, -181.399338, -844.101562, 13.727859, 100.772432
1759230028.034158, 2.546233, 4.166210, -2.430713, -0.186716, 1.715270, -0.543947, -123.519363, -181.270203, -844.728760, 13.727859, 100.772432
1759230028.053811, 6.269816, 8.201487, -5.879710, -0.026626, 2.570664, 0.091790, -125.206116, -181.585358, -845.461060, 13.727859, 100.772432
1759230028.073189, 3.136853, 11.016620, -4.297891, 0.954534, 1.426607, -0.009468, -126.252716, -181.115707, -846.346802, 13.727859, 100.772432
1759230028.094161, 2.095675, 9.048736, -4.019266, 2.124428, -0.315860, -0.338906, -126.333923, -179.779312, -847.162659, 13.727859, 100.772432
1759230028.113741, 4.603002, 9.210793, -4.852897, 2.013943, 0.106894, 0.467178, -126.116074, -178.183746, -847.496582, 13.727859, 100.772432
1759230028.134155, 5.425411, 16.797719, -1.383549, 1.672789, 0.045136, 1.365896, -125.510757, -176.971512, -848.129395, 13.727859, 100.772432
1759230028.153832, 4.410868, 20.894946, -1.517625, 2.344452, -1.408330, 1.380177, -124.691559, -174.924942, -848.215271, 13.727859, 100.772432
1759230028.174211, 5.937171, 20.130448, 1.870919, 2.144071, -2.136079, 1.742940, -122.766129, -173.118179, -848.588501, 13.727859, 100.772432
1759230028.194164, -0.998532, 19.643377, 0.677260, 1.212831, -1.063195, 1.755515, -120.919662, -171.721024, -848.548157, 13.727859, 100.772432
1759230028.214150, -5.837961, 16.890195, -2.450316, 0.317921, 0.507119, 1.427701, -120.644287, -170.794464, -848.797302, 13.727859, 100.772432
1759230028.233848, -4.325425, 13.786711, -3.854515, -0.258972, 1.099477, 1.126323, -120.861694, -170.584213, -849.065430, 13.727859, 100.772432
1759230028.253851, -1.633145, 11.568334, -2.399589, -0.714466, 1.068687, 1.036435, -121.311325, -170.476654, -849.026245, 13.727859, 100.772432
1759230028.274189, -1.224933, 10.388890, -2.639009, -1.074487, 0.995653, 0.920499, -121.183945, -170.754883, -848.994324, 13.727859, 100.772432
1759230028.294154, -2.750190, 7.699304, -1.396119, -1.196054, 0.586117, 0.430726, -121.217346, -171.347305, -848.629395, 13.727859, 100.772432
1759230028.314157, -3.461267, 4.379893, -1.511340, -1.068587, 0.280824, -0.222420, -121.783432, -171.969681, -848.422852, 13.727859, 100.772432
1759230028.334155, -3.104531, 2.325817, -1.883638, -0.878848, 0.073362, -0.875399, -122.044586, -172.594315, -848.456543, 13.727859, 100.772432
1759230028.353863, -1.888127, 1.209670, -0.756568, -0.758691, -0.268214, -1.397314, -122.618027, -173.760529, -847.648682, 13.727859, 100.772432
1759230028.374164, -0.360627, 1.143531, 1.214608, -0.937377, -0.955403, -1.595016, -122.631348, -174.893219, -847.001465, 13.727859, 100.772432
1759230028.394159, -0.215179, 0.364966, 0.138265, -1.190710, -0.817026, -1.400677, -122.767242, -175.833740, -845.991272, 13.727859, 100.772432
1759230028.414152, 1.893514, 0.041001, -2.094627, -1.266534, 0.500653, -1.143679, -123.367279, -177.073685, -846.025146, 13.727859, 100.772432
1759230028.433183, 0.907103, 1.867328, 1.695394, -1.511816, -0.778862, -0.968390, -122.967255, -178.580399, -845.436951, 13.727859, 100.772432
1759230028.453892, -2.354548, 0.707636, 4.499902, -1.658022, -1.946259, -0.990050, -121.718399, -180.173492, -844.366821, 13.727859, 100.772432
1759230028.474146, -2.132037, 5.114314, 0.332195, -1.874338, -2.164813, -0.946483, -120.486069, -181.590820, -843.294739, 13.727859, 100.772432
1759230028.494154, 1.837699, 9.686641, -8.730606, -2.461303, 0.353526, -0.560725, -120.885773, -183.270691, -843.290283, 13.727859, 100.772432
1759230028.514160, 5.708824, 6.735937, -11.310957, 0.000264, 1.842128, -0.063980, -122.514114, -183.252991, -843.494629, 13.727859, 100.772432
1759230028.533386, 7.041197, 2.853739, 6.190657, 1.109429, -2.094529, 0.118900, -120.922668, -182.279694, -843.360779, 13.727859, 100.772432
1759230028.553918, 3.965247, 19.072210, -0.152181, 0.218009, -3.830663, 0.887784, -117.902237, -182.427658, -842.480774, 13.727859, 100.772432
1759230028.574148, -3.239355, 36.776584, 1.602170, -0.129768, -0.817271, 1.182678, -116.966614, -182.244431, -842.686768, 13.727859, 100.772432
1759230028.594153, -11.129297, 32.968755, -15.993417, 0.445281, 2.795456, 1.123957, -118.726822, -180.944275, -843.240784, 13.727859, 100.772432
1759230028.613606, 4.615273, 10.936264, 0.303166, 2.563125, 0.530606, -0.060899, -119.446732, -179.537827, -843.996948, 13.727859, 100.772432
1759230028.634163, 6.906224, 10.183737, 5.974132, 0.328480, -0.445363, 0.083920, -119.043976, -179.095886, -843.877563, 13.727859, 100.772432
1759230028.653937, 3.562722, 3.769820, 0.572513, 0.170594, -0.904495, -0.816357, -118.433533, -179.413467, -843.542603, 13.727859, 100.772432
1759230028.674157, 1.084274, 9.915437, 7.729680, -0.957791, -1.190002, -1.188254, -117.789368, -180.707825, -843.315735, 13.727859, 100.772432
1759230028.694162, -0.669778, 23.742999, 7.298424, -2.624886, 0.119044, -0.976128, -118.096710, -182.526398, -842.688904, 13.727859, 100.772432
1759230028.714157, 5.047127, 18.997392, -8.325238, -2.165764, 2.446801, -0.149264, -120.585159, -183.582428, -843.206787, 13.727859, 100.772432
1759230028.734148, 7.549516, 18.006641, -20.213796, 1.050044, 2.157548, 1.127706, -121.485092, -182.417084, -844.042175, 13.727859, 100.772432
1759230028.753966, 2.746449, 18.340183, -15.416863, 2.991111, 1.768962, 1.967444, -121.548981, -179.807251, -845.557129, 13.727859, 100.772432
1759230028.774150, -5.125836, 14.586823, -9.751583, 5.164316, 0.418139, 2.094899, -121.565826, -176.020706, -847.072021, 13.727859, 100.772432
1759230028.794153, -11.487978, 3.093458, 9.617508, 4.867445, 0.632362, 0.949150, -122.124832, -172.535797, -848.900879, 13.727859, 100.772432
1759230028.814160, -3.195212, -5.083938, 15.017780, 3.207163, -1.257108, 0.726044, -121.712646, -170.580048, -849.711121, 13.727859, 100.772432
1759230028.834169, -1.628506, -7.769184, -4.975450, 2.319686, 1.410140, 0.750204, -122.182129, -168.823410, -851.216187, 13.727859, 100.772432
1759230028.853979, 2.420538, -3.201646, 5.945102, 1.752357, 1.172121, 0.921557, -121.952087, -167.930176, -852.438232, 13.727859, 100.772432
1759230028.874172, 0.561740, 1.484704, 6.203377, 0.882023, 1.189328, 0.733705, -122.288712, -167.274841, -853.554871, 13.727859, 100.772432
1759230028.894154, 0.363919, 4.137031, 6.590339, 0.038641, 0.439128, 0.511301, -121.850006, -167.015076, -853.392334, 13.727859, 100.772432
1759230028.914148, 0.300772, 6.564901, 2.910751, -0.147265, -0.712737, 0.459818, -121.494247, -166.994034, -853.203491, 13.727859, 100.772432
1759230028.934149, 1.781735, 5.440524, 3.662530, -1.006015, -2.339065, -0.779453, -120.677002, -167.611206, -852.086731, 13.727859, 100.772432
1759230028.954001, 2.661903, 4.151845, 0.393397, -1.220608, -1.941339, -1.167163, -119.896576, -168.826691, -851.254700, 13.727859, 100.772432
1759230028.974136, -2.769942, 12.540080, -1.231218, -2.813281, -0.601724, -1.718660, -120.152725, -170.946182, -849.912170, 13.727859, 100.772432
1759230028.994137, -2.983026, 20.582353, -1.927632, -4.348591, -0.183988, -0.758840, -120.104156, -173.544724, -848.344543, 13.727859, 100.772432
1759230029.014142, -2.755277, 21.479730, -5.359720, -4.452431, 0.425575, -0.471738, -121.189377, -175.919922, -847.202515, 13.727859, 100.772432
1759230029.034136, 3.249081, 13.949068, -13.196840, -1.531469, 1.666230, -0.540144, -122.515137, -177.352753, -847.134460, 13.727859, 100.772432
1759230029.054015, 2.555062, 10.868778, -6.422596, -1.275121, 1.370761, -0.451607, -123.280197, -178.426590, -847.613647, 13.727859, 100.772432
1759230029.074132, 3.936516, 6.541707, 2.826205, -1.279910, 0.889972, -0.580782, -124.675797, -179.340057, -847.548035, 13.727859, 100.772432
1759230029.094142, 3.104082, 2.750938, 2.783259, -0.750835, -1.173427, -0.806164, -124.469360, -179.974014, -847.129272, 13.727859, 100.772432
1759230029.113873, 3.074454, 2.097620, 1.629254, -0.599215, -1.759947, -0.735840, -123.408173, -180.736496, -846.257874, 13.727859, 100.772432
1759230029.134142, 2.549077, 11.991808, -0.720206, -1.158312, -0.886177, 0.361565, -122.054001, -181.264099, -845.925293, 13.727859, 100.772432
1759230029.154042, 2.230348, 25.223064, -3.353229, -0.256461, -0.683611, 0.917845, -121.134293, -181.517929, -845.768616, 13.727859, 100.772432
1759230029.174136, -3.183390, 21.260211, -8.903288, 0.823667, -0.141017, 0.874443, -120.730316, -180.693604, -845.735229, 13.727859, 100.772432
1759230029.194134, -4.098424, 25.698164, -10.514586, 1.359387, 1.388542, 0.740629, -121.241608, -179.592957, -846.489014, 13.727859, 100.772432
1759230029.214144, 2.705298, 11.461343, 4.679766, 1.122970, 0.651345, 0.224271, -122.052994, -178.792999, -847.184387, 13.727859, 100.772432
1759230029.234192, 1.666215, 6.033089, 5.828983, 0.257981, -1.983272, -0.599054, -121.310730, -178.787781, -846.779785, 13.727859, 100.772432
1759230029.254060, 1.034894, 6.676830, 4.730494, -0.435387, -3.625852, -1.298651, -119.244583, -179.323105, -845.852417, 13.727859, 100.772432
1759230029.274137, 0.221314, 17.345692, 4.457405, -1.588154, -1.961897, -1.003199, -117.751373, -180.764664, -844.966370, 13.727859, 100.772432
1759230029.293442, 0.825251, 16.352697, 1.901445, -2.065617, 1.089726, -0.799504, -117.677109, -181.388565, -844.600037, 13.727859, 100.772432
1759230029.314143, 4.832098, 12.547861, -10.859051, -1.604595, 2.852092, -0.180837, -119.520447, -182.800278, -844.670410, 13.727859, 100.772432
1759230029.333573, 3.267038, 16.160263, -17.455077, 1.445567, 0.688096, 0.726639, -120.533203, -183.386658, -845.196655, 13.727859, 100.772432
1759230029.354077, -3.555389, 11.749395, -7.309947, 3.016804, 0.971401, 0.490624, -121.347931, -180.796249, -846.255737, 13.727859, 100.772432
1759230029.374165, -3.984700, 7.246500, -0.105943, 3.616046, 0.574732, 0.324426, -121.716522, -179.602219, -847.092407, 13.727859, 100.772432
1759230029.394158, -0.550367, 6.356905, -0.530465, 3.913595, 0.221470, 0.643819, -121.856628, -177.231247, -848.078613, 13.727859, 100.772432
1759230029.414167, -1.119439, 5.051317, 4.011934, 3.528634, 0.814988, 1.119502, -121.976593, -174.625275, -849.638855, 13.727859, 100.772432
1759230029.434156, -3.975422, 1.092803, 5.794866, 2.224602, 1.641207, 1.220605, -121.941925, -172.785233, -850.956299, 13.727859, 100.772432
1759230029.454100, -5.717653, -0.076465, -0.431704, 1.847161, 2.471114, 0.906488, -122.934845, -171.164795, -852.490234, 13.727859, 100.772432
1759230029.474168, -2.545336, 0.237325, 6.136638, 1.699506, 1.101299, 0.361894, -123.720749, -170.152664, -854.150635, 13.727859, 100.772432
1759230029.494151, 2.686743, 1.859098, 4.858733, 1.189917, 0.195934, 0.455465, -123.901413, -169.152588, -854.997192, 13.727859, 100.772432
1759230029.514148, 4.400842, 3.037494, 2.183961, 0.462461, 0.978750, 1.053192, -123.539612, -168.672272, -855.462585, 13.727859, 100.772432
1759230029.534169, -0.392649, 2.200421, 2.315941, -0.365769, 0.773747, 0.717194, -123.634293, -168.446594, -856.512085, 13.727859, 100.772432
1759230029.554118, -1.824232, 4.540454, 2.450316, -1.273179, -0.340786, -0.684941, -123.339386, -168.897736, -856.044983, 13.727859, 100.772432
1759230029.573688, -2.331055, 12.424560, 0.744148, -1.894421, -1.153548, -2.121499, -123.541138, -170.252930, -855.274414, 13.727859, 100.772432
1759230029.594153, 3.522320, 15.172206, -2.713528, -2.576339, -1.582401, -2.054106, -123.916565, -171.620468, -853.839966, 13.727859, 100.772432
1759230029.614154, 4.471621, 15.785271, -5.062390, -3.270405, -1.043824, -0.929971, -123.617859, -174.202347, -852.028381, 13.727859, 100.772432
1759230029.634171, 3.747823, 13.535918, -6.565948, -3.283971, -0.136303, -0.111908, -123.272232, -175.869049, -851.053162, 13.727859, 100.772432
1759230029.654124, 2.510320, 11.005098, -6.209512, -3.572037, 1.086615, -0.051222, -123.589371, -177.960663, -849.923401, 13.727859, 100.772432
1759230029.674153, 2.437447, 12.313678, -8.837447, -2.632855, 1.416469, -0.398149, -124.511963, -179.731293, -849.830566, 13.727859, 100.772432
1759230029.694142, 3.724779, 10.613945, -6.036231, -1.070108, -0.580227, -0.198107, -124.707428, -180.794006, -849.420349, 13.727859, 100.772432
1759230029.714141, 0.858770, 6.751499, -6.926725, 0.624142, -1.099916, 0.161359, -124.020615, -181.425674, -849.321289, 13.727835, 100.772419
1759230029.734186, -6.184971, 7.707234, 4.019865, 1.405221, -2.823417, -0.193881, -122.469223, -181.072174, -848.870728, 13.727835, 100.772419
1759230029.754126, -6.884826, 9.877728, 6.515670, 0.289343, -2.467858, -0.384926, -120.796387, -180.800797, -848.530518, 13.727835, 100.772419
1759230029.774186, -1.902492, 23.318926, -11.210101, -0.400339, -0.542204, 0.603910, -120.158569, -180.637787, -847.748901, 13.727835, 100.772419
1759230029.794082, 0.679055, 42.449944, -19.761441, 2.789828, 4.242055, 1.317404, -121.316513, -179.634445, -849.193298, 13.727835, 100.772419
1759230029.814251, 3.717447, 7.603984, 14.022540, 1.926312, 0.341572, 0.259551, -122.969650, -177.644653, -850.103210, 13.727835, 100.772419
1759230029.834186, 5.197064, 1.302146, 3.109469, 0.649733, -0.502232, -0.443940, -123.442810, -177.055527, -850.232178, 13.727835, 100.772419
1759230029.854123, 6.366781, 3.117999, 3.060837, 0.199746, -2.766923, -0.958905, -122.231415, -177.230179, -849.575378, 13.727835, 100.772419
1759230029.874162, 5.317672, 9.383624, 3.989339, -0.908517, -1.311349, -1.039120, -120.610550, -178.195923, -848.731079, 13.727835, 100.772419
1759230029.894156, 1.406893, 21.952734, 5.070021, -2.079600, 0.072453, -0.536973, -120.099258, -179.706100, -848.439331, 13.727835, 100.772419
1759230029.914197, -1.022623, 16.091878, -4.723910, -1.071802, -0.504773, -0.344418, -120.564896, -180.650726, -847.936462, 13.727835, 100.772419
1759230029.934170, -2.614767, 5.910685, -1.555034, -0.940930, -0.864075, -0.900786, -120.323730, -181.491791, -847.460144, 13.727835, 100.772419
1759230029.953697, 0.141856, 5.819706, 0.039355, -1.133628, -0.338272, -1.288764, -120.001343, -182.269135, -846.555237, 13.727835, 100.772419
1759230029.974128, 1.188871, 6.942886, 1.363797, -1.217608, -0.418347, -1.251543, -119.999680, -183.596069, -846.376465, 13.727835, 100.772419
1759230029.994150, 1.055394, 10.487202, -1.191564, -1.914659, 0.180878, -0.774228, -119.703400, -184.983688, -845.947876, 13.727835, 100.772419
1759230030.014015, 0.183306, 13.233950, -7.453748, -0.970887, 0.623189, -0.575160, -120.381012, -186.392838, -846.075806, 13.727835, 100.772419
1759230030.034168, 1.333870, 9.620351, -1.075894, -0.062527, -0.718462, -1.005940, -120.671646, -186.670959, -845.859436, 13.727835, 100.772419
1759230030.054124, 4.256891, 8.473080, -0.641347, 0.118405, -1.254984, -0.904183, -120.134781, -186.978073, -845.395813, 13.727835, 100.772419
1759230030.074241, 6.505196, 7.828291, -4.918887, 0.667747, -0.351432, -0.150550, -119.668518, -186.759918, -845.348877, 13.727835, 100.772419
1759230030.094149, 6.531981, 10.740089, -12.756007, 2.246516, 0.701927, 0.926045, -119.676178, -185.767746, -845.576416, 13.727835, 100.772419
1759230030.113805, -1.552341, 10.515334, -3.684826, 3.359254, -0.577314, 0.744955, -119.199753, -183.963303, -845.982422, 13.727835, 100.772419
1759230030.134147, -4.959589, 6.086061, 4.071789, 3.027207, -1.070415, 0.077406, -118.832245, -181.625229, -845.948181, 13.727835, 100.772419
1759230030.154123, -1.945588, 2.601001, 1.824082, 2.591465, -1.070648, 0.414911, -118.126389, -179.722031, -846.379333, 13.727835, 100.772419
1759230030.173423, -0.875380, 2.835034, -1.914912, 2.526435, 0.461890, 0.822373, -117.995575, -178.056305, -846.706909, 13.727835, 100.772419
1759230030.194154, -2.027290, 2.529324, 2.742109, 2.482395, 0.393907, 1.036218, -118.050568, -176.387146, -847.570312, 13.727835, 100.772419
1759230030.214150, -1.969381, 4.588338, -0.424073, 2.185196, -0.891706, 1.633199, -117.252090, -174.468155, -848.178101, 13.727835, 100.772419
1759230030.234150, 0.439186, 11.773337, -7.054964, 2.124644, 0.938102, 2.425690, -116.664246, -172.395828, -849.200195, 13.727835, 100.772419
1759230030.253685, 3.722984, 18.585589, 3.662530, 1.001406, 1.304391, 2.407559, -116.130997, -171.088638, -850.085327, 13.727835, 100.772419
1759230030.274148, 8.324041, 17.618481, 1.934814, -0.222427, 0.576205, 1.323471, -116.467743, -170.571640, -849.761780, 13.727835, 100.772419
1759230030.293463, 7.474398, 12.141296, -5.017798, -0.299423, -0.283181, 1.144383, -115.609680, -170.591980, -849.438599, 13.727835, 100.772419
1759230030.314166, 0.569670, 9.513660, -3.448099, -0.827508, -0.764491, 1.004299, -114.953552, -170.854019, -848.689636, 13.727835, 100.772419
1759230030.334166, -1.752406, 7.252336, -3.498976, -1.393114, -0.486067, 1.140845, -113.922806, -171.675949, -848.070435, 13.727835, 100.772419
1759230030.354122, -4.805163, 3.931578, -4.262876, -1.606597, -0.439153, 0.540269, -113.284454, -172.439667, -847.350586, 13.727835, 100.772419
1759230030.373430, -4.335600, 1.161786, -3.795857, -1.383950, -0.996295, -0.431116, -113.163818, -173.166229, -846.469177, 13.727835, 100.772419
1759230030.394151, 1.256806, 1.640776, -2.211494, -1.759910, -0.833658, -0.689684, -112.826843, -174.305008, -845.685303, 13.727835, 100.772419
1759230030.414142, 5.090073, 3.828777, -1.993323, -2.241255, -0.753243, -0.444055, -112.318924, -175.976120, -844.561523, 13.727835, 100.772419
1759230030.434148, 4.008791, 11.323077, -14.753669, -0.166240, -1.799647, -0.283608, -111.159912, -176.515366, -844.147644, 13.727835, 100.772419
1759230030.454121, 0.948104, 14.762647, -9.460688, 0.415140, -0.822456, -0.176022, -110.242615, -176.275482, -843.591553, 13.727835, 100.772419
1759230030.474143, 0.651821, 14.458733, -5.058200, 0.104954, -0.339666, -0.059936, -110.460968, -176.132874, -843.268005, 13.727835, 100.772419
1759230030.494153, 0.283114, 6.964134, -4.993257, -0.047803, -0.586904, -0.110333, -110.496735, -175.900116, -843.539856, 13.727835, 100.772419
1759230030.514169, 0.626233, 3.425953, -5.316923, 0.115686, -0.326855, -0.003545, -110.475861, -175.984497, -843.048096, 13.727835, 100.772419
1759230030.534236, 2.094627, 3.599383, -3.697246, -0.005400, 0.554497, 0.279652, -110.946777, -175.828003, -843.075378, 13.727835, 100.772419
1759230030.554122, 0.484527, 4.894197, 1.766622, 1.220936, -1.010127, 0.785166, -109.126328, -175.576553, -843.370544, 13.727835, 100.772419
1759230030.574144, -16.584635, 31.929822, -6.097433, 0.468334, -2.181592, 0.610793, -107.725616, -174.558014, -842.870117, 13.727835, 100.772419
1759230030.594153, 3.538480, 38.799085, 4.450073, -0.965107, 4.123291, 2.147954, -109.570328, -174.117615, -843.215332, 13.727835, 100.772419
1759230030.614162, 3.910330, 17.405248, 17.392229, 2.142705, 0.465700, 0.551914, -109.925339, -172.818848, -843.718018, 13.727835, 100.772419
1759230030.634154, -7.219865, 7.947702, 9.238476, 0.430034, -1.355830, -0.451256, -109.140106, -173.237823, -843.842163, 13.727835, 100.772419
1759230030.654120, -8.006210, 8.820538, 8.134749, -1.395340, -1.292419, -0.921489, -108.556442, -173.862183, -843.122192, 13.727835, 100.772419
1759230030.674131, -2.399439, 16.363171, 4.601207, -1.721667, -0.440322, -1.207259, -108.958038, -175.017700, -842.758240, 13.727835, 100.772419
1759230030.693934, 1.862390, 18.001404, -0.956184, -1.192283, 0.821008, -1.298383, -110.045761, -175.907684, -842.004456, 13.727835, 100.772419
1759230030.714126, 5.800552, 13.624653, 1.820940, -1.350813, -0.077952, -0.126740, -110.531433, -176.906128, -841.468079, 13.727835, 100.772419
1759230030.734213, 2.967763, 7.071873, -0.244059, -2.009637, -0.220269, 0.617103, -109.766083, -177.506058, -841.238953, 13.727835, 100.772419
1759230030.754121, -2.474557, 4.523994, -3.479074, -2.036171, -0.145949, 0.029028, -109.622757, -179.233154, -840.675171, 13.727835, 100.772419
1759230030.774148, -2.022352, 4.763713, -2.277933, -1.648432, -0.987224, -0.658419, -109.425491, -180.504913, -839.824341, 13.727835, 100.772419
1759230030.793674, 0.025887, 6.045808, -4.048146, -1.355650, -1.439277, -0.962592, -108.355698, -182.151215, -839.453125, 13.727835, 100.772419
1759230030.814165, 0.564134, 6.978948, -7.200861, -0.831788, -1.632805, -1.219109, -107.647675, -183.022507, -839.192749, 13.727835, 100.772419
1759230030.834156, 2.350657, 7.890989, -6.949470, -0.559484, -1.363964, -1.195909, -106.306747, -183.592361, -839.071167, 13.727835, 100.772419
1759230030.854117, 1.995717, 8.760683, -4.200328, -0.425629, -0.948363, -1.110068, -105.758347, -184.165756, -838.596924, 13.727835, 100.772419
1759230030.874144, 0.163404, 11.357344, -0.887052, -0.462895, -0.580539, -0.866988, -105.317322, -184.562286, -838.698914, 13.727835, 100.772419
1759230030.894151, 0.142156, 14.151378, 0.540491, -0.765076, -0.178159, -0.404759, -104.890823, -184.951477, -838.925903, 13.727835, 100.772419
1759230030.914143, 1.233612, 13.808857, -1.496675, -0.574985, 0.001739, -0.526106, -105.329819, -185.325027, -838.361877, 13.727835, 100.772419
1759230030.934141, 3.886388, 10.981904, -1.782483, -0.400054, 0.104486, -0.270136, -105.540146, -185.886292, -838.288757, 13.727835, 100.772419
1759230030.954119, 3.107075, 8.538471, -1.170765, -0.058725, -0.260797, -0.075122, -105.551407, -186.072861, -837.990234, 13.727835, 100.772419
1759230030.974145, 1.237054, 8.998757, 2.725948, 0.037002, -0.957028, -0.142669, -105.067932, -186.278488, -838.036743, 13.727835, 100.772419
1759230030.994115, 0.786495, 8.913164, 5.455338, -0.179173, -1.267267, -0.336484, -104.309723, -186.436020, -838.209229, 13.727835, 100.772419
1759230031.014143, 1.223587, 7.945009, 4.533570, -0.420362, -1.019746, -0.380514, -103.223236, -186.723221, -837.909058, 13.727835, 100.772419
1759230031.034231, -0.283563, 8.530541, 1.833659, -0.354953, -0.003034, -0.388756, -102.847290, -186.807114, -837.473389, 13.727835, 100.772419
1759230031.054125, -1.802385, 11.138724, 2.238878, -0.243408, -0.007916, -0.272053, -103.033859, -187.257004, -837.668640, 13.727835, 100.772419
1759230031.074131, -2.350059, 11.707646, 2.934693, -0.344841, -1.022596, -0.277378, -102.852631, -187.475937, -837.658203, 13.727835, 100.772419
1759230031.094146, -1.714847, 9.865906, 1.335665, -0.317127, -1.031013, -0.354637, -102.044174, -187.453568, -837.758301, 13.727835, 100.772419
1759230031.113871, -2.059013, 9.081805, 0.118962, -0.374594, -0.442477, -0.190060, -101.692123, -187.751480, -837.609924, 13.727835, 100.772419
1759230031.134150, -3.893421, 7.866598, -1.162684, -0.319291, 0.173227, -0.154285, -101.773026, -188.158859, -837.243713, 13.727835, 100.772419
1759230031.154118, -4.461296, 6.974309, -1.641225, -0.070307, 0.332351, -0.504270, -102.123947, -188.290070, -837.204956, 13.727835, 100.772419
1759230031.174102, -2.212991, 8.033594, -0.284910, 0.207288, -0.070928, -1.012289, -102.235825, -188.293167, -836.963867, 13.727835, 100.772419
1759230031.194137, 1.594389, 10.576835, 2.101660, 0.268074, -0.984724, -1.301936, -101.837540, -187.587173, -836.888672, 13.727835, 100.772419
1759230031.214149, 5.389049, 13.207763, 2.794183, 0.011409, -1.350217, -1.111183, -100.883545, -187.636566, -836.859192, 13.727835, 100.772419
1759230031.234149, 7.037457, 13.185766, 1.354370, -0.214797, -0.601071, -0.518613, -100.246429, -187.718170, -836.753418, 13.727835, 100.772419
1759230031.254118, 4.902726, 9.788993, -1.248127, -0.086989, 0.028357, 0.115855, -100.451965, -188.048782, -836.741821, 13.727835, 100.772419
1759230031.274134, 1.390133, 9.061604, -3.528904, 0.326487, -0.180531, 0.415466, -100.089127, -188.049301, -836.340393, 13.727835, 100.772419
1759230031.293347, -0.653767, 11.576564, -5.338172, 1.067202, -0.649574, 0.251308, -99.267471, -187.381729, -836.698486, 13.727835, 100.772419
1759230031.314141, 1.138443, 14.150480, -4.724658, 1.784110, -0.816150, 0.179010, -98.914337, -186.120529, -836.625854, 13.727835, 100.772419
1759230031.334143, 4.819378, 14.899715, -3.514239, 2.253434, -0.807663, 0.779740, -98.478790, -184.024780, -836.638306, 13.727835, 100.772419
1759230031.354119, 4.602853, 12.829330, -3.582624, 2.830437, -0.717941, 1.554682, -97.873138, -182.077271, -837.344910, 13.727835, 100.772419
1759230031.374137, -0.505625, 9.515754, 2.287360, 3.034457, -1.883609, 1.383092, -96.181961, -179.988663, -837.719543, 13.727835, 100.772419
1759230031.394146, -0.623241, 7.019650, 10.097994, 1.438296, -2.004712, 1.194647, -94.539307, -178.339142, -838.214111, 13.727835, 100.772419
1759230031.413767, 3.780744, 9.467122, 2.732832, 0.021938, -0.700377, 1.394313, -93.634995, -178.332245, -838.222656, 13.727835, 100.772419
1759230031.433841, 4.161272, 14.783447, -2.931550, 0.083267, -0.523556, 1.879027, -92.801422, -178.878922, -838.176514, 13.727835, 100.772419
1759230031.454111, 2.215983, 12.816161, 1.076792, 0.546847, -2.019281, 1.922066, -90.930771, -178.888123, -838.717896, 13.727835, 100.772419
1759230031.474187, -0.434697, 9.645790, 2.518102, 0.378721, -2.350583, 1.673909, -88.945023, -178.896591, -839.357544, 13.727835, 100.772419
1759230031.494145, -0.937480, 8.436718, 0.936582, -0.016171, -2.345315, 1.565088, -86.697800, -179.347900, -840.058716, 13.727835, 100.772419
1759230031.514254, -1.839495, 7.675062, -0.716465, -0.034681, -2.510708, 1.370094, -84.519562, -179.853973, -840.712463, 13.727835, 100.772419
1759230031.533881, -2.834286, 6.779182, -1.268179, -0.076723, -2.485276, 1.137037, -82.436066, -180.420700, -841.663025, 13.727835, 100.772419
1759230031.554119, -2.813486, 5.794417, -0.381875, -0.169522, -2.680545, 0.797710, -80.502350, -180.717026, -842.678467, 13.727835, 100.772419
1759230031.574169, -2.475156, 5.916372, -0.295983, -0.216620, -2.821703, 0.432496, -78.433914, -181.207581, -843.877747, 13.727835, 100.772419
1759230031.594147, -2.951153, 6.110452, -0.258574, -0.287154, -2.908405, 0.098284, -76.243942, -181.397339, -845.134949, 13.727835, 100.772419
1759230031.614145, -3.203292, 5.857714, -0.854580, -0.434914, -2.847073, -0.261499, -74.969482, -181.517639, -846.134460, 13.727835, 100.772419
1759230031.634134, -2.698415, 5.381567, -1.846977, -0.545106, -2.716684, -0.697666, -73.390839, -181.191254, -847.619568, 13.727835, 100.772419
1759230031.653658, -0.948553, 7.612963, -3.861249, -0.436240, -2.354419, -1.022567, -71.951706, -180.652969, -848.666748, 13.727835, 100.772419
1759230031.674183, 1.783980, 12.660538, -6.386832, -0.056701, -2.141799, -0.875251, -71.222992, -179.868683, -849.873962, 13.727835, 100.772419
1759230031.694117, 3.530250, 14.798411, -6.001515, 0.189773, -1.581103, -0.301821, -70.320511, -179.643707, -850.860779, 13.727835, 100.772419
1759230031.714143, 2.200720, 12.649764, -3.987693, 0.142781, -0.371984, 0.294969, -70.415207, -179.547638, -850.987549, 13.727835, 100.772419
1759230031.734180, -0.876427, 8.412028, -2.292747, -0.186633, 0.306782, 0.565594, -70.769455, -179.875732, -850.507812, 13.727835, 100.772419
1759230031.753375, -5.861754, 9.245659, -1.283142, -0.540305, 0.816018, 0.371136, -70.495987, -180.325836, -850.038940, 13.727835, 100.772419
1759230031.774126, -12.731916, 22.586150, 0.040701, -0.528167, -0.307800, -0.081079, -70.690475, -180.249802, -850.140930, 13.727835, 100.772419
1759230031.793242, -1.598878, 17.150564, -11.221922, 0.874666, 1.914177, -0.274558, -73.033768, -178.910187, -849.260803, 13.727835, 100.772419
1759230031.814142, 7.158364, 4.205415, 10.300454, 0.417725, 1.831492, -0.163080, -74.138870, -178.720245, -848.570007, 13.727835, 100.772419
1759230031.834165, 0.825850, 1.189769, 7.614609, -0.215321, 1.001776, -0.658997, -75.072357, -178.267975, -848.009399, 13.727835, 100.772419
1759230031.854116, 1.234810, 2.572420, 3.927389, -0.395883, -0.730342, -1.104533, -74.656036, -177.797836, -848.004150, 13.727835, 100.772419
1759230031.874138, 3.442413, 9.568577, 5.102792, -0.521034, -1.991157, -1.041330, -73.651047, -177.565567, -848.868958, 13.727835, 100.772419
1759230031.894157, 1.614141, 16.787843, 2.382829, -0.418126, -1.041675, -0.826190, -73.409470, -177.397415, -850.015015, 13.727835, 100.772419
1759230031.914156, 3.213468, 15.758486, 2.983624, -0.810133, -0.191476, -0.194621, -74.073929, -177.394852, -849.565308, 13.727835, 100.772419
1759230031.934218, 1.067964, 9.127295, 0.386963, -1.221565, -0.103919, 0.347010, -73.803818, -178.554764, -849.214233, 13.727835, 100.772419
1759230031.953685, -3.056498, 7.982568, -3.491943, -0.948650, -0.200418, 0.202342, -73.310913, -179.320221, -849.195068, 13.727835, 100.772419
1759230031.974159, -4.494665, 7.805846, -3.933673, 0.000840, -0.433786, -0.162613, -73.359146, -178.912521, -849.142456, 13.727835, 100.772419
1759230031.994134, -2.051232, 9.272444, 1.184531, 0.256560, -1.112982, -0.454438, -72.923004, -178.573135, -850.242676, 13.727835, 100.772419
1759230032.014158, -0.201861, 9.097667, 3.438373, -0.111110, -1.651791, -0.592504, -72.491302, -178.105484, -851.469116, 13.727835, 100.772419
1759230032.034220, 2.110788, 9.023447, 3.259706, -0.571226, -1.560862, -0.479296, -72.006516, -178.324127, -851.992859, 13.727835, 100.772419
1759230032.053495, 2.320281, 9.241618, 2.464082, -0.969295, -1.382917, -0.131278, -71.423523, -178.745575, -851.978271, 13.727835, 100.772419
1759230032.073320, 0.304812, 9.679608, 1.837250, -1.303180, -1.369153, 0.181804, -70.571381, -179.244339, -852.873535, 13.727835, 100.772419
1759230032.094120, -1.444452, 9.406818, -0.379331, -1.198464, -1.161102, 0.312817, -69.614365, -180.549194, -853.293396, 13.727835, 100.772419
1759230032.114115, -3.045724, 8.375366, -1.351676, -0.860893, -0.956011, 0.112542, -69.473984, -181.131012, -853.672241, 13.727835, 100.772419
1759230032.134147, -3.340660, 8.100332, -0.899472, -0.600641, -0.970001, -0.222354, -68.961731, -181.225754, -853.822144, 13.727835, 100.772419
1759230032.153135, -2.960131, 9.046042, 0.178518, -0.703336, -0.639642, -0.551536, -68.810837, -181.430267, -854.186401, 13.727835, 100.772419
1759230032.174140, -1.288829, 9.882217, 1.206079, -0.988903, -0.705752, -0.854064, -69.064667, -181.121216, -854.459839, 13.727835, 100.772419
1759230032.193619, 0.846799, 9.629928, -0.498892, -0.999365, -0.557669, -1.090874, -68.875732, -180.791107, -854.268921, 13.727835, 100.772419
1759230032.214139, 3.223942, 9.869498, -1.420659, -0.774707, -0.437748, -1.039449, -69.501434, -180.129990, -854.341919, 13.727835, 100.772419
1759230032.234140, 4.340538, 11.258284, -1.676989, -0.581484, -0.423644, -0.824435, -69.202698, -179.881653, -854.855347, 13.727835, 100.772419
1759230032.253162, 4.535067, 12.216564, -2.953846, -0.120984, -0.720945, -0.589400, -69.517426, -179.533798, -855.006165, 13.727835, 100.772419
1759230032.274143, 2.473510, 11.197831, -4.000561, 0.657286, -1.388155, -0.346496, -69.392075, -179.054474, -856.005005, 13.727835, 100.772419
1759230032.294143, 1.534234, 9.797223, -2.451214, 1.658039, -2.173827, -0.638236, -68.816406, -177.827057, -857.539917, 13.727835, 100.772419
1759230032.314136, 5.129876, 12.892028, 0.939275, 1.915064, -2.930143, -0.583261, -68.354553, -176.610565, -860.105408, 13.727835, 100.772419
1759230032.334138, 8.970176, 17.205781, -3.207632, 2.698725, -2.434070, 0.383453, -67.566620, -175.724442, -862.808228, 13.727835, 100.772419
1759230032.353174, 7.016358, 18.937537, -3.233369, 4.089291, -2.188243, 1.627355, -66.861374, -175.604843, -865.500610, 13.727835, 100.772419
1759230032.374146, -1.098789, 15.446192, 2.960430, 3.957868, -0.800563, 2.240873, -65.673569, -176.968674, -867.965820, 13.727835, 100.772419
1759230032.394142, -6.033687, 12.472444, 10.284443, 2.117638, 0.090143, 2.059395, -65.221893, -177.781815, -869.291504, 13.727835, 100.772419
1759230032.414135, -5.178209, 11.406426, 7.537246, 0.941172, -1.331736, 1.529934, -64.962891, -178.736908, -870.187683, 13.727835, 100.772419
1759230032.434185, -0.882263, 11.378892, 0.371251, 1.124463, -1.790163, 1.192705, -64.920395, -179.148621, -872.174438, 13.727835, 100.772419
1759230032.453205, 4.481796, 12.207585, 0.554856, 1.461242, -1.726940, 1.514910, -64.837952, -180.111313, -873.619629, 13.727835, 100.772419
1759230032.474143, 3.463213, 11.376797, 3.422362, 1.247059, -0.917305, 1.715367, -64.566650, -181.357742, -874.919189, 13.727835, 100.772419
1759230032.494133, 2.792986, 10.969933, 6.097583, 0.530922, -1.343095, 2.002010, -63.936462, -183.077576, -876.157959, 13.727835, 100.772419
1759230032.514136, 0.004938, 10.609007, 3.024026, 0.428118, -2.211497, 2.183057, -63.736404, -184.834076, -877.977295, 13.727835, 100.772419
1759230032.534149, -2.567931, 8.908525, 3.618836, 0.286892, -2.735050, 1.994282, -63.763245, -186.738785, -880.513428, 13.727835, 100.772419
1759230032.553221, -3.363554, 7.436241, 4.005350, -0.002515, -3.243637, 1.665521, -63.751999, -188.110046, -883.081543, 13.727835, 100.772419
1759230032.574139, -3.712060, 6.442946, 2.472911, -0.224739, -2.938015, 1.498064, -64.085495, -189.239670, -885.623962, 13.727835, 100.772419
1759230032.594134, -4.438850, 6.713192, 2.887108, -0.640411, -2.588240, 1.184661, -64.264816, -190.297012, -887.715271, 13.727835, 100.772419
1759230032.614143, -4.570531, 6.720524, 2.875885, -0.942475, -2.674022, 0.646407, -65.251709, -190.707062, -889.732178, 13.727835, 100.772419
1759230032.634141, -3.438971, 6.227767, 2.180669, -1.207197, -2.765148, 0.230578, -65.973541, -190.501175, -891.590088, 13.727835, 100.772419
1759230032.653247, -3.013552, 6.028450, 1.386093, -1.621265, -2.623845, -0.065487, -66.463928, -190.076752, -893.781250, 13.727835, 100.772419
1759230032.674139, -2.584541, 6.267272, 1.371279, -2.109977, -2.728418, -0.520622, -67.422516, -189.039078, -895.832153, 13.727835, 100.772419
1759230032.694131, -3.151518, 8.949376, 0.230143, -2.161633, -2.485553, -1.237826, -68.355423, -187.220871, -897.592407, 13.727835, 100.772419
1759230032.714132, -0.100856, 14.837766, -0.959626, -1.727234, -3.166608, -1.074754, -69.614960, -185.675888, -899.254089, 13.727835, 100.772419
1759230032.734142, 1.399261, 16.474053, -11.772589, -0.528645, -2.437283, -0.309839, -70.953918, -185.190033, -900.949463, 13.727835, 100.772419
1759230032.753239, -0.879570, 11.211448, -9.189395, 0.455417, -1.352350, 0.097567, -71.729370, -185.085587, -901.909668, 13.727835, 100.772419
1759230032.774142, -2.788197, 6.788160, -2.436100, 0.979122, 0.154986, 0.197488, -71.959824, -185.848297, -901.952087, 13.727835, 100.772419
1759230032.793459, -3.838354, 2.700659, 7.325210, 0.137351, 0.162946, 0.393137, -71.875381, -186.234680, -902.028503, 13.727835, 100.772419
1759230032.814139, -8.159589, 3.662979, 2.993500, -0.743181, -2.091194, 0.061610, -72.259048, -186.006958, -903.222778, 13.727835, 100.772419
1759230032.833574, -5.147234, 20.000712, -1.383998, -1.079624, -1.482075, -0.723654, -73.527863, -184.684113, -904.138184, 13.727835, 100.772419
1759230032.853268, 3.289633, 20.093188, 2.432509, 0.082262, -0.667139, -1.427040, -74.319229, -183.535172, -904.511353, 13.727835, 100.772419
1759230032.874182, 8.698434, 12.809877, -0.964863, 0.637267, -0.488506, -0.204230, -74.932480, -183.865570, -904.807922, 13.727835, 100.772419
1759230032.894137, 3.149872, 5.780650, 1.397765, 0.830579, -1.355566, 0.385423, -75.541061, -184.395523, -905.595459, 13.727835, 100.772419
1759230032.914135, -0.109385, 6.714539, 4.557812, -0.160813, -1.273918, 0.300345, -76.254089, -184.484070, -906.353088, 13.727835, 100.772419
1759230032.933450, 0.032771, 9.544784, 1.443105, -0.731621, -0.534131, 0.501517, -76.342468, -184.841278, -906.757629, 13.727835, 100.772419
1759230032.953290, -1.674894, 10.650456, -0.098162, -0.871713, 0.687676, 0.614624, -75.770370, -184.532639, -905.914612, 13.727835, 100.772419
1759230032.974127, -3.222745, 9.919477, 0.229095, -0.774334, 0.810448, 0.252194, -75.397781, -184.033752, -905.402161, 13.727835, 100.772419
1759230032.994106, -2.069638, 8.973169, 0.221464, -0.535114, 0.431878, -0.208859, -75.226700, -183.483490, -905.030151, 13.727835, 100.772419
1759230033.013212, -0.021548, 9.148993, -0.073173, -0.269372, 0.078794, -0.435462, -75.499969, -183.200928, -905.176636, 13.727835, 100.772419
1759230033.034184, 1.553388, 8.660276, 0.730830, -0.237356, -0.007335, -0.347799, -75.484695, -182.827438, -905.109741, 13.727835, 100.772419
1759230033.053320, 1.366191, 9.060557, 1.106420, -0.435886, 0.310264, -0.158738, -75.456650, -182.616043, -904.926392, 13.727835, 100.772419
1759230033.074134, 0.344765, 10.074501, 1.094898, -0.681009, 0.449113, -0.096380, -75.125076, -182.074631, -904.699890, 13.727835, 100.772419
1759230033.093953, -0.049680, 10.111761, 0.106692, -0.693280, 0.400338, -0.181123, -75.009537, -181.487625, -903.755920, 13.727835, 100.772419
1759230033.114136, 0.281019, 9.856928, -0.427066, -0.518458, 0.336615, -0.274889, -74.961563, -181.085693, -903.854370, 13.727835, 100.772419
1759230033.134159, 0.839916, 10.015694, 0.227300, -0.455874, 0.120418, -0.291729, -74.978394, -180.660355, -903.496094, 13.727835, 100.772419
1759230033.153329, 1.196203, 10.084976, -0.583138, -0.381846, 0.034042, -0.211576, -74.992569, -180.537170, -903.433960, 13.727835, 100.772419
1759230033.174158, 0.941819, 9.293842, -1.075296, -0.195014, 0.062191, -0.173038, -75.137161, -179.936508, -903.310120, 13.727835, 100.772419
1759230033.194130, 0.707038, 9.099313, -0.019902, -0.122969, -0.147285, -0.241175, -74.874451, -180.082382, -903.389099, 13.727835, 100.772419
1759230033.214134, 0.854281, 9.513360, 0.725443, -0.185689, -0.247380, -0.308292, -75.453384, -179.646759, -903.405396, 13.727835, 100.772419
1759230033.234154, 1.082179, 9.480590, 0.420182, -0.307641, -0.188599, -0.274938, -75.680222, -179.157196, -903.382935, 13.727835, 100.772419
1759230033.253353, 0.845452, 9.045294, -0.484078, -0.311423, -0.114443, -0.191298, -75.763046, -179.088882, -903.352112, 13.727835, 100.772419
1759230033.274188, 0.527622, 9.101109, -1.067814, -0.212131, -0.023570, -0.130897, -75.737991, -179.000168, -903.445557, 13.727835, 100.772419
1759230033.294133, 0.520589, 9.456947, -1.148469, -0.079517, -0.058602, -0.113019, -75.689301, -178.821243, -903.304626, 13.727835, 100.772419
1759230033.314147, 0.717213, 8.993819, -1.712902, 0.216660, -0.176682, -0.125385, -76.128815, -178.860382, -903.362061, 13.727835, 100.772419
1759230033.334155, 1.232715, 8.164976, -2.010680, 0.575908, -0.153224, -0.106196, -76.321823, -179.093674, -903.835754, 13.727835, 100.772419
1759230033.353368, 1.832911, 7.444022, -2.567931, 1.037655, -0.035882, 0.041767, -76.265656, -179.892700, -904.304260, 13.727835, 100.772419
1759230033.374153, 0.958130, 6.357952, -1.193809, 1.255020, -0.354280, 0.084927, -76.589218, -180.618835, -904.624451, 13.727835, 100.772419
1759230033.394153, -0.033369, 5.267094, 0.232088, 1.303343, -0.959561, -0.048774, -77.165436, -181.359879, -905.636719, 13.727835, 100.772419
1759230033.414159, 0.948852, 5.694309, 0.704195, 1.090410, -0.978124, -0.096087, -77.721527, -181.844254, -906.344727, 13.727835, 100.772419
1759230033.434122, 1.220893, 6.938696, -0.206799, 0.721262, -0.485214, -0.063770, -78.064423, -182.408142, -906.650574, 13.727835, 100.772419
1759230033.453391, 0.374094, 7.700950, -0.988805, 0.851178, -0.323044, -0.158741, -77.935608, -182.695572, -906.845703, 13.727835, 100.772419
1759230033.474124, 0.561740, 7.827992, -1.945738, 0.930718, -0.207464, -0.142394, -78.404633, -183.207397, -907.400574, 13.727835, 100.772419
1759230033.494133, 0.461033, 6.943484, 0.784999, 0.760005, -0.376409, -0.251231, -78.531891, -183.604263, -907.492065, 13.727835, 100.772419
1759230033.514132, 1.973271, 6.737583, -1.116446, 0.626799, 0.049144, -0.143697, -78.705872, -183.783051, -907.749268, 13.727835, 100.772419
1759230033.534145, 4.301931, 7.828890, -5.591808, 1.032017, 1.262531, 0.462652, -78.022644, -184.467499, -907.222351, 13.727835, 100.772419
1759230033.553411, 4.001758, 12.488455, -9.358785, 1.720629, 1.278010, 1.129949, -77.053375, -186.434525, -906.824097, 13.727835, 100.772419
1759230033.574136, 0.541688, 17.571345, -1.814057, 2.147034, -0.223661, 1.163960, -76.767975, -188.381622, -907.223999, 13.727835, 100.772419
1759230033.594015, 0.813879, 17.816601, -2.791340, 2.423047, -0.257609, 1.558381, -77.115860, -190.270416, -907.233032, 13.727835, 100.772419
1759230033.614137, 1.260996, 16.831088, -3.018490, 2.764299, -0.780698, 1.857172, -77.393082, -193.122314, -907.975220, 13.727835, 100.772419
1759230033.634177, -0.489465, 21.557541, -0.883760, 2.354432, -0.164188, 2.222334, -77.864670, -196.180038, -907.783691, 13.727835, 100.772419
1759230033.653434, -7.257873, 17.991079, -0.093374, 1.358576, 0.773254, 1.541571, -77.721039, -197.907669, -907.474609, 13.727835, 100.772419
1759230033.674131, -4.212448, 10.355970, -2.698565, 0.980152, 0.556825, 1.009677, -77.875916, -198.925613, -906.997559, 13.727835, 100.772419
1759230033.694142, -1.650203, 7.183054, -2.682703, 0.326728, 0.724200, 0.658389, -77.725708, -199.584351, -906.460632, 13.727835, 100.772419
1759230033.714143, -0.322619, 8.121132, -3.722385, -0.167119, 1.169790, 0.552142, -77.302017, -199.965103, -905.786560, 13.727835, 100.772419
1759230033.734178, -1.620426, 7.741501, -0.533757, -0.597023, 1.027345, 0.292341, -76.757706, -199.835907, -905.418762, 13.727835, 100.772419
1759230033.753447, -2.525733, 5.730522, 0.063297, -0.828937, 0.718999, -0.091076, -76.648483, -199.337006, -904.765991, 13.727835, 100.772419
1759230033.774132, -2.750788, 3.498078, 0.248997, -1.100234, 0.466506, -0.468592, -76.368439, -198.465698, -904.498718, 13.727835, 100.772419
1759230033.794000, -2.748693, 1.964143, -0.172233, -1.424813, 0.425378, -0.837171, -76.223206, -197.218124, -904.907043, 13.727835, 100.772419
1759230033.814126, -3.173963, 0.550367, -0.417339, -1.762013, 0.540180, -1.338400, -75.890182, -195.611420, -904.341675, 13.727835, 100.772419
1759230033.834106, -1.449091, 0.335787, 0.029778, -1.828563, 0.418131, -1.564062, -75.568451, -193.542480, -904.562134, 13.727835, 100.772419
1759230033.853458, 1.089661, 0.296881, 0.311695, -1.866259, 0.195571, -1.545702, -75.651352, -191.635178, -904.175415, 13.727835, 100.772419
1759230033.874132, 3.787028, 1.576133, 2.152687, -2.347909, -0.506201, -1.325822, -75.757111, -189.861191, -904.402893, 13.727835, 100.772419
1759230033.894140, 2.748693, 5.961861, -1.258153, -2.678660, -1.367544, -1.304779, -76.330048, -187.842010, -904.949158, 13.727835, 100.772419
1759230033.913494, 7.171532, 13.691242, -4.942829, -2.029146, -1.332149, -0.851362, -77.502808, -186.118988, -905.049500, 13.727835, 100.772419
1759230033.934127, 8.698284, 15.910966, -5.850830, -1.038420, -0.480350, 0.282012, -77.841461, -185.787018, -905.115356, 13.727835, 100.772419
1759230033.953482, 3.842544, 6.941838, -1.176451, -1.130587, 0.415141, 0.981534, -77.756622, -185.880295, -904.916992, 13.727835, 100.772419
1759230033.974127, -3.307590, 1.713799, 2.984672, -0.937457, -2.684142, 0.604922, -78.259628, -186.288086, -906.207092, 13.727835, 100.772419
1759230033.994132, -5.307347, 11.742661, 0.377835, -0.116247, -4.673417, -0.455838, -80.959641, -185.790588, -908.702393, 13.727835, 100.772419
1759230034.014136, 0.779313, 37.111024, -13.575273, 0.840094, -1.091791, 0.467466, -82.097504, -186.303085, -909.162903, 13.727835, 100.772419
1759230034.034128, 1.999907, 21.751771, -7.987955, 2.225734, 0.135564, 1.672444, -81.892532, -188.872406, -909.307861, 13.727835, 100.772419
1759230034.053509, -10.220997, 7.141305, -3.759794, 1.835613, 1.352027, 0.667494, -81.568298, -190.060669, -908.671631, 13.727835, 100.772419
1759230034.074130, 2.904616, 10.541820, 10.420015, 0.770136, -0.164309, 0.017843, -81.981842, -190.319153, -908.685242, 13.727835, 100.772419
1759230034.094126, 6.996456, 7.510910, 2.287959, -0.388948, -0.199361, -0.403821, -82.147964, -190.021957, -908.568054, 13.727835, 100.772419
1759230034.113295, 7.330597, 8.050503, -1.084573, -0.452091, 0.127432, -0.458856, -81.896332, -189.591949, -908.362305, 13.727835, 100.772419
1759230034.134141, 2.669385, 15.135395, 1.812411, -0.890312, -0.800156, -0.634463, -81.975830, -188.729858, -908.752991, 13.727835, 100.772419
1759230034.153525, 1.215806, 17.770962, 2.274342, -1.080900, -0.482150, -0.453169, -82.862366, -187.886780, -908.652405, 13.727835, 100.772419
1759230034.174111, -1.530194, 7.942315, -10.530746, 0.186476, 2.020591, 0.217161, -81.828323, -187.860077, -908.079224, 13.727835, 100.772419
1759230034.193617, -2.985121, 9.768343, -10.674249, 0.656776, 1.736915, 0.336649, -80.824112, -188.393112, -907.351685, 13.727835, 100.772419
1759230034.213493, -2.529624, 15.221436, -11.380089, 2.523291, 1.995901, 0.486604, -80.048981, -190.165192, -906.781860, 13.727835, 100.772419
1759230034.234117, -4.603152, 8.038083, -1.988833, 3.744191, 0.770458, -0.017150, -79.707764, -192.371445, -905.661438, 13.727835, 100.772419
1759230034.253572, -2.838176, 6.088904, 0.844555, 3.528081, 0.495573, 0.085290, -79.583008, -194.066940, -905.894165, 13.727835, 100.772419
1759230034.274119, 3.973776, 6.034136, 2.299780, 3.520529, 0.223880, 1.305854, -79.641876, -196.299774, -905.544434, 13.727835, 100.772419
1759230034.294110, 1.666065, 5.821801, 3.163189, 2.992157, 0.281696, 1.893103, -79.704269, -198.913666, -905.180664, 13.727835, 100.772419
1759230034.313515, 0.875081, 6.562058, 1.863736, 2.661689, 0.181640, 1.998857, -80.160706, -201.287979, -904.782715, 13.727835, 100.772419
1759230034.334117, 5.324854, 14.336629, 2.562694, 2.081511, -0.989420, 1.351033, -80.437775, -203.410278, -904.843506, 13.727835, 100.772419
1759230034.353607, 3.417124, 16.852037, 2.540098, 1.903790, -1.371379, 0.575053, -81.198532, -204.470734, -904.395386, 13.727835, 100.772419
1759230034.374121, -2.606986, 10.313173, -2.702305, 0.338609, 0.660647, 0.477980, -81.317398, -205.369629, -904.017456, 13.727835, 100.772419
1759230034.394068, -4.909610, 4.499154, -2.384026, -0.377698, 0.447510, 0.215897, -81.271622, -205.324051, -904.079529, 13.727835, 100.772419
1759230034.413498, -3.837307, 2.770241, -1.466598, -0.787787, 0.186784, 0.017717, -81.451660, -204.583481, -903.932373, 13.727835, 100.772419
1759230034.434194, -0.327407, -0.946757, -3.144036, -2.355826, 1.011693, -0.602143, -81.094254, -203.227188, -904.109436, 13.727835, 100.772419
1759230034.453621, -0.702249, -1.065719, -3.326893, -3.322435, 2.060918, -0.950188, -79.956848, -201.101929, -903.624512, 13.727835, 100.772419
1759230034.474129, -1.119289, 1.104924, -1.965191, -3.549476, 1.938178, -1.464640, -78.623688, -198.827499, -903.354187, 13.727835, 100.772419
1759230034.493165, -1.285686, 2.340033, -1.579874, -3.441152, 1.653214, -1.867822, -77.545227, -196.057449, -902.824707, 13.727835, 100.772419
1759230034.513383, 0.272789, 6.779781, -0.311246, -3.252733, -0.535403, -2.771480, -77.592850, -192.876022, -902.988770, 13.727835, 100.772419
1759230034.534150, 4.642207, 15.264831, 2.261473, -3.853070, -0.844231, -2.389701, -77.957718, -189.573074, -902.957153, 13.727835, 100.772419
1759230034.553637, 7.200861, 18.043901, -6.606051, -2.592371, -0.526899, -1.572194, -78.562653, -186.945633, -903.263550, 13.727835, 100.772419
1759230034.573625, 8.487146, 11.903073, -5.658696, -1.194305, -1.202866, -0.471956, -79.381973, -185.897202, -903.542236, 13.727835, 100.772419
1759230034.594130, 5.858611, 6.245425, -3.310133, -0.620717, -1.047695, 0.111824, -80.028107, -185.697952, -904.014954, 13.727835, 100.772419
1759230034.613435, 3.190124, 3.941006, -3.830274, -0.103182, -0.001824, 0.591007, -80.465988, -185.801376, -904.024048, 13.727835, 100.772419
1759230034.634148, -4.421642, 8.074295, -5.071218, 0.083168, -0.802427, 0.904178, -79.552505, -186.861313, -904.438782, 13.727835, 100.772419
1759230034.653660, -13.867216, 19.825037, 3.549105, 0.696841, -1.757162, 0.299991, -80.491104, -187.303558, -905.438660, 13.727835, 100.772419
1759230034.674239, -6.115539, 26.547507, -9.305663, 0.859792, 1.498897, 0.626721, -80.950806, -187.156921, -904.863464, 13.727835, 100.772419
1759230034.694142, 10.994174, 27.182718, -13.420847, 2.818369, 2.019948, 1.630468, -79.032837, -189.312134, -904.054443, 13.727835, 100.772419
1759230034.713293, -4.887912, 5.401768, 7.407660, 2.849067, -1.128744, 0.347583, -79.886765, -191.531006, -904.533630, 13.727835, 100.772419
1759230034.734148, 1.127968, 1.350779, 8.339154, 1.064619, -2.620482, -0.735375, -81.275711, -191.880569, -905.854858, 13.727835, 100.772419
1759230034.753677, 8.138490, 10.023325, 2.481740, -0.484345, -1.536657, -0.936786, -81.798035, -190.932816, -906.409241, 13.727835, 100.772419
1759230034.773636, 5.297171, 21.483920, 8.250718, -1.291878, 0.012534, -0.425943, -82.043015, -190.158691, -905.896667, 13.727835, 100.772419
1759230034.793216, 2.853290, 17.527950, -1.239299, -1.876759, 0.680807, -0.267521, -81.800110, -189.737137, -905.894653, 13.727835, 100.772419
1759230034.813575, -0.592864, 7.617751, -5.612757, -1.084552, -0.065146, -0.704296, -82.190186, -187.804504, -905.674622, 13.727835, 100.772419
1759230034.833719, 0.240168, 8.790311, -4.027496, -0.749292, 0.040001, -0.776952, -82.181412, -187.131302, -905.774780, 13.727835, 100.772419
1759230034.853708, -2.856283, 9.735123, -2.142062, -0.675009, -0.166182, -0.859192, -82.129211, -186.885117, -905.812988, 13.727835, 100.772419
1759230034.874117, -2.974796, 7.941717, -4.202871, -0.287023, -0.155195, -0.938132, -82.655991, -185.632584, -905.933105, 13.727835, 100.772419
1759230034.894142, -0.794725, 7.249643, -7.838167, 0.444552, 1.077724, -0.531437, -82.436432, -185.410233, -905.769592, 13.727835, 100.772419
1759230034.913503, 2.656367, 8.074595, -7.034464, 0.932093, 2.636502, 0.162931, -81.849091, -185.430008, -904.943359, 13.727835, 100.772419
1759230034.934131, 4.730494, 11.022904, -7.681946, 1.919520, 2.954764, 0.912782, -79.947144, -186.474121, -903.641113, 13.727835, 100.772419
1759230034.953716, 1.812261, 11.035773, -0.908151, 2.844050, 1.344944, 0.866743, -78.835663, -188.071701, -902.658569, 13.727835, 100.772419
1759230034.974132, 0.554258, 9.294889, -1.004218, 3.520127, 0.266648, 1.140417, -78.503098, -190.207291, -902.492004, 13.727835, 100.772419
1759230034.994120, -0.701950, 6.289418, 1.905036, 3.609023, 0.491838, 1.393838, -78.176224, -192.701950, -902.488647, 13.727835, 100.772419
1759230035.013355, -4.463690, 2.577657, 3.170073, 3.040567, 0.737101, 1.016943, -78.226273, -195.000290, -902.000427, 13.727835, 100.772419
1759230035.034146, -3.662231, 1.507300, 1.192911, 2.615910, 0.193380, 1.106052, -78.078232, -196.789215, -901.790344, 13.727835, 100.772419
1759230035.053741, -0.478840, 3.342605, -1.244386, 2.305073, 0.949211, 1.600772, -78.300140, -198.336609, -901.622253, 13.727835, 100.772419
1759230035.074127, 5.720795, 8.163479, 3.025373, 1.254850, 1.424779, 2.182720, -77.881851, -200.434097, -900.487915, 13.727835, 100.772419
1759230035.093298, 3.380613, 12.629414, 3.551200, 0.428656, 0.831965, 1.350067, -77.333618, -202.024124, -899.749329, 13.727835, 100.772419
1759230035.113760, -3.498378, 14.486416, 1.766173, -1.027433, 0.526614, -0.013972, -77.336151, -202.091049, -899.284546, 13.727835, 100.772419
1759230035.134148, 0.813580, 8.355165, -5.689970, -1.667913, 0.184616, -0.196925, -77.151245, -201.328400, -899.463745, 13.727835, 100.772419
1759230035.153756, 3.025672, 4.462642, -4.567987, -2.365017, 0.219000, -0.670500, -77.521896, -200.096100, -899.262085, 13.727835, 100.772419
1759230035.174147, 4.484639, 2.776376, -3.548057, -2.964093, 0.225985, -1.169238, -77.210464, -198.505676, -899.750671, 13.727835, 100.772419
1759230035.194153, 3.673753, 2.064550, -3.099743, -3.196143, 0.363307, -1.688063, -76.710037, -196.513809, -899.935486, 13.727835, 100.772419
1759230035.214163, 1.862839, 4.856488, -0.780360, -3.182371, 0.153324, -2.060504, -76.340958, -194.023438, -899.712524, 13.727835, 100.772419
1759230035.234123, -0.456694, 11.912650, 1.903390, -3.875655, -0.606968, -2.005567, -76.117325, -191.267105, -899.746582, 13.727835, 100.772419
1759230035.253789, -0.589423, 16.793529, 2.958335, -4.224741, -2.529920, -1.305163, -76.934753, -188.823700, -900.279541, 13.727835, 100.772419
1759230035.274130, -1.997213, 15.143026, -8.393173, -2.980301, -1.775845, -1.066369, -78.252609, -186.316071, -901.346252, 13.727835, 100.772419
1759230035.294126, 2.862867, 5.875072, -6.457910, -0.817677, -0.751630, -0.997665, -79.264771, -184.846878, -901.507568, 13.727835, 100.772419
1759230035.313651, 3.532345, -0.187795, -1.937657, 0.666930, -2.161297, -0.558757, -80.353836, -184.434082, -902.352539, 13.727835, 100.772419
1759230035.334130, 0.860416, 1.850868, -1.446397, -0.305291, -1.533940, -0.825166, -80.763290, -184.574982, -902.995178, 13.727835, 100.772419
1759230035.353795, 3.106926, 17.032351, -0.233285, 0.043212, -2.253670, 0.732774, -81.375031, -184.694046, -903.773987, 13.727835, 100.772419
1759230035.374132, -11.150096, 33.470939, -6.580763, 0.025927, -0.193942, 2.049473, -81.772827, -185.639587, -904.733398, 13.727835, 100.772419
1759230035.394043, -6.049699, 28.846988, -26.342204, 4.055377, 2.864667, 0.741805, -80.689835, -187.010117, -903.767212, 13.727835, 100.772419
1759230035.413833, 6.513276, 3.903895, 18.455554, 1.436943, 0.612000, -0.176933, -80.458603, -188.679962, -903.311768, 13.727835, 100.772419
1759230035.434112, 5.635651, 5.763143, 5.165939, -0.593658, 0.708205, -0.752605, -80.187668, -188.170151, -902.994507, 13.727835, 100.772419
1759230035.453818, 7.289895, 7.172879, 4.582801, -0.666285, -2.640055, -1.236792, -81.021744, -187.232285, -903.669250, 13.727835, 100.772419
1759230035.474130, 3.723582, 16.634315, 3.718794, -1.268542, -2.063419, -1.021848, -82.173752, -186.377869, -904.651123, 13.727835, 100.772419
1759230035.494115, 1.701679, 23.476644, -0.763750, -1.377245, 0.464092, -0.248381, -82.253799, -185.160019, -904.547974, 13.727835, 100.772419
1759230035.513347, 4.025551, 12.812720, -12.456433, 0.231090, 0.202303, 0.428019, -82.255020, -185.196381, -904.362549, 13.727835, 100.772419
1759230035.534119, 0.873584, 13.096283, -9.499743, 1.565950, -0.382831, 0.392443, -82.424149, -186.098190, -904.872314, 13.727835, 100.772419
1759230035.553821, -4.043507, 13.823671, -10.090213, 2.911933, 0.297100, 0.453667, -82.347336, -187.664520, -905.160706, 13.727835, 100.772419
1759230035.574121, -6.322937, 9.416844, -5.096507, 3.992329, 0.445070, 0.193852, -82.306061, -189.827621, -905.099365, 13.727835, 100.772419
1759230035.594119, -2.610428, 6.357503, 3.380164, 3.935701, 0.089965, 0.281744, -82.367981, -191.911484, -905.367004, 13.727835, 100.772419
1759230035.613446, 1.082030, 3.834613, 2.643199, 3.057592, 1.294462, 1.126285, -82.200546, -193.985321, -904.931702, 13.727835, 100.772419
1759230035.634113, -2.890550, -0.648080, 1.480814, 2.299158, 2.898686, 1.436135, -81.210464, -196.014359, -903.759277, 13.727835, 100.772419
1759230035.653864, -3.416975, -1.550545, 3.578284, 1.659674, 2.519563, 1.565521, -79.634109, -197.637070, -902.200684, 13.727835, 100.772419
1759230035.674137, -1.411681, 0.077812, 4.168305, 1.318499, 1.361969, 1.435725, -79.214615, -199.042191, -901.152771, 13.727835, 100.772419
1759230035.693877, 1.512088, 2.747047, 2.847604, 0.998537, 0.423219, 1.476309, -78.995819, -200.115097, -900.607849, 13.727835, 100.772419
1759230035.713504, 4.447080, 6.908768, 4.743811, 0.055512, -0.002906, 1.500393, -79.252258, -201.110535, -900.686096, 13.727835, 100.772419
1759230035.734122, 2.945467, 9.544934, 5.209334, -0.588538, -1.850250, -0.042225, -79.716339, -201.429810, -901.444824, 13.727835, 100.772419
1759230035.753874, 3.143288, 14.340969, 1.431882, -1.095645, -1.691638, -0.566834, -80.757660, -200.505524, -902.332031, 13.727835, 100.772419
1759230035.774127, -1.869572, 7.793276, -3.073856, -2.259102, -0.355109, -0.946960, -81.306824, -199.097214, -902.949463, 13.727835, 100.772419
1759230035.794128, -0.117017, 5.046379, -4.815637, -3.135260, 0.207913, -1.023538, -81.015961, -197.206390, -903.047180, 13.727835, 100.772419
1759230035.813756, 0.269797, 6.552032, -2.956839, -3.221663, -0.096063, -0.828844, -81.068161, -195.556946, -903.328796, 13.727835, 100.772419
1759230035.834125, -2.327014, 7.022493, -1.429338, -3.304316, -0.265879, -1.182747, -80.795441, -193.276566, -903.345337, 13.727835, 100.772419
1759230035.853897, -1.512088, 8.938303, -1.279701, -3.531122, -1.087018, -1.650934, -81.601257, -190.924683, -903.748901, 13.727835, 100.772419
1759230035.874126, 0.479738, 13.888016, -6.975656, -3.179649, -1.518194, -1.917927, -82.640823, -188.650055, -904.024292, 13.727835, 100.772419
1759230035.894128, 4.383185, 16.760309, -15.584607, -1.103881, -0.682234, -1.223198, -83.387283, -187.041580, -904.174805, 13.727835, 100.772419
1759230035.913572, 5.161450, 13.869760, -11.135282, 0.796130, -0.623443, -0.224910, -83.611267, -187.748901, -904.434692, 13.727835, 100.772419
1759230035.934122, -1.620575, 16.991200, 8.315511, 0.216758, -2.868122, 0.446499, -84.831131, -188.277618, -905.602844, 13.727835, 100.772419
1759230035.953913, -6.205471, 15.574581, 3.024475, 0.864830, -2.373272, 0.440084, -85.703201, -188.938156, -906.743652, 13.727835, 100.772419
1759230035.974132, -1.435922, 32.395344, -19.940258, 0.890600, 3.039248, 0.760039, -85.102234, -189.192215, -905.925781, 13.727835, 100.772419
1759230035.994176, 5.805789, 13.797036, 8.402002, 3.127187, -0.325357, -0.109083, -85.296417, -190.838043, -905.716736, 13.727835, 100.772419
1759230036.013377, 5.954529, 8.919000, 5.408053, 0.350068, 0.647442, 0.432278, -84.856232, -191.575287, -905.413574, 13.727835, 100.772419
1759230036.034190, 0.219668, 10.491990, 7.331195, 0.080924, -2.104075, -0.229303, -85.845749, -191.555450, -905.999695, 13.727835, 100.772419
1759230036.053935, -0.872986, 12.131420, 3.396175, -0.825605, -1.242743, -0.368534, -86.339386, -191.063995, -906.471008, 13.727835, 100.772419
1759230036.073323, -1.936610, 13.658771, 0.604237, -1.354850, 0.834766, -0.034699, -86.353699, -190.370483, -906.227966, 13.727835, 100.772419
1759230036.094124, -0.327407, 11.139921, 0.099210, -1.357329, 1.015379, -0.163604, -85.789551, -189.331284, -905.774658, 13.727835, 100.772419
1759230036.114127, 0.910096, 7.577648, -2.178873, -0.971909, 1.015352, -0.401384, -85.608017, -188.540482, -905.078003, 13.727835, 100.772419
1759230036.134128, 1.329231, 5.588665, -1.396268, -0.717496, 0.875092, -0.485773, -85.192596, -188.006531, -905.025208, 13.727835, 100.772419
1759230036.153943, 0.505775, 5.759551, -1.243488, -0.782970, 0.828159, -0.405561, -84.858170, -187.520126, -904.567078, 13.727884, 100.772396
1759230036.174149, 0.056114, 6.421398, -2.012626, -0.646650, 0.212077, -0.376139, -84.719818, -187.040588, -904.207214, 13.727884, 100.772396
1759230036.194175, -0.398485, 7.207744, -4.516213, -0.073997, -0.119994, -0.456621, -85.017059, -186.643173, -904.311646, 13.727884, 100.772396
1759230036.213521, 0.615759, 8.014141, -4.678420, 0.456788, 0.170664, -0.380004, -84.913956, -186.789520, -904.220886, 13.727884, 100.772396
1759230036.234109, 1.432630, 6.823624, -2.903718, 0.700695, 0.333111, -0.190654, -84.977402, -187.285446, -904.200317, 13.727884, 100.772396
1759230036.253975, 0.376937, 5.627272, -1.430835, 0.840110, 0.098003, -0.155433, -84.813782, -187.549515, -904.026733, 13.727884, 100.772396
1759230036.274115, -0.180762, 4.392462, -0.938826, 0.777099, -0.117180, -0.316060, -85.058746, -187.840561, -903.716309, 13.727884, 100.772396
1759230036.293314, 1.337611, 4.963928, -2.545785, 0.871817, 0.044003, -0.227760, -85.122574, -188.022339, -904.149231, 13.727884, 100.772396
1759230036.313850, 1.885733, 5.377227, -0.684742, 1.094953, 0.134556, -0.149773, -85.226639, -188.659378, -904.100159, 13.727884, 100.772396
1759230036.334120, 1.610998, 6.229114, -0.521936, 0.843938, 0.465522, -0.260660, -84.913010, -189.153473, -903.914795, 13.727884, 100.772396
1759230036.353990, 2.670582, 8.925584, -1.300052, 0.837698, 0.617231, -0.113181, -85.051743, -189.571655, -903.498291, 13.727884, 100.772396
1759230036.374117, 5.612757, 13.606547, -7.285556, 1.114551, 1.756788, 0.621525, -84.460098, -189.904327, -902.992004, 13.727884, 100.772396
1759230036.394121, 6.245724, 16.521338, -1.331026, 1.530138, 1.392201, 1.437346, -83.471222, -191.022186, -902.535767, 13.727884, 100.772396
1759230036.413524, 8.005163, 21.683686, -7.462128, 1.830235, 1.153208, 2.385899, -83.305786, -192.856232, -902.129333, 13.727884, 100.772396
1759230036.434120, 5.093963, 19.156606, -3.912874, 2.337315, -0.751450, 2.261930, -83.043030, -194.804306, -902.245056, 13.727884, 100.772396
1759230036.454024, 0.622792, 18.229451, -2.737919, 1.807470, -0.745586, 2.164988, -84.030746, -196.835022, -902.564331, 13.727884, 100.772396
1759230036.474123, -4.137330, 16.934338, -2.622549, 0.922062, 0.077431, 1.965158, -84.439850, -198.105637, -902.171570, 13.727884, 100.772396
1759230036.494124, -4.724358, 13.398701, -3.927538, 0.576434, 0.137896, 1.265845, -84.660721, -198.960907, -902.298767, 13.727884, 100.772396
1759230036.514127, -0.940323, 10.045172, -3.883096, 0.227954, 0.211332, 0.781725, -84.948608, -199.231552, -902.495117, 13.727884, 100.772396
1759230036.534162, -0.300323, 7.779210, -1.750012, -0.252144, 0.439263, 0.417831, -84.946457, -199.155899, -901.934814, 13.727884, 100.772396
1759230036.554033, -0.933290, 6.463596, -1.821987, -0.423884, 0.288224, 0.085167, -85.015381, -199.080383, -902.264893, 13.727884, 100.772396
1759230036.574169, -1.337162, 5.563676, -1.416619, -0.589427, -0.012741, -0.210423, -84.908630, -198.613968, -902.394165, 13.727884, 100.772396
1759230036.594119, -2.132785, 4.340089, -1.212364, -0.815552, -0.005709, -0.479080, -84.918365, -198.063660, -902.217712, 13.727884, 100.772396
1759230036.613548, -2.693028, 3.103933, -0.790236, -1.013750, -0.053789, -0.785751, -84.875885, -197.410065, -902.356079, 13.727884, 100.772396
1759230036.633860, -2.523189, 1.967884, -0.135572, -1.222985, -0.192904, -1.085274, -84.942535, -196.055496, -902.148682, 13.727884, 100.772396
1759230036.654053, -2.240973, 1.147870, 0.649726, -1.396574, -0.185890, -1.327795, -85.133636, -195.011124, -902.350159, 13.727884, 100.772396
1759230036.674164, -1.829918, 0.085443, 1.655590, -1.631311, -0.444102, -1.524528, -85.449295, -193.589493, -902.714233, 13.727884, 100.772396
1759230036.694124, 0.135123, -0.239719, 1.923591, -1.932768, -0.802473, -1.609231, -85.864639, -192.162445, -902.728821, 13.727884, 100.772396
1759230036.713501, -0.099210, 1.734898, 0.745794, -2.127564, -1.237456, -1.834684, -86.408478, -190.654434, -903.200562, 13.727884, 100.772396
1759230036.734124, 0.567426, 5.617994, -0.026037, -2.729624, -1.978439, -1.654735, -87.455048, -188.814026, -903.429443, 13.727884, 100.772396
1759230036.754066, 2.970157, 12.423512, -6.982390, -2.277915, -0.580560, -1.029124, -88.371368, -187.308762, -903.656982, 13.727884, 100.772396
1759230036.774154, 8.027459, 18.053777, -8.379706, -1.461324, 0.658681, -0.078566, -88.304230, -186.295380, -903.016907, 13.727884, 100.772396
1759230036.794121, 4.513968, 14.769980, -10.739341, -0.009490, 0.531015, 0.833863, -88.272690, -186.355728, -902.890564, 13.727884, 100.772396
1759230036.813491, -2.770690, 4.169801, 2.677765, 0.793613, -0.552138, 0.512891, -88.472000, -187.148468, -902.853882, 13.727884, 100.772396
1759230036.833174, -7.186047, 4.759972, 6.830957, -0.223149, -2.480378, -0.737828, -89.343033, -187.147476, -903.751831, 13.727884, 100.772396
1759230036.854093, -6.042666, 12.427104, 5.881057, -0.485978, -2.732351, -1.380306, -91.208542, -186.419037, -904.488403, 13.727884, 100.772396
1759230036.874122, -2.785803, 25.400684, -3.973028, -0.861667, -1.551716, 0.294560, -92.419998, -186.041458, -904.749939, 13.727884, 100.772396
1759230036.894108, -3.673154, 32.847100, -24.047062, 1.748472, 2.463928, 0.910765, -91.512421, -186.743805, -904.299805, 13.727884, 100.772396
1759230036.914128, 5.505467, 17.996166, 4.926519, 2.520017, 2.145211, -0.140943, -90.394318, -187.992218, -903.998779, 13.727884, 100.772396
1759230036.934125, 6.662764, 11.425280, 7.832780, 0.907000, 0.744411, 0.119543, -90.141541, -188.583679, -903.458435, 13.727884, 100.772396
1759230036.954097, 5.539584, 5.039495, 4.071789, -0.163240, 0.124593, -0.236442, -90.087097, -188.245041, -903.746338, 13.727884, 100.772396
1759230036.974122, 5.098153, 5.879112, 4.154389, -0.328227, -0.925634, -0.141952, -90.596191, -188.096451, -903.789062, 13.727884, 100.772396
1759230036.993555, 1.952920, 9.077915, 3.224840, -0.751335, -0.653702, -0.030272, -90.796097, -187.604111, -904.167358, 13.727884, 100.772396
1759230037.014005, -1.364096, 9.927258, 0.711676, -0.905107, -0.291782, -0.079691, -91.351700, -187.168594, -904.320007, 13.727884, 100.772396
1759230037.034170, -1.908029, 8.208221, -3.341108, -0.829131, 0.208214, -0.254619, -91.470810, -186.495575, -904.098022, 13.727884, 100.772396
1759230037.054096, -0.626084, 6.573430, -1.854758, -0.730448, 0.147489, -0.387912, -91.547012, -185.868103, -903.933594, 13.727884, 100.772396
1759230037.074118, -0.505775, 5.146636, -1.338209, -0.652947, 0.078781, -0.656522, -91.915527, -185.025513, -903.818848, 13.727884, 100.772396
1759230037.094115, 1.338808, 5.593454, -4.564545, -0.664055, 0.820608, -0.532354, -91.780685, -184.473495, -903.532837, 13.727884, 100.772396
1759230037.113443, 1.500566, 7.961618, -4.952855, -0.268178, 0.501631, -0.340485, -91.674881, -184.150452, -903.519043, 13.727884, 100.772396
1759230037.134115, -1.001824, 7.426814, -1.663372, 0.476618, -0.510531, -0.620039, -92.197891, -184.144318, -903.778076, 13.727884, 100.772396
1759230037.154096, 0.197671, 5.419575, -4.474314, 0.727498, -0.418388, -0.876630, -92.972916, -184.064346, -904.102600, 13.727884, 100.772396
1759230037.174124, 3.731064, 8.357709, -6.138135, 1.384757, -0.709751, -0.796641, -93.329315, -184.268753, -904.310425, 13.727884, 100.772396
1759230037.193873, 2.453907, 9.706243, -1.264587, 1.697066, -1.020287, -0.906402, -94.063965, -185.054626, -905.023804, 13.727884, 100.772396
1759230037.213518, 0.954987, 11.288062, -5.765687, 1.867549, -0.097361, -0.844471, -94.327591, -185.919647, -905.573914, 13.727884, 100.772396
1759230037.234131, 3.012654, 13.095236, -2.702156, 2.397234, -1.196311, -0.495704, -95.281067, -186.762039, -905.847778, 13.727884, 100.772396
1759230037.253669, 4.696975, 13.244125, -1.476923, 2.319258, -0.983579, 0.079161, -96.037003, -187.638596, -906.434509, 13.727884, 100.772396
1759230037.274118, 9.102755, 19.911827, -1.123778, 1.728865, -1.333481, 1.180038, -96.971878, -188.555908, -907.075256, 13.727884, 100.772396
1759230037.294123, 5.644480, 22.570289, -1.201590, 1.507021, -0.962447, 2.368645, -97.054810, -190.021484, -907.694702, 13.727884, 100.772396
1759230037.313700, -3.228731, 16.141259, -1.072004, 0.889067, -0.589777, 2.362350, -97.615555, -190.690582, -908.231812, 13.727884, 100.772396
1759230037.334138, -7.994389, 11.815984, -5.307347, 0.594976, 0.039434, 1.759822, -97.698303, -190.898972, -908.353638, 13.727884, 100.772396
1759230037.354095, -6.539911, 10.865186, -5.402666, 0.514965, 0.707025, 1.257634, -97.118729, -191.372070, -908.812561, 13.727884, 100.772396
1759230037.374121, -4.669890, 10.171018, -1.172411, 0.186715, 0.388973, 0.881478, -97.254471, -191.588394, -909.230042, 13.727884, 100.772396
1759230037.394117, -2.075773, 8.927379, -3.566762, 0.363234, -0.244191, 0.310077, -97.375839, -191.331512, -909.369873, 13.727884, 100.772396
1759230037.413503, 2.047192, 8.612542, -2.868403, 0.333878, -0.301840, 0.288137, -97.694199, -191.240204, -909.541260, 13.727884, 100.772396
1759230037.434141, 1.317709, 6.239439, -0.940622, 0.039967, -0.050995, 0.245879, -97.601593, -191.252228, -909.974243, 13.727884, 100.772396
1759230037.454095, -0.457741, 5.213224, 0.458490, -0.102223, -0.404629, 0.172769, -97.918961, -190.885025, -910.426392, 13.727884, 100.772396
1759230037.474139, -0.454749, 4.325724, 1.381005, -0.354112, -0.795110, 0.139795, -98.541229, -190.684830, -910.560181, 13.727884, 100.772396
1759230037.494122, -0.054019, 3.786430, 1.221043, -0.617801, -1.107265, 0.009986, -99.111435, -190.121078, -910.918457, 13.727884, 100.772396
1759230037.513328, -0.278326, 3.155408, 1.125125, -0.959160, -1.235484, -0.133517, -100.169449, -189.531113, -911.592896, 13.727884, 100.772396
1759230037.534136, -1.122731, 1.744326, 1.318607, -1.428822, -1.428830, -0.336048, -101.339493, -188.317352, -911.698181, 13.727884, 100.772396
1759230037.553323, -1.173757, 1.275062, -0.374693, -1.796768, -1.301104, -0.378474, -102.123322, -186.997452, -911.784546, 13.727884, 100.772396
1759230037.574133, -1.436970, 2.014870, -2.866308, -1.835766, -1.164824, -0.365118, -103.024963, -185.686676, -912.104370, 13.727884, 100.772396
1759230037.594119, -2.048539, 3.587113, -6.646753, -1.210207, -1.714397, -0.597577, -104.153244, -185.179031, -912.002686, 13.727884, 100.772396
1759230037.613700, 0.611120, 8.109011, -9.736021, -0.521026, -1.082722, -0.461648, -104.548340, -185.063049, -912.272705, 13.727884, 100.772396
1759230037.634104, 0.733224, 14.893580, -11.640309, 0.075729, -1.295598, -0.246718, -105.637177, -185.009079, -912.682678, 13.727884, 100.772396
1759230037.654094, -0.882563, 17.784728, -10.823587, 1.051992, -0.828055, 0.069384, -105.151779, -185.852081, -912.981628, 13.727884, 100.772396
1759230037.674150, -8.180837, 20.448128, -7.773225, 2.153689, 0.484095, 0.425344, -104.846451, -186.808685, -913.571289, 13.727884, 100.772396
1759230037.694115, -9.215731, 9.289802, 13.714436, 2.076045, 0.211482, -0.702284, -105.883881, -187.958466, -913.340088, 13.727884, 100.772396
1759230037.713675, -6.030246, 4.306870, 20.516064, -3.120357, -0.804200, -0.403673, -104.725998, -187.827515, -913.751221, 13.727884, 100.772396
1759230037.734149, -0.384868, 38.841433, -12.341212, -0.160465, 0.213298, 0.115687, -104.789108, -186.045349, -913.630188, 13.727884, 100.772396
1759230037.754093, -1.958158, 16.590770, 3.134160, 1.863698, 1.147416, -1.093697, -104.291168, -187.548004, -913.539490, 13.727884, 100.772396
1759230037.774109, -0.430507, 8.027010, 7.417835, -0.211124, 2.738372, -1.349132, -102.205139, -188.110001, -913.389648, 13.727884, 100.772396
1759230037.794096, -0.896928, 12.869133, 5.662287, -0.477852, 1.413474, -1.349250, -100.688400, -187.600082, -913.458313, 13.727884, 100.772396
1759230037.813406, 1.040430, 14.438383, 6.035483, -1.163170, 0.815472, -0.983339, -100.510452, -186.457779, -913.415100, 13.727884, 100.772396
1759230037.834088, 4.279336, 12.618041, 3.873369, -2.190893, 1.261101, -0.362840, -99.724976, -184.943390, -912.679749, 13.727884, 100.772396
1759230037.854120, 2.872294, 12.940810, -1.147122, -2.882352, 1.447001, 0.415757, -98.498352, -183.097794, -912.217590, 13.727884, 100.772396
1759230037.874090, -0.428263, 11.376648, -8.289774, -1.515891, 0.304455, 0.286625, -98.016663, -181.926270, -911.966736, 13.727884, 100.772396
1759230037.894092, -0.663792, 7.839813, -3.433734, -0.539800, -0.550077, -0.440820, -98.374283, -181.057312, -912.464966, 13.727884, 100.772396
1759230037.913487, 3.392284, 6.217742, 1.237503, -0.721150, -1.238541, -0.424712, -99.357544, -180.404968, -912.036255, 13.727884, 100.772396
1759230037.934089, 3.606416, 3.330035, 2.587533, -0.867976, -2.298261, -0.361764, -100.843628, -179.901703, -912.248901, 13.727884, 100.772396
1759230037.954089, 1.792060, 3.064129, 2.009633, -0.993820, -2.347308, -0.415984, -102.017685, -179.153809, -912.329102, 13.727884, 100.772396
1759230037.974092, -0.658256, 6.144120, 1.573739, -1.469008, -1.673798, -0.385771, -103.233902, -178.282593, -911.873901, 13.727884, 100.772396
1759230037.994093, -3.545813, 9.018209, -0.347907, -2.036979, -1.587706, -0.296549, -104.000412, -177.001526, -911.716797, 13.727884, 100.772396
1759230038.013345, -7.051822, 12.314277, -4.252401, -1.661342, -0.879014, -0.503869, -104.974792, -175.686951, -911.425293, 13.727884, 100.772396
1759230038.034128, -6.897246, 9.856330, -7.596952, -0.680160, 0.329298, -0.810887, -105.209518, -175.087692, -910.966370, 13.727884, 100.772396
1759230038.053651, -3.848230, 8.702025, -3.784485, 0.016672, 0.292219, -1.202024, -105.638000, -174.766861, -911.091003, 13.727884, 100.772396
1759230038.074122, 1.176301, 11.306617, 1.583315, -0.021526, -0.366844, -1.442989, -106.112213, -174.864075, -911.206604, 13.727884, 100.772396
1759230038.094095, 6.149806, 13.617770, 3.508254, -0.282664, -1.093407, -1.357307, -107.346786, -174.390030, -910.961548, 13.727884, 100.772396
1759230038.114126, 10.125079, 12.963106, 2.182315, -0.265159, -1.282014, -0.716941, -108.324707, -174.056015, -910.948730, 13.727884, 100.772396
1759230038.134115, 8.301894, 12.953230, 1.211915, -0.200996, -1.555898, -0.083617, -108.967148, -174.068771, -911.210571, 13.727884, 100.772396
1759230038.154091, 3.065177, 13.328820, -0.267702, 0.068460, -1.660079, -0.235280, -110.185257, -174.036865, -911.370178, 13.727884, 100.772396
1759230038.174114, 0.516100, 12.498780, -1.851765, 0.711107, -2.006682, -0.706600, -111.356186, -174.389389, -911.666443, 13.727884, 100.772396
1759230038.194103, 2.991405, 12.768128, -0.531513, 1.436897, -2.709279, -1.045925, -113.204269, -175.173767, -911.944946, 13.727884, 100.772396
1759230038.214119, 7.387608, 14.139856, 1.262492, 2.366921, -3.839179, -1.019958, -116.040009, -176.536865, -911.977234, 13.727884, 100.772396
1759230038.234127, 10.753856, 14.151079, -0.293140, 3.967543, -4.549813, -0.501929, -118.894257, -179.177826, -912.057495, 13.727884, 100.772396
1759230038.254021, 7.160908, 14.794820, 1.220893, 4.992457, -4.348818, -0.037113, -121.424377, -182.649719, -912.474060, 13.727884, 100.772396
1759230038.274120, 3.195361, 17.164930, 5.549311, 4.324422, -2.105016, 1.209458, -122.336105, -185.329819, -912.575317, 13.727884, 100.772396
1759230038.294111, -4.726004, 16.344018, 7.163302, 3.076043, -0.746320, 1.667152, -122.235992, -186.772324, -913.194763, 13.727884, 100.772396
1759230038.313512, -3.590405, 14.239065, 6.726360, 2.276818, -0.876500, 1.748531, -122.500809, -187.853287, -913.512695, 13.727884, 100.772396
1759230038.334109, -0.686986, 11.474361, 5.947795, 2.044885, -0.794966, 1.770881, -122.934082, -188.507843, -913.234863, 13.727884, 100.772396
1759230038.353701, 1.637634, 9.998036, 4.666149, 1.494786, -0.878738, 1.745984, -123.220566, -188.700302, -913.350098, 13.727884, 100.772396
1759230038.374097, 3.726276, 11.205163, 3.886537, 1.190079, -1.633159, 1.781192, -124.042084, -188.795349, -913.088806, 13.727884, 100.772396
1759230038.394128, 5.025729, 13.902830, 2.023400, 1.661854, -2.761668, 1.946042, -125.275894, -189.231033, -912.499756, 13.727884, 100.772396
1759230038.413508, 0.960225, 12.572551, 2.550723, 1.746242, -2.496305, 1.990144, -126.914795, -189.399155, -911.520569, 13.727884, 100.772396
1759230038.434138, -1.961150, 10.467599, 5.976227, 1.249063, -2.914358, 1.911651, -128.733292, -189.445755, -910.503662, 13.727884, 100.772396
1759230038.453662, -1.217152, 8.930073, 6.751499, 0.847619, -3.761051, 1.869264, -130.565033, -189.015930, -909.035156, 13.727884, 100.772396
1759230038.474110, 0.112527, 8.827721, 7.400477, 0.342741, -4.016543, 1.950376, -132.849960, -188.207932, -907.177185, 13.727884, 100.772396
1759230038.494112, -0.958728, 7.804798, 6.018424, 0.158624, -4.158771, 1.793834, -134.481201, -187.342331, -905.230286, 13.727884, 100.772396
1759230038.513261, -2.359935, 6.120328, 5.424064, 0.105311, -4.513930, 1.469545, -136.637833, -186.556046, -902.604614, 13.727884, 100.772396
1759230038.533843, -3.761740, 5.750723, 4.029142, -0.110217, -4.637770, 1.112978, -138.468338, -186.027420, -898.924133, 13.727884, 100.772396
1759230038.554090, -5.355979, 6.844274, 2.085050, -0.242857, -4.386638, 0.926653, -139.674576, -185.032074, -896.776123, 13.727884, 100.772396
1759230038.573902, -5.135263, 7.622839, 0.965013, -0.230732, -3.904466, 0.868572, -140.866791, -184.219528, -893.724854, 13.727884, 100.772396
1759230038.594112, -4.597017, 8.323143, -0.404919, -0.223027, -3.251405, 0.937534, -141.181961, -183.654297, -891.848511, 13.727884, 100.772396
1759230038.613500, -4.700117, 8.712201, -1.116745, -0.118713, -2.903761, 0.874890, -141.692413, -183.282562, -889.728027, 13.727884, 100.772396
1759230038.634137, -3.190573, 9.475053, -2.420688, 0.005354, -2.632917, 0.753198, -142.174011, -182.509521, -888.335632, 13.727884, 100.772396
1759230038.654096, -1.108515, 10.999711, -2.982277, 0.215799, -2.249978, 0.824436, -142.212219, -182.059937, -886.576599, 13.727884, 100.772396
1759230038.674119, -1.125125, 11.035025, -2.353650, 0.284088, -1.873483, 0.904558, -142.225845, -181.398788, -885.202942, 13.727884, 100.772396
1759230038.693363, -1.870021, 9.561693, -1.721581, 0.160982, -1.744852, 0.846388, -142.022797, -180.706131, -883.825928, 13.727884, 100.772396
1759230038.713918, -1.170615, 8.308179, -2.635866, 0.306674, -1.995224, 0.658078, -141.975098, -180.427521, -882.763367, 13.727884, 100.772396
1759230038.734127, 0.208894, 9.559748, -3.379715, 0.409552, -1.785473, 0.658218, -141.696411, -179.874161, -881.676941, 13.727884, 100.772396
1759230038.754088, 2.230648, 10.295067, -2.799271, 0.059358, -1.092161, 0.986373, -141.405182, -179.183334, -881.090637, 13.727884, 100.772396
1759230038.774123, 2.125004, 9.087641, -1.012149, -0.203922, -1.340281, 1.071087, -141.147491, -178.294540, -879.850464, 13.727884, 100.772396
1759230038.794112, 2.031480, 7.169736, -0.509217, -0.358304, -1.592243, 1.103731, -140.444122, -177.776825, -878.663635, 13.727884, 100.772396
1759230038.813236, 1.796848, 6.570587, -2.222418, -0.591431, -1.341146, 1.151403, -139.823059, -176.957306, -877.509766, 13.727884, 100.772396
1759230038.834122, -1.255310, 13.494169, -5.418976, -0.726800, -1.137607, 1.212396, -138.799347, -176.122665, -876.353516, 13.727884, 100.772396
1759230038.853651, -8.910620, 45.926773, -3.869180, 0.410013, -2.193842, 1.478970, -138.336716, -174.902878, -875.814636, 13.727884, 100.772396
1759230038.873659, 1.659631, 11.218780, 1.853262, 1.935685, -0.282976, 0.815282, -138.543762, -174.539383, -875.734619, 13.727884, 100.772396
1759230038.894110, -5.173571, -4.973655, 8.344391, 0.019843, -0.883110, 0.404809, -137.970062, -174.736160, -875.315430, 13.727884, 100.772396
1759230038.914122, -14.970195, -7.570915, 3.344251, -0.188269, -0.867854, -0.580428, -138.197464, -175.359573, -874.414490, 13.727884, 100.772396
1759230038.934116, -8.339603, -0.073322, 5.372439, -0.425303, -1.519930, -1.693754, -138.032990, -176.605270, -872.633362, 13.727884, 100.772396
1759230038.954088, -2.988562, 12.706178, 5.777209, -1.604986, -2.331798, -1.432587, -137.919342, -177.418961, -870.661743, 13.727884, 100.772396
1759230038.974102, 7.203554, 26.225786, -1.645415, -1.623386, 0.279608, -0.283415, -138.441803, -177.712189, -871.252380, 13.727884, 100.772396
1759230038.994101, 10.181193, 17.402853, -0.771382, -0.555159, 1.039526, 0.375440, -138.443939, -177.552353, -871.184143, 13.727884, 100.772396
1759230039.014103, 2.871097, 9.297284, 1.180790, -0.609093, -0.190031, 0.805658, -137.918854, -177.199860, -870.937317, 13.727884, 100.772396
1759230039.034107, -2.633023, 6.317849, 0.721253, -0.736296, -1.217256, 0.526355, -137.481873, -177.320160, -869.910706, 13.727884, 100.772396
1759230039.053637, -4.667496, 6.731747, 0.480786, -0.919792, -1.636188, -0.097560, -137.440826, -177.351044, -869.168823, 13.727884, 100.772396
1759230039.073178, -1.741632, 7.761104, -0.240019, -0.839224, -1.805313, -0.256970, -137.217728, -177.594955, -867.592529, 13.727884, 100.772396
1759230039.094085, -0.585682, 8.372972, -0.521637, -0.770443, -1.282973, -0.266275, -136.609756, -178.230118, -866.641357, 13.727884, 100.772396
1759230039.114158, 0.710330, 9.530120, 0.110133, -0.957574, -1.125425, -0.061643, -136.487030, -178.553406, -865.546753, 13.727884, 100.772396
1759230039.134115, -0.268300, 9.889998, -0.880917, -1.029702, -1.114354, -0.075344, -136.065964, -178.779633, -864.691040, 13.727884, 100.772396
1759230039.154088, -1.488445, 10.575039, -1.851167, -0.922493, -1.039659, -0.278675, -135.878677, -179.320984, -863.857666, 13.727884, 100.772396
1759230039.174113, -1.376367, 10.051607, -2.257732, -0.803910, -0.748143, -0.396100, -135.843170, -179.735489, -863.202332, 13.727884, 100.772396
1759230039.194117, -0.178667, 8.903587, -2.300828, -0.731423, -0.319153, -0.351134, -135.840302, -180.102417, -862.472717, 13.727884, 100.772396
1759230039.214109, 0.460136, 8.892963, -0.850540, -0.768252, -0.190686, -0.273998, -135.756958, -180.658325, -862.149170, 13.727884, 100.772396
1759230039.234151, 0.410905, 10.688315, 0.569371, -0.796707, -0.549299, -0.176518, -135.639145, -180.994904, -862.104614, 13.727884, 100.772396
1759230039.254089, 0.404022, 13.603555, 0.888099, -0.786679, -1.031454, 0.131322, -135.313446, -181.270126, -860.895264, 13.727884, 100.772396
1759230039.274111, -0.499939, 13.008895, -2.341230, -0.720311, -0.803359, 0.535561, -134.779663, -181.390259, -860.372803, 13.727884, 100.772396
1759230039.294118, -2.516306, 9.421782, -4.452467, 0.210328, -0.365617, 0.482914, -134.220993, -180.942657, -860.260742, 13.727884, 100.772396
1759230039.314103, -3.679888, 6.626402, -0.389956, 0.500201, 0.210942, 0.106875, -134.615036, -180.733627, -860.559143, 13.727884, 100.772396
1759230039.334148, -2.387318, 6.404489, 2.582895, 0.259078, 0.220375, -0.029719, -134.391174, -180.290115, -860.755554, 13.727884, 100.772396
1759230039.353950, -1.852214, 7.373991, 3.354576, 0.124207, 0.070510, -0.140460, -134.501556, -180.484161, -860.678467, 13.727884, 100.772396
1759230039.374087, 0.536900, 11.408670, 3.858705, -0.567067, -0.887634, -0.323676, -134.382721, -180.832260, -860.173889, 13.727884, 100.772396
1759230039.394097, 2.014721, 11.572673, 0.025738, -0.745632, -0.605596, -0.071344, -134.125061, -181.075943, -859.914001, 13.727884, 100.772396
