SamplingTime, AccelerationX, AccelerationY, AccelerationZ, GyroX, GyroY, GyroZ, MagneticFieldX, MagneticFieldY, MagneticFieldZ, Latitude, Longitude
1759224927.459656, 1.131260, -3.867982, -7.723545, 0.085009, -0.504959, 0.523165, 21.743866, 22.994629, -286.592224, , 
1759224927.479666, 0.429460, -2.425326, -7.696909, 0.040795, 0.102384, 0.142862, 21.294220, 23.400909, -286.100403, , 
1759224927.499639, 0.583287, -3.580678, -8.256704, -0.122402, 0.379208, 0.366528, 21.784973, 23.512985, -286.566223, 13.724705, 100.771882
1759224927.519104, 0.390105, -3.863344, -8.018181, -0.412353, 0.293595, 0.858755, 22.366470, 24.059494, -286.284119, 13.724705, 100.771882
1759224927.539702, -0.095170, -4.705055, -7.993641, -0.741050, 0.364605, 0.765771, 23.104492, 24.340820, -286.388885, 13.724705, 100.771882
1759224927.559665, 0.151882, -5.384560, -8.573038, -0.914752, 0.341202, 0.521714, 23.443878, 24.973007, -285.461609, 13.724705, 100.771882
1759224927.579719, -0.394894, -4.533122, -9.274389, -0.756679, 0.105536, 0.275673, 23.399323, 25.487732, -285.131500, 13.724705, 100.771882
1759224927.599646, -0.719907, -2.634370, -10.513089, -0.188446, 0.440491, 0.086855, 23.567383, 25.824371, -285.488281, 13.724705, 100.771882
1759224927.619088, -0.780061, -3.088520, -10.098443, 0.296878, 0.638234, -0.161575, 24.381409, 25.575317, -285.341797, 13.724705, 100.771882
1759224927.639653, 0.135871, -4.101267, -9.506477, 0.488412, 0.467783, -0.304651, 24.173706, 25.134201, -285.687439, 13.724705, 100.771882
1759224927.659670, 0.726640, -4.098724, -8.664017, 0.417738, 0.481449, -0.138881, 24.303665, 24.895538, -286.307129, 13.724705, 100.771882
1759224927.679651, 1.383100, -3.866336, -8.171261, 0.281257, 1.015443, 0.301809, 24.989563, 24.458817, -286.290070, 13.724705, 100.771882
1759224927.699670, 1.835904, -4.497508, -8.475624, 0.116444, 1.308663, 1.003096, 26.088989, 24.819229, -286.328003, 13.724705, 100.771882
1759224927.719653, 1.171662, -4.824466, -8.885631, -0.034116, 1.775422, 1.400217, 28.307007, 24.942963, -287.073639, 13.724705, 100.771882
1759224927.739853, 1.517625, -5.326799, -8.931869, -0.093885, 1.783844, 1.101720, 30.130905, 25.074402, -287.276123, 13.724705, 100.771882
1759224927.758823, 0.932093, -6.021118, -8.460510, 0.070318, 1.578747, 0.832061, 31.052139, 25.199188, -287.603577, 13.724705, 100.771882
1759224927.779675, -0.564134, -4.797681, -6.718728, -0.181996, 0.396208, 0.391832, 31.903732, 25.261322, -287.603027, 13.724705, 100.771882
1759224927.799695, 1.027412, -5.766435, -7.097012, -0.274901, -0.808453, 0.135892, 31.466415, 25.664169, -287.411255, 13.724705, 100.771882
1759224927.819718, 0.992397, -4.588188, -8.465448, -0.121605, -1.419590, 0.107347, 30.741241, 25.712570, -286.985596, 13.724705, 100.771882
1759224927.839638, 0.628328, -2.927959, -9.394847, -0.238677, -0.718662, 0.215920, 30.351883, 26.019470, -286.345215, 13.724705, 100.771882
1759224927.858980, 1.827075, -4.971560, -9.546281, -0.371148, 0.406353, 0.195387, 30.517212, 25.937607, -286.918396, 13.724705, 100.771882
1759224927.879655, 0.475399, -4.375553, -8.293066, -0.808592, 1.537309, -0.131010, 31.099106, 26.322845, -286.741638, 13.724705, 100.771882
1759224927.899665, 0.954389, -2.546832, -7.655909, -1.522418, 3.540208, -0.157014, 32.996460, 27.038025, -285.816772, 13.724705, 100.771882
1759224927.918767, 1.524658, -3.771317, -7.943512, -1.745082, 4.589990, -0.172039, 35.376099, 27.534531, -284.691986, 13.724705, 100.771882
1759224927.939658, 0.689829, -2.782062, -7.553706, -1.572927, 4.406837, -0.546214, 37.542603, 28.636337, -283.480682, 13.724705, 100.771882
1759224927.959133, 1.109563, -1.764826, -7.201160, -1.366881, 3.252854, -1.165413, 38.063934, 29.243240, -282.651550, 13.724705, 100.771882
1759224927.979667, 3.849876, -1.528249, -5.956923, -1.345325, 2.864529, -1.206297, 38.723190, 29.838959, -281.964508, 13.724705, 100.771882
1759224927.999665, 4.483143, -0.341623, -4.843021, -1.623530, 2.643801, -0.595659, 39.791138, 30.964203, -280.496887, 13.724705, 100.771882
1759224928.019652, 4.103811, 1.268478, -3.145382, -1.269566, -0.201176, 0.056316, 39.641953, 31.288330, -280.174866, 13.724705, 100.771882
1759224928.039554, 2.448670, 2.127847, -1.869722, -2.006486, -1.811025, 0.346873, 39.240509, 31.778717, -278.631104, 13.724705, 100.771882
1759224928.059455, 2.293346, 0.682946, -2.214637, -3.005373, -1.210026, 0.684208, 39.283569, 32.823730, -276.431213, 13.724706, 100.771880
1759224928.079655, -0.198569, 1.368586, -6.113295, -3.608710, 0.221387, 0.279273, 39.921432, 33.886673, -274.245972, 13.724706, 100.771880
1759224928.099670, 0.269497, 2.405125, -9.592070, -2.935753, 0.393772, -0.664556, 39.659439, 34.801895, -271.817200, 13.724706, 100.771880
1759224928.119653, 0.979228, 2.689137, -9.410110, -2.350286, 0.488364, -1.065252, 39.164062, 35.501022, -270.418945, 13.724706, 100.771880
1759224928.139665, 0.290147, 3.239355, -6.807314, -2.261328, -0.340103, -1.527310, 37.978577, 36.078247, -268.297424, 13.724706, 100.771880
1759224928.159528, 2.456002, 4.238186, -7.161506, -2.307040, -0.722097, -1.504216, 36.654037, 36.335220, -266.420105, 13.724706, 100.771880
1759224928.178873, 3.091513, 5.114314, -8.954015, -2.268983, -0.445360, -1.195112, 36.075592, 36.378479, -265.271240, 13.724706, 100.771880
1759224928.199655, 4.025401, 5.850980, -9.650129, -1.820821, -0.276889, -0.685813, 35.250107, 36.514313, -263.555878, 13.724706, 100.771880
1759224928.219653, 2.899378, 4.441992, -7.708880, -1.724872, -0.117613, -0.535920, 34.931213, 36.677200, -262.193298, 13.724706, 100.771880
1759224928.239656, 3.407099, 5.884199, -6.382792, -1.889385, 0.236079, -0.554976, 34.772034, 36.613663, -260.706879, 13.724706, 100.771880
1759224928.259686, 3.889231, 7.533954, -6.369025, -2.246714, -0.463023, -0.946544, 34.120407, 36.745361, -259.202026, 13.724706, 100.771880
1759224928.279655, 6.075436, 9.032874, -6.029797, -2.789321, -0.408063, -1.242579, 32.879272, 36.921967, -257.349060, 13.724706, 100.771880
1759224928.299671, 9.521890, 10.442161, -4.748001, -3.285312, 0.792297, -1.229898, 32.065216, 36.259949, -254.518845, 13.724706, 100.771880
1759224928.319652, 9.950601, 9.585635, -7.193229, -3.757561, 0.941749, -1.081864, 31.245438, 36.127563, -251.201965, 13.724706, 100.771880
1759224928.339688, 11.773786, 8.488642, -8.455722, -4.312500, 1.529762, -0.703395, 30.751404, 34.881241, -248.248169, 13.724706, 100.771880
1759224928.359418, 12.770672, 7.445967, -7.972093, -4.542487, 2.864213, -0.814342, 28.917084, 33.881592, -245.103546, 13.724706, 100.771880
1759224928.379656, 13.477111, 8.186973, -8.682872, -4.006919, 3.916183, -0.715739, 27.549683, 32.610199, -243.150848, 13.724706, 100.771880
1759224928.399723, 15.439608, 6.962787, -9.509021, -3.058575, 2.642406, 0.167030, 26.889328, 31.627762, -240.833084, 13.724706, 100.771880
1759224928.419729, 17.703026, 4.103063, -10.208427, -1.893595, 1.647918, 1.328031, 27.202011, 31.281296, -240.303619, 13.724706, 100.771880
1759224928.439730, 13.233800, 8.490438, -8.260594, -1.355547, 1.455696, 1.153457, 27.669327, 31.253693, -239.500366, 13.724706, 100.771880
1759224928.459665, 13.983634, 5.696853, -5.581034, -1.743526, 1.826498, 1.201479, 27.929031, 30.584213, -238.681168, 13.724706, 100.771880
1759224928.478709, 13.287071, 4.337545, -5.449652, -2.181163, 2.074870, 1.820252, 28.414291, 30.035828, -238.086487, 13.724706, 100.771880
1759224928.499675, 11.168801, 5.303606, -6.016329, -2.161958, 1.365136, 1.967730, 28.664078, 29.088348, -236.954391, 13.724706, 100.771880
1759224928.519660, 10.787973, 4.797082, -5.680393, -1.947995, 1.106874, 1.936204, 30.158401, 28.722855, -235.753464, 13.724706, 100.771880
1759224928.539726, 11.082161, 4.520253, -5.052813, -1.838591, 1.259338, 2.160822, 30.333939, 28.359879, -234.883011, 13.724706, 100.771880
1759224928.559721, 9.580248, 5.631611, -4.903175, -1.684254, 0.791138, 2.034136, 31.199112, 27.974945, -234.123016, 13.724706, 100.771880
1759224928.579670, 7.918074, 4.362984, -5.058200, -1.481267, 0.396194, 1.879317, 32.057510, 27.254517, -233.320038, 13.724706, 100.771880
1759224928.599388, 8.510190, 4.386177, -5.945701, -0.829870, 1.115015, 1.911113, 33.038193, 26.719574, -232.924286, 13.724706, 100.771880
1759224928.619131, 6.597522, 4.462193, -8.265083, 1.126546, 2.648161, 2.229993, 32.573746, 28.007843, -233.587677, 13.724706, 100.771880
1759224928.639039, 8.435820, 2.980781, -5.644630, 2.942433, 2.734852, 3.316762, 33.732361, 29.169754, -235.579193, 13.724706, 100.771880
1759224928.659696, 8.658181, 4.148553, -3.195661, 3.109602, 0.319971, 3.638063, 35.861984, 30.521072, -237.953506, 13.724706, 100.771880
1759224928.679657, 5.306000, 5.134665, 3.097049, 0.585635, -0.340048, 1.523850, 37.225235, 31.341522, -238.921921, 13.724706, 100.771880
1759224928.699691, 3.387646, 1.779041, 2.694375, -0.458428, -0.428869, 0.155165, 37.612564, 30.966568, -238.202896, 13.724706, 100.771880
1759224928.719679, 3.917064, 1.074847, -0.878822, -0.353354, -0.715037, -0.351176, 38.034149, 30.923050, -238.181656, 13.724706, 100.771880
1759224928.739704, 6.475268, 2.499247, -1.134403, -0.123027, -0.568380, -0.138567, 38.448334, 30.974564, -238.131989, 13.724706, 100.771880
1759224928.759729, 11.170896, 4.330512, 0.418836, -0.113529, -0.502856, 0.305975, 38.891342, 31.105484, -238.398727, 13.724706, 100.771880
1759224928.779744, 11.918785, 5.284452, 0.146196, 0.095349, -0.463603, 0.759138, 39.288513, 31.088898, -237.862396, 13.724706, 100.771880
1759224928.799725, 8.767716, 2.229900, -1.248726, 0.400526, -0.047095, 0.242743, 39.600708, 31.134689, -238.589920, 13.724706, 100.771880
1759224928.819698, 7.008876, 1.654992, -1.300949, 0.076953, 0.648282, -0.559900, 39.528717, 31.256073, -238.215225, 13.724706, 100.771880
1759224928.839667, 7.739556, 3.544017, 0.104746, -0.235177, 1.144979, -0.929864, 38.399261, 31.425049, -238.155151, 13.724706, 100.771880
1759224928.858809, 8.168268, 6.905177, 0.742502, -0.516560, 0.537234, -0.900540, 37.069336, 31.226685, -238.373917, 13.724706, 100.771880
1759224928.879729, 9.495105, 5.554847, 2.474557, -0.467492, 0.035900, -1.149589, 36.598984, 30.817078, -237.712677, 13.724706, 100.771880
1759224928.899862, 8.764574, 6.070049, 1.374421, -0.103740, -0.318614, -1.620452, 35.843399, 30.604294, -237.107956, 13.724706, 100.771880
1759224928.919731, 9.005191, 4.335301, -0.350152, 0.004170, -0.410567, -1.528700, 34.622894, 30.614700, -236.944321, 13.724706, 100.771880
1759224928.939872, 10.072855, 4.612280, -1.319355, -0.101970, -0.826428, -1.551764, 34.001160, 30.363861, -237.265045, 13.724706, 100.771880
1759224928.959052, 10.947038, 7.288399, -1.878102, 0.120980, 0.000355, -1.558854, 33.040817, 30.657806, -237.315109, 13.724706, 100.771880
1759224928.979694, 11.021109, 6.294506, 0.562637, 0.019935, 0.394251, -1.208299, 32.313553, 30.308777, -237.521851, 13.724706, 100.771880
1759224928.999732, 9.008782, 5.867889, -0.005237, -0.129515, 0.190238, -0.941354, 31.243042, 30.089935, -237.537033, 13.724706, 100.771880
1759224929.019673, 7.960421, 5.504419, -0.691775, -0.306659, -0.015265, -0.899675, 30.637436, 29.829712, -237.449051, 13.724706, 100.771880
1759224929.039686, 8.292916, 4.128651, -0.186897, -0.440857, 0.255327, -1.006671, 30.194153, 30.021729, -237.633987, 13.724706, 100.771880
1759224929.059393, 8.040328, 3.313874, 0.717812, -0.436048, 0.189977, -1.320151, 29.558304, 29.685272, -236.576614, 13.724703, 100.771880
1759224929.079673, 6.563255, 1.481861, 0.714220, -0.228301, -0.363487, -2.150229, 28.183624, 29.005676, -236.752029, 13.724703, 100.771880
1759224929.099859, 5.236867, 2.127996, 0.296731, -0.374997, -0.672161, -2.995123, 26.621796, 28.565628, -236.430984, 13.724703, 100.771880
1759224929.119725, 4.794987, 4.543447, -0.104148, -1.024944, -0.991119, -3.202056, 25.119293, 27.365860, -235.544907, 13.724703, 100.771880
1759224929.139722, 5.311836, 8.772505, 0.909946, -2.036005, -1.285599, -2.501903, 24.474274, 26.170715, -234.144287, 13.724703, 100.771880
1759224929.159442, 6.382493, 9.960328, 0.855777, -2.298225, -2.032370, -1.590144, 24.301590, 24.300415, -232.869522, 13.724703, 100.771880
1759224929.179697, 4.700117, 8.733299, 0.578499, -2.163842, -1.608032, -1.675538, 24.307693, 22.880585, -231.604202, 13.724703, 100.771880
1759224929.199670, 4.220080, 6.858340, -1.461810, -1.552317, -0.189742, -2.764154, 23.428650, 21.023285, -229.876297, 13.724703, 100.771880
1759224929.219764, 4.745008, 7.393893, 0.093524, -0.175074, 0.409418, -3.549187, 21.369644, 20.063980, -229.518768, 13.724703, 100.771880
1759224929.239755, 2.858228, 7.629722, 1.489193, 0.318176, 0.552339, -4.512604, 19.590866, 18.910217, -229.835022, 13.724703, 100.771880
1759224929.259598, 2.604891, 7.857471, 0.695665, 0.114034, 0.489080, -4.609807, 17.583389, 17.403442, -230.023087, 13.724703, 100.771880
1759224929.279670, 1.509395, 8.446594, 0.456544, -0.472562, -0.438053, -4.724601, 15.837234, 15.353058, -230.259674, 13.724703, 100.771880
1759224929.299718, 2.142362, 7.036259, 0.754772, -0.664427, -1.383212, -4.507633, 14.774246, 12.637024, -229.594650, 13.724703, 100.771880
1759224929.319675, 2.787599, 6.635680, 0.317830, -0.268771, -2.143534, -3.951697, 14.856506, 11.201920, -228.123749, 13.724703, 100.771880
1759224929.339739, 2.541744, 6.248118, 0.152032, -0.330211, -2.393848, -3.670999, 15.218155, 9.530853, -227.684784, 13.724703, 100.771880
1759224929.359738, 1.644068, 6.025906, 1.307982, -0.752512, -2.796075, -3.556449, 16.397095, 8.052719, -226.139954, 13.724703, 100.771880
1759224929.379699, 0.618003, 5.758654, 1.467795, -0.493579, -2.593858, -2.927733, 17.803833, 6.034637, -225.280609, 13.724703, 100.771880
1759224929.399703, 1.282544, 5.511751, 0.750881, 0.189138, -1.327110, -1.275552, 18.095551, 5.292740, -224.743454, 13.724703, 100.771880
1759224929.419693, -1.388338, 30.561086, -0.004040, 1.134181, -0.312441, -0.014989, 18.898239, 5.818497, -223.570419, 13.724703, 100.771880
1759224929.439670, -2.535908, 34.742260, 2.035969, 0.489103, 1.341800, 1.000762, 18.154465, 6.674164, -224.083801, 13.724703, 100.771880
1759224929.459688, -3.250428, 10.337863, 1.523012, -0.437737, 1.936133, 0.541470, 17.134583, 6.989243, -225.538086, 13.724703, 100.771880
1759224929.479740, -3.207183, 4.160973, 0.929549, -0.666676, 0.750154, 0.096956, 16.416214, 6.532883, -225.488205, 13.724703, 100.771880
1759224929.499896, -2.063353, 7.999926, -0.685041, -0.056495, -0.921746, 0.008706, 16.658356, 6.371246, -225.545898, 13.724703, 100.771880
1759224929.519740, -1.301847, 9.956886, -0.437241, 0.158850, -1.024045, -0.189770, 17.605026, 6.544891, -224.760208, 13.724703, 100.771880
1759224929.539745, -0.544382, 10.437672, 0.014216, 0.251320, -0.368805, -0.139357, 18.195160, 6.550415, -225.135712, 13.724703, 100.771880
1759224929.559681, -0.256180, 9.953893, 0.477643, 0.395725, -0.021987, -0.062527, 18.152893, 6.607544, -224.756363, 13.724703, 100.771880
1759224929.579693, -0.173729, 9.817723, 1.322647, 0.271483, 0.115261, -0.018981, 17.849564, 6.787766, -224.752045, 13.724703, 100.771880
1759224929.599735, -0.140510, 9.778069, 1.709610, -0.006423, 0.071293, 0.005016, 17.904449, 6.944839, -224.386505, 13.724703, 100.771880
1759224929.619742, -0.648529, 9.490316, 1.033248, -0.104274, 0.033407, 0.016814, 17.728256, 7.203796, -224.972229, 13.724703, 100.771880
1759224929.639683, -0.908749, 9.655666, 0.347907, -0.060617, 0.096724, 0.012248, 17.607559, 6.823303, -225.133896, 13.724703, 100.771880
1759224929.659887, -0.496946, 9.711181, -0.046986, 0.032935, 0.040295, 0.033897, 17.506363, 7.020050, -224.815750, 13.724703, 100.771880
1759224929.679109, -0.707187, 9.988909, 0.251690, 0.080320, 0.015789, 0.013694, 17.645172, 7.063599, -224.960205, 13.724703, 100.771880
1759224929.699888, -0.778714, 9.568577, 0.733075, 0.051637, 0.014043, 0.003433, 17.572952, 7.157440, -225.114532, 13.724703, 100.771880
1759224929.719737, -0.756717, 9.559000, 0.854730, 0.010120, 0.014672, 0.003226, 17.563873, 7.457962, -225.360641, 13.724703, 100.771880
1759224929.739893, -0.676961, 9.771186, 0.670676, 0.004564, 0.099921, 0.016561, 17.663513, 6.849380, -225.068390, 13.724703, 100.771880
1759224929.759686, -0.796072, 9.893141, 0.468366, -0.029446, 0.190034, 0.033127, 17.392776, 6.856384, -225.016769, 13.724703, 100.771880
1759224929.779670, -0.948553, 9.880721, 0.193631, -0.060107, 0.186228, 0.031367, 17.390671, 6.841553, -224.823700, 13.724703, 100.771880
1759224929.799747, -1.020080, 9.776872, -0.055665, 0.001975, 0.163945, 0.012209, 17.166763, 6.834503, -225.204346, 13.724703, 100.771880
1759224929.819721, -0.899921, 9.665691, 0.153379, 0.085007, 0.206361, -0.000838, 16.901169, 7.103882, -225.339676, 13.724703, 100.771880
1759224929.839861, -0.844106, 9.743952, 0.562039, 0.099102, 0.232529, -0.010600, 16.666794, 6.702805, -225.359238, 13.724703, 100.771880
1759224929.859763, -0.770634, 9.714473, 0.782904, 0.059048, 0.227572, -0.005507, 16.775650, 7.215042, -225.471832, 13.724703, 100.771880
1759224929.879477, -0.672621, 9.692477, 0.796072, 0.023678, 0.263170, 0.006520, 16.041260, 7.483566, -225.833328, 13.724703, 100.771880
1759224929.899752, -0.660650, 9.689184, 0.665588, 0.014610, 0.335209, 0.002845, 16.330246, 7.198410, -226.042694, 13.724703, 100.771880
1759224929.918719, -0.763152, 9.845855, 0.530765, 0.021363, 0.401727, 0.023083, 16.066208, 7.215225, -225.580444, 13.724703, 100.771880
1759224929.939717, -0.685789, 9.776872, 0.517148, -0.000286, 0.367466, -0.010047, 16.048172, 7.087097, -226.476349, 13.724703, 100.771880
1759224929.959681, -0.552163, 9.652224, 0.440832, 0.001016, 0.349247, -0.005572, 15.607315, 7.299637, -226.557831, 13.724703, 100.771880
1759224929.979673, -0.581192, 9.618256, 0.443227, 0.045788, 0.383759, -0.004955, 15.369873, 7.104156, -226.510590, 13.724703, 100.771880
1759224929.999689, -0.622193, 9.616161, 0.611569, 0.039384, 0.402273, -0.007738, 15.368454, 7.251907, -226.475052, 13.724703, 100.771880
1759224930.019703, -0.584484, 9.704597, 0.641197, -0.004024, 0.353480, -0.030529, 14.861313, 7.670563, -227.223785, 13.724703, 100.771880
1759224930.039717, -0.314089, 9.749638, 0.558896, -0.040260, 0.260268, -0.037886, 14.886856, 7.503052, -226.988235, 13.724703, 100.771880
1759224930.059696, -0.190638, 9.837475, 0.427066, -0.059101, 0.232088, -0.029228, 14.178482, 7.401428, -227.292847, 13.724704, 100.771884
1759224930.079728, -0.099210, 9.831041, 0.314239, -0.066827, 0.224393, -0.031654, 14.187027, 7.039581, -227.157104, 13.724704, 100.771884
1759224930.099684, -0.031424, 9.840318, 0.240318, -0.066746, 0.182405, -0.022671, 14.627869, 7.076859, -227.713379, 13.724704, 100.771884
1759224930.119696, 0.003142, 9.765799, 0.172831, -0.042982, 0.129853, -0.015016, 13.917709, 7.199097, -227.246094, 13.724704, 100.771884
1759224930.139698, 0.013916, 9.699509, 0.228048, -0.026654, 0.105202, -0.003978, 13.962967, 7.077744, -227.319366, 13.724704, 100.771884
1759224930.159757, -0.016161, 9.712977, 0.356586, -0.021712, 0.045064, 0.012511, 13.567795, 6.735931, -227.165527, 13.724704, 100.771884
1759224930.179677, -0.057610, 9.775675, 0.494253, -0.020157, -0.040883, 0.035253, 13.688477, 7.127136, -227.094055, 13.724704, 100.771884
1759224930.199683, -0.215777, 9.875034, 0.601992, -0.024656, -0.086300, 0.047018, 14.078568, 7.054794, -227.560074, 13.724704, 100.771884
1759224930.219784, -0.466420, 9.825953, 0.612916, -0.025338, -0.073135, 0.054175, 13.860672, 7.345932, -226.600815, 13.724704, 100.771884
1759224930.239719, -0.749984, 9.740211, 0.566229, -0.024823, -0.044189, 0.060523, 13.923859, 6.929626, -227.073578, 13.724704, 100.771884
1759224930.259738, -1.048960, 9.752930, 0.525378, -0.006338, -0.010697, 0.058214, 14.086960, 7.128830, -226.936966, 13.724704, 100.771884
1759224930.279749, -1.307833, 9.829395, 0.523582, 0.026562, 0.053596, 0.047319, 13.980179, 7.412399, -227.469727, 13.724704, 100.771884
1759224930.299701, -1.463905, 9.833435, 0.583437, 0.045237, 0.123231, 0.023137, 14.308716, 7.216812, -227.529510, 13.724704, 100.771884
1759224930.319733, -1.400309, 9.746196, 0.606930, 0.060220, 0.161411, -0.001619, 13.751419, 7.769211, -227.470398, 13.724704, 100.771884
1759224930.339712, -1.211915, 9.699809, 0.639252, 0.064375, 0.187132, -0.021524, 13.927490, 7.502594, -227.508865, 13.724704, 100.771884
1759224930.358935, -0.942268, 9.691579, 0.648978, 0.081169, 0.226026, -0.024599, 13.625626, 7.422882, -227.748123, 13.724704, 100.771884
1759224930.379695, -0.765546, 9.646837, 0.739210, 0.104670, 0.268138, -0.015994, 13.656204, 7.251831, -227.954697, 13.724704, 100.771884
1759224930.399760, -0.605434, 9.623793, 0.854580, 0.094530, 0.264150, -0.009663, 12.953751, 7.504318, -227.861603, 13.724704, 100.771884
1759224930.419716, -0.420033, 9.671827, 0.846201, 0.056225, 0.260745, 0.007175, 13.105026, 7.553345, -228.534134, 13.724704, 100.771884
1759224930.439731, -0.289549, 9.749488, 0.727089, 0.010588, 0.283120, 0.017321, 12.972610, 7.758377, -228.383331, 13.724704, 100.771884
1759224930.459393, -0.240318, 9.766248, 0.649577, 0.000067, 0.280091, 0.020950, 13.383408, 7.831024, -228.096619, 13.724704, 100.771884
1759224930.479257, -0.218172, 9.740809, 0.515950, -0.008155, 0.257645, 0.025128, 12.526733, 7.627396, -228.302597, 13.724704, 100.771884
1759224930.499689, -0.190788, 9.689184, 0.344915, -0.035750, 0.207345, 0.014293, 12.555634, 7.684631, -228.408447, 13.724704, 100.771884
1759224930.519718, -0.180014, 9.758916, 0.187047, -0.024183, 0.157660, 0.015717, 12.188644, 7.743195, -228.958740, 13.724704, 100.771884
1759224930.539691, -0.308403, 9.741707, 0.153229, -0.000382, 0.115155, 0.007384, 12.606567, 7.691315, -229.108307, 13.724704, 100.771884
1759224930.559696, -0.231040, 9.715670, 0.219818, -0.000406, 0.045653, 0.002375, 12.141983, 7.747574, -228.997040, 13.724704, 100.771884
1759224930.578823, -0.233285, 9.799018, 0.233584, -0.017004, 0.005962, -0.021444, 11.970444, 7.780075, -229.049988, 13.724704, 100.771884
1759224930.599696, -0.133477, 9.682451, 0.224905, -0.026137, -0.061541, -0.037154, 12.555618, 7.679749, -228.391830, 13.724704, 100.771884
1759224930.619702, -0.015862, 9.643096, 0.212036, 0.001870, -0.137858, -0.046031, 12.084503, 7.630966, -228.624481, 13.724704, 100.771884
1759224930.639693, 0.025438, 9.565135, 0.377985, 0.010624, -0.159826, -0.045430, 12.509842, 7.465897, -227.768906, 13.724704, 100.771884
1759224930.659696, -0.110283, 9.675418, 0.540192, -0.009948, -0.159212, -0.049772, 12.793518, 7.624191, -228.380768, 13.724704, 100.771884
1759224930.678850, -0.168193, 9.525780, 0.613215, -0.061836, -0.186652, -0.043722, 12.947586, 7.820831, -228.890961, 13.724704, 100.771884
1759224930.699694, -0.161908, 9.372851, 0.516848, -0.002369, -0.288998, -0.040384, 12.947067, 7.372192, -227.873230, 13.724704, 100.771884
1759224930.719690, -0.241066, 9.229947, 0.497395, 0.109882, -0.312485, -0.032539, 13.216919, 7.514053, -227.949600, 13.724704, 100.771884
1759224930.739697, -0.057760, 9.534758, 0.505177, 0.087105, -0.301520, -0.039726, 13.316666, 7.559998, -227.610825, 13.724704, 100.771884
1759224930.759403, 0.164751, 10.016143, 0.383820, 0.001750, -0.341848, -0.006263, 13.740936, 7.655457, -227.538925, 13.724704, 100.771884
1759224930.779028, -0.072724, 10.137349, 0.133177, 0.012372, -0.270776, 0.018451, 13.831024, 7.358963, -227.657516, 13.724704, 100.771884
1759224930.799717, -0.393397, 10.047417, 0.030975, 0.072160, -0.008241, 0.035611, 13.790665, 7.547928, -227.366348, 13.724704, 100.771884
1759224930.819772, -0.823905, 9.883115, 0.245705, 0.172029, 0.206341, 0.059080, 13.829605, 7.712570, -228.017944, 13.724704, 100.771884
1759224930.839720, -1.346140, 9.938481, 0.665588, 0.140341, 0.234354, -0.000826, 13.645477, 7.904160, -227.847305, 13.724704, 100.771884
1759224930.859731, -1.345392, 9.861118, 0.778864, 0.038174, 0.150499, -0.084088, 13.394852, 8.048798, -227.923752, 13.724704, 100.771884
1759224930.879246, -0.923114, 9.577106, 0.581342, 0.021081, 0.131346, -0.146906, 13.378006, 8.073410, -227.889160, 13.724704, 100.771884
1759224930.899700, -0.615459, 9.528623, 0.543484, 0.013485, 0.188389, -0.207862, 13.525940, 7.784454, -228.567337, 13.724704, 100.771884
1759224930.919709, -0.150835, 9.620501, 0.465373, -0.006414, 0.276661, -0.249469, 13.119080, 7.697113, -228.608536, 13.724704, 100.771884
1759224930.939698, 0.275483, 9.636063, 0.391302, -0.029776, 0.366946, -0.267632, 12.887802, 7.524261, -228.781708, 13.724704, 100.771884
1759224930.959700, 0.592864, 9.649680, 0.347309, -0.033633, 0.416085, -0.276006, 12.141068, 7.157013, -228.706238, 13.724704, 100.771884
1759224930.979402, 0.809539, 9.746945, 0.337882, -0.093830, 0.400056, -0.265668, 12.207230, 7.487854, -228.861023, 13.724704, 100.771884
1759224930.999783, 0.913238, 9.837775, 0.115820, -0.194341, 0.265729, -0.238169, 11.882477, 7.064880, -228.840103, 13.724704, 100.771884
1759224931.019712, 0.949301, 9.788394, -0.407014, -0.205152, 0.087219, -0.205281, 11.950226, 6.791367, -229.302185, 13.724704, 100.771884
1759224931.039722, 1.083825, 9.880272, -0.958728, -0.100611, -0.062603, -0.177132, 12.150726, 6.709518, -228.915375, 13.724704, 100.771884
1759224931.059719, 1.336114, 9.862764, -1.496077, 0.038266, -0.141096, -0.092250, 11.923492, 6.585159, -228.754303, 13.724706, 100.771882
1759224931.079638, 1.501314, 9.764602, -2.211195, 0.215683, -0.067865, 0.076608, 12.088699, 6.352219, -228.771042, 13.724706, 100.771882
1759224931.099771, 1.518373, 9.638607, -3.097349, 0.523469, 0.095301, 0.313316, 12.175171, 7.137466, -229.286163, 13.724706, 100.771882
1759224931.119715, 1.065869, 9.976638, -4.331111, 0.964009, 0.340063, 0.572026, 11.975967, 7.509476, -229.194534, 13.724706, 100.771882
1759224931.139743, 0.270395, 10.684723, -4.636072, 1.376186, 0.705627, 0.739186, 11.696960, 8.790268, -229.967072, 13.724706, 100.771882
1759224931.159721, 0.460734, 11.994651, -3.030161, 1.402856, 1.312949, 0.805530, 11.518326, 10.049942, -231.087952, 13.724706, 100.771882
1759224931.179710, 2.410662, 12.987347, -1.420809, 0.947426, 2.485571, 1.095614, 10.836090, 11.213928, -232.285004, 13.724706, 100.771882
1759224931.199722, 2.517353, 13.086257, 1.671452, 0.132538, 2.208899, 1.325253, 9.759308, 11.892731, -233.944748, 13.724706, 100.771882
1759224931.219718, 2.123956, 12.258312, -0.249596, 0.010680, 1.603518, 1.362917, 9.260574, 12.418396, -234.662201, 13.724706, 100.771882
1759224931.239700, -0.551415, 11.987468, -3.566762, 0.654459, 0.665146, 1.152470, 9.306473, 13.481171, -235.429367, 13.724706, 100.771882
1759224931.259610, -1.946187, 10.706870, -1.963694, 0.889126, -0.525859, 0.674067, 9.547333, 14.092789, -235.248978, 13.724706, 100.771882
1759224931.279767, 0.298527, 9.970354, -1.029656, 0.828124, -0.786626, 0.513116, 10.079178, 14.475296, -235.272995, 13.724706, 100.771882
1759224931.299754, 1.522563, 9.226355, -2.109142, 0.807085, -0.683828, 0.608228, 10.703629, 15.234940, -235.411270, 13.724706, 100.771882
1759224931.319733, 1.300500, 8.273912, -1.532738, 0.787878, -0.973998, 0.720848, 11.190872, 16.053131, -235.498047, 13.724706, 100.771882
1759224931.338899, 1.216105, 7.775768, -0.176722, 0.636090, -1.115571, 0.798270, 11.592163, 16.385071, -234.681686, 13.724706, 100.771882
1759224931.359705, 1.511041, 7.369053, -0.434548, 0.507958, -1.273217, 0.807962, 12.752823, 17.114426, -234.838699, 13.724706, 100.771882
1759224931.379699, 2.278233, 7.415740, -1.772158, 0.475081, -1.541878, 0.865195, 14.164841, 17.710342, -233.815811, 13.724706, 100.771882
1759224931.399731, 2.452261, 7.783550, -2.875137, 0.516259, -1.844603, 0.853591, 15.148193, 18.079865, -233.296097, 13.724706, 100.771882
1759224931.419725, 2.152088, 8.240992, -2.902072, 0.487868, -1.933744, 0.808416, 16.226074, 19.179245, -232.873032, 13.724706, 100.771882
1759224931.439730, 1.440262, 8.461707, -2.963273, 0.524156, -1.987518, 0.814640, 18.103485, 19.493668, -232.201492, 13.724706, 100.771882
1759224931.459749, 0.754473, 8.248923, -3.245041, 0.498887, -1.785625, 0.805371, 19.510269, 20.459686, -231.517761, 13.724706, 100.771882
1759224931.479704, 0.451756, 7.684041, -3.936516, 0.382162, -1.329682, 0.729703, 20.467255, 20.466309, -231.157776, 13.724706, 100.771882
1759224931.499793, 0.343718, 7.460632, -4.584597, 0.248444, -0.679416, 0.556601, 21.497574, 20.478241, -231.882187, 13.724706, 100.771882
1759224931.519128, 0.596156, 7.569269, -5.048324, 0.148637, -0.220829, 0.396509, 21.644073, 20.774002, -231.187317, 13.724706, 100.771882
1759224931.539729, 1.259799, 7.484424, -5.314080, 0.116457, -0.146775, 0.263701, 21.916992, 20.944122, -231.624832, 13.724706, 100.771882
1759224931.559785, 2.125453, 7.400926, -5.560982, 0.147455, -0.202528, 0.171028, 22.175934, 21.145691, -231.572403, 13.724706, 100.771882
1759224931.579705, 2.716371, 7.542334, -5.525219, 0.147139, -0.317760, 0.069342, 21.832260, 20.908463, -231.300507, 13.724706, 100.771882
1759224931.599711, 2.585439, 7.190236, -5.182249, 0.069399, -0.449689, -0.108283, 22.306198, 21.334991, -231.038025, 13.724706, 100.771882
1759224931.619720, 1.521216, 6.531382, -4.916044, -0.137079, -0.406024, -0.449199, 22.530746, 20.902603, -230.935211, 13.724706, 100.771882
1759224931.639736, 0.029928, 6.298396, -3.841945, -0.395042, 0.079906, -0.848117, 21.645981, 20.244873, -230.725418, 13.724706, 100.771882
1759224931.659719, -1.408688, 4.840926, -1.852663, -0.593135, 1.400360, -1.109863, 21.161285, 19.819214, -230.796753, 13.724706, 100.771882
1759224931.679707, -4.555717, 1.455525, -0.685041, -1.036520, 2.416413, -1.442057, 19.035995, 18.521835, -231.502594, 13.724706, 100.771882
1759224931.699440, -10.172364, 3.678840, -7.329998, -1.315641, 1.562785, -1.580182, 17.088348, 17.286469, -231.024628, 13.724706, 100.771882
1759224931.719784, -3.613449, 15.453524, -4.631134, -1.784165, 2.348145, -0.897858, 15.883530, 15.925568, -231.547180, 13.724706, 100.771882
1759224931.739714, 1.181987, 22.697630, 3.476680, -0.921249, 6.281908, -0.730167, 12.220688, 15.114746, -233.497147, 13.724706, 100.771882
1759224931.759029, -1.816152, 11.576713, 2.902221, -0.938914, 4.753778, -0.732031, 9.500061, 14.417572, -235.590775, 13.724706, 100.771882
1759224931.779892, -0.688632, 8.882488, 1.922843, -1.434979, 4.158100, -0.658704, 7.569595, 13.854034, -237.636581, 13.724706, 100.771882
1759224931.799786, -0.486771, 6.882282, 6.582409, -1.731082, 3.043911, -0.703946, 5.565414, 12.250168, -239.209534, 13.724706, 100.771882
1759224931.819840, 2.943072, 7.286603, 1.740435, -1.429321, 2.715199, -0.430866, 4.550751, 11.255219, -240.739655, 13.724706, 100.771882
1759224931.839741, 5.494842, 8.447941, 0.516848, -1.096917, 3.088774, -0.810620, 3.244736, 10.575439, -242.465698, 13.724706, 100.771882
1759224931.859755, 1.782483, 9.776722, 2.091634, -0.508478, 2.822032, -1.782771, 1.734650, 9.097641, -244.492950, 13.724706, 100.771882
1759224931.879743, 3.763984, 11.414356, 1.048660, 0.267505, 1.802352, -2.135969, 0.766098, 7.577347, -245.755096, 13.724706, 100.771882
1759224931.899729, 3.797353, 15.717335, -1.022623, 1.075755, -0.249150, -2.675515, 0.632614, 6.264984, -245.915955, 13.724706, 100.771882
1759224931.919793, 5.061043, 21.200207, 0.091877, 0.434843, -3.759860, -2.907781, 0.632355, 4.687195, -243.429382, 13.724706, 100.771882
1759224931.939859, 6.677279, 21.331589, 3.545214, -0.885218, -6.209476, -2.188406, 2.122864, 2.567566, -239.735611, 13.724706, 100.771882
1759224931.959745, 8.592341, 21.796064, 3.113360, -1.921279, -5.887327, -1.442527, 4.858902, 0.488510, -235.297836, 13.724706, 100.771882
1759224931.979918, 7.660996, 19.275418, 1.646163, -2.267602, -3.480697, -1.371392, 6.365143, -1.583923, -232.856796, 13.724706, 100.771882
1759224931.999775, 9.317485, 15.246725, 1.802086, -2.984701, -0.040358, -0.919182, 6.776123, -3.722839, -232.887405, 13.724706, 100.771882
1759224932.019803, 10.323349, 12.335675, 0.977134, -2.703135, 3.164340, -0.084173, 5.082108, -5.100433, -234.000839, 13.724706, 100.771882
1759224932.039785, 8.034941, 13.417854, -9.551069, -1.415525, 7.989404, 0.527418, 1.768845, -5.810928, -239.303391, 13.724701, 100.771887
1759224932.059869, 4.528632, 10.152463, -25.110836, 0.341876, 8.028753, 0.383277, -1.209503, -5.368668, -244.878616, 13.724701, 100.771887
1759224932.079797, 7.553407, 3.732860, -13.338696, 1.230795, -0.112615, 0.963438, -1.720718, -4.747498, -246.097305, 13.724701, 100.771887
1759224932.099763, 0.689380, 3.053655, -3.036147, 1.622089, -1.634266, 1.112260, -1.614655, -3.629364, -245.179489, 13.724701, 100.771887
1759224932.119759, -2.202666, 0.993145, -0.199018, 2.164976, -2.003307, 0.866016, -1.095932, -1.971725, -242.842422, 13.724701, 100.771887
1759224932.139775, -2.370709, -1.567454, 1.334767, 2.793175, -4.337715, 0.535808, 0.125977, -0.649643, -239.602432, 13.724701, 100.771887
1759224932.159720, -0.868646, -3.591452, 1.108815, 2.383340, -4.817325, 0.252040, 1.630051, 0.485550, -237.527512, 13.724701, 100.771887
1759224932.179751, 1.771410, -3.365649, -1.470938, 2.257332, -1.289561, 1.098044, 3.090469, 1.936279, -235.739548, 13.724701, 100.771887
1759224932.199712, 4.184466, 2.044798, -0.812981, 2.362512, -0.536181, 2.404218, 3.798813, 4.193771, -235.082779, 13.724701, 100.771887
1759224932.219730, 5.104737, 10.897508, 2.425925, 1.694193, -0.403181, 3.376663, 4.202774, 6.991089, -235.204956, 13.724701, 100.771887
1759224932.239749, 5.329493, 30.877420, 5.023783, 1.383505, 0.688074, 3.511935, 4.814514, 10.221161, -235.053345, 13.724701, 100.771887
1759224932.259732, 4.647894, 60.112717, 9.415946, 0.324741, 2.222013, 2.172844, 4.340256, 12.174469, -235.724564, 13.724701, 100.771887
1759224932.279747, 14.238168, 24.024317, -5.272780, -0.469041, 1.848989, 2.974590, 4.098907, 13.466202, -237.050156, 13.724701, 100.771887
1759224932.299791, -0.125696, 23.155821, -6.155941, 0.511933, 0.254663, 3.378186, 4.994827, 15.475616, -237.636307, 13.724701, 100.771887
1759224932.319740, -7.031471, 22.175096, -2.307861, 0.565197, -2.324966, 2.041575, 6.163681, 17.407471, -237.370026, 13.724701, 100.771887
1759224932.339725, -1.839345, 14.411598, 0.927604, 0.706063, -2.940098, 0.989870, 8.352356, 18.422607, -235.799164, 13.724701, 100.771887
1759224932.359788, -2.965069, 7.191134, 1.460313, 0.756998, -3.262639, 0.307161, 9.779068, 19.192688, -234.617767, 13.724701, 100.771887
1759224932.379722, -5.812373, 2.346767, 3.468899, 0.160957, -2.819535, -0.192235, 11.227539, 19.255859, -232.778442, 13.724701, 100.771887
1759224932.399758, -7.685088, -1.019780, 3.299958, -0.578646, -1.625736, -0.652728, 12.251465, 18.983841, -232.073456, 13.724701, 100.771887
1759224932.419735, -8.207323, -2.913444, 1.480814, -0.763584, 0.183330, -1.278250, 12.317978, 18.299896, -231.257568, 13.724701, 100.771887
1759224932.439741, -6.265476, -3.156755, 0.710180, -0.579968, 0.886742, -1.546392, 11.656647, 16.893738, -231.795990, 13.724701, 100.771887
1759224932.459729, -4.222474, -3.420566, 0.473902, -0.870623, 1.436323, -0.931150, 10.129822, 16.316101, -231.867737, 13.724701, 100.771887
1759224932.479715, -4.776732, -4.102016, -1.950676, -1.575896, 2.379657, -0.521797, 8.994812, 15.231491, -231.991730, 13.724701, 100.771887
1759224932.498806, -2.536657, -0.209642, -5.432593, -1.316202, 3.986241, -0.344232, 7.355713, 14.277802, -233.364655, 13.724701, 100.771887
1759224932.519371, 2.292598, 1.898752, -2.958485, -0.730241, 4.111836, 0.252008, 5.212738, 13.682236, -236.389481, 13.724701, 100.771887
1759224932.539749, 1.031901, 5.158607, 5.404312, -0.864751, 2.359094, 0.694792, 3.927399, 13.882019, -237.725327, 13.724701, 100.771887
1759224932.559793, -0.632817, 5.462970, -0.028132, -0.696132, 3.788353, 0.674373, 3.131638, 13.916672, -239.453308, 13.724701, 100.771887
1759224932.579722, 2.025046, 11.735179, 5.751471, -0.251799, 2.265873, 0.978229, 2.053787, 14.608353, -242.129837, 13.724701, 100.771887
1759224932.599003, -5.904999, 34.093581, 6.510283, -1.684604, 3.078519, -1.687393, 1.873032, 14.311249, -242.448868, 13.724701, 100.771887
1759224932.619738, 3.658190, 23.474698, -9.219921, -0.849067, 5.810874, -1.158460, -0.614868, 12.497238, -245.768387, 13.724701, 100.771887
1759224932.639799, -3.012953, 4.632481, -2.644545, 0.879017, 0.189182, -0.793676, -1.508011, 12.114914, -248.037048, 13.724701, 100.771887
1759224932.659748, -5.779902, 4.865018, 0.676212, 2.099103, -2.388762, -2.237924, -1.667236, 11.279251, -247.316620, 13.724701, 100.771887
1759224932.679767, -5.727230, 11.722909, 1.787571, 3.072422, -3.669519, -4.249430, -1.753571, 9.752594, -246.255905, 13.724701, 100.771887
1759224932.699208, -1.357063, 27.749695, 5.706280, 1.893177, -5.729893, -4.542267, -0.841507, 6.613785, -243.153168, 13.724701, 100.771887
1759224932.719750, 12.504017, 36.198085, 12.531850, -1.763619, -7.024220, -1.518274, 0.487839, 4.169403, -238.295715, 13.724701, 100.771887
1759224932.739949, 13.516017, 22.503999, 4.891204, -3.869556, -4.569360, -0.174985, 3.597122, 2.865692, -234.391846, 13.724701, 100.771887
1759224932.759795, 10.441263, 13.778930, 1.521964, -4.022915, 1.568509, -1.718920, 3.655228, 0.297806, -233.277237, 13.724701, 100.771887
1759224932.779792, 12.745832, 13.902830, -2.174534, -2.903181, 4.356750, -1.639611, 1.875519, -2.659271, -235.279312, 13.724701, 100.771887
1759224932.799456, 8.286182, 8.566154, -4.948366, -2.698786, 7.359091, -0.869316, -0.598877, -4.838516, -239.700287, 13.724701, 100.771887
1759224932.819745, 0.628628, 9.421782, -17.784429, -2.173173, 3.871876, -0.352565, -2.563629, -6.128647, -245.049103, 13.724701, 100.771887
1759224932.839740, 3.868880, 4.168455, -12.038495, 0.755633, -2.282898, -0.330147, -2.624390, -6.498459, -245.309097, 13.724701, 100.771887
1759224932.859745, 4.851401, 1.770811, -2.435651, 1.462355, -2.912671, 0.001334, -1.550842, -5.985626, -242.535522, 13.724701, 100.771887
1759224932.879729, 3.444658, 1.299154, -1.697938, 1.635026, -2.123274, 0.240512, -0.874039, -5.232513, -240.680298, 13.724701, 100.771887
1759224932.899552, 4.018069, -0.447267, -1.166425, 1.289844, -0.944757, 0.510522, -0.075943, -4.372833, -240.350388, 13.724701, 100.771887
1759224932.919751, 5.722142, -1.889923, -2.363376, 0.749110, -0.062068, 1.086942, -0.136856, -3.303345, -239.175156, 13.724701, 100.771887
1759224932.939847, 9.084649, -1.752107, -6.096086, 1.840985, 0.704393, 2.425262, -0.221481, -1.494141, -240.078064, 13.724701, 100.771887
1759224932.959805, 6.416909, 4.727950, -3.448997, 3.572363, -0.077295, 4.226802, -0.491394, 2.181274, -240.319550, 13.724701, 100.771887
1759224932.979756, 3.097349, 10.035147, 0.484377, 3.594231, -2.603273, 4.854658, 0.787796, 6.626617, -239.843369, 13.724701, 100.771887
1759224932.999814, 8.371176, 26.842742, 1.098041, 3.941033, -3.076816, 6.012786, 3.913422, 11.493195, -239.271332, 13.724701, 100.771887
1759224933.019751, 2.153584, 67.195215, 14.238168, 1.881364, 3.213691, 3.277976, 5.175140, 15.858749, -240.043945, 13.724701, 100.771887
1759224933.039736, -5.875371, 32.488419, 16.635362, -0.678888, 7.795921, 0.730098, 3.202026, 16.526428, -244.526596, 13.724712, 100.771888
1759224933.059772, -0.819266, 17.478720, 15.248670, -4.228702, 1.796185, 2.415815, 2.865265, 16.868240, -246.616409, 13.724712, 100.771888
1759224933.079726, -6.072294, 15.892711, -3.041235, -4.112616, 1.193219, 1.781756, 3.449921, 17.177155, -245.260849, 13.724712, 100.771888
1759224933.099899, 2.543839, 10.845883, -11.496507, -1.231369, -0.316200, 0.524930, 3.258728, 17.348129, -244.944077, 13.724712, 100.771888
1759224933.119800, -2.540398, 5.444564, -7.942315, 0.445313, -3.348107, -0.586634, 3.871399, 17.075760, -243.523056, 13.724712, 100.771888
1759224933.139916, -6.191405, 2.957138, -1.069909, 0.681001, -3.723053, -1.286027, 4.934387, 16.603668, -241.124542, 13.724712, 100.771888
1759224933.159808, -4.520103, -0.217573, 1.726070, 0.177018, -3.207663, -1.157194, 5.777206, 15.430771, -238.805023, 13.724712, 100.771888
1759224933.179787, -4.407576, -3.118298, 0.806996, -0.394376, -2.746997, -0.775344, 6.214462, 15.304916, -237.468124, 13.724712, 100.771888
1759224933.199811, -8.542512, -6.579865, -13.640216, 1.662625, -3.194410, -1.085495, 7.485657, 14.948914, -235.718964, 13.724712, 100.771888
1759224933.218769, -8.211214, -6.580763, -9.722254, 2.236782, -1.214011, -1.451917, 7.860855, 14.982483, -235.713104, 13.724712, 100.771888
1759224933.239747, 1.342848, -0.013018, -0.829441, 0.119537, 2.362598, -0.564612, 6.619980, 15.218567, -236.409012, 13.724712, 100.771888
1759224933.259797, 5.851728, 7.016807, 10.245238, -2.396483, 4.041936, 1.037008, 5.299973, 14.661621, -238.614288, 13.724712, 100.771888
1759224933.279737, 3.948487, 9.971551, 7.719205, -1.025355, 3.641078, 1.495863, 3.955978, 14.979828, -240.071640, 13.724712, 100.771888
1759224933.299968, -0.159214, 5.308244, 1.392079, 0.701000, 3.303013, 1.156858, 3.091553, 15.797684, -242.497665, 13.724712, 100.771888
1759224933.319820, -4.339341, 12.059743, -13.801375, -0.681752, 7.849001, 1.519092, 1.887405, 16.672897, -246.367279, 13.724712, 100.771888
1759224933.339804, -3.220949, 20.856489, 1.913266, -0.143735, 3.236794, 0.560241, 0.987869, 17.479736, -249.361801, 13.724712, 100.771888
1759224933.359808, -7.122002, 22.867768, -0.959776, 0.398525, 0.791016, -1.020242, 0.574478, 17.250946, -250.523621, 13.724712, 100.771888
1759224933.379842, -4.741267, 9.204059, 1.081880, 1.179667, 0.611184, -1.547601, 0.140274, 15.769165, -251.415817, 13.724712, 100.771888
1759224933.399783, -5.333982, 16.611270, 2.359635, 2.492805, -1.400246, -3.374532, -1.367844, 13.947342, -252.099365, 13.724712, 100.771888
1759224933.419126, -1.171214, 21.560385, 7.347655, 2.107356, -6.586209, -4.294993, -1.795532, 11.395401, -248.558594, 13.724712, 100.771888
1759224933.439813, 7.966107, 21.360169, 7.605182, 0.262027, -8.732939, -3.124332, -0.062576, 8.951813, -242.605453, 13.724712, 100.771888
1759224933.459864, 11.306318, 24.099136, 11.543494, -2.692817, -8.046968, -2.201365, 2.541107, 6.626221, -236.280441, 13.724712, 100.771888
1759224933.479801, 11.710489, 18.906562, 6.638074, -5.425988, -2.599085, -2.576511, 4.398972, 2.609360, -232.466080, 13.724712, 100.771888
1759224933.499806, 15.471630, 15.983092, 1.837849, -4.647581, 3.766167, -1.874502, 2.904465, -1.066406, -233.530502, 13.724712, 100.771888
1759224933.519827, 11.008090, 11.448474, -1.519420, -4.255539, 6.577158, -0.951886, -0.084305, -3.746979, -237.289856, 13.724712, 100.771888
1759224933.539775, -2.127099, 11.413159, -29.048849, -2.230532, 5.879548, -0.740437, -2.499924, -5.867996, -243.271774, 13.724712, 100.771888
1759224933.559784, 4.077176, 8.962993, -15.215900, 1.150625, -2.383942, -0.487325, -2.454742, -5.808563, -242.161819, 13.724712, 100.771888
1759224933.579752, 6.231808, 3.437026, 0.869993, 0.751531, -2.018198, -0.467061, -1.864304, -6.264618, -240.766113, 13.724712, 100.771888
1759224933.599805, 6.393267, 2.624045, -0.037709, 0.736845, -0.684836, 0.221463, -1.487289, -5.675354, -239.827057, 13.724712, 100.771888
1759224933.619462, 4.346673, 0.124798, -0.267103, 0.113283, 0.425323, 0.552159, -1.435760, -5.421097, -239.540787, 13.724712, 100.771888
1759224933.639837, 4.703559, -2.611326, -3.864391, -0.789077, 1.992064, 0.548710, -2.457672, -5.125793, -240.354446, 13.724712, 100.771888
1759224933.659761, 15.068207, -4.768502, -16.112828, 1.461922, 1.468132, 2.486550, -2.728882, -3.513107, -241.767273, 13.724712, 100.771888
1759224933.679758, 6.369774, 0.693121, -1.882291, 3.143224, -2.497535, 3.796569, -2.606491, 0.530823, -240.621445, 13.724712, 100.771888
1759224933.699813, 2.575413, 3.706224, -0.249147, 4.147899, -3.706603, 4.383240, -0.601288, 5.015244, -237.468918, 13.724712, 100.771888
1759224933.719580, 4.708646, 10.548404, 1.388038, 4.608595, -3.917114, 4.537217, 2.276016, 9.852509, -236.194931, 13.724712, 100.771888
1759224933.739764, 16.775722, 45.074438, 3.629909, 3.345307, -1.426987, 5.426205, 4.767029, 15.298447, -235.408386, 13.724712, 100.771888
1759224933.759752, 4.981735, 64.727242, 6.187814, 3.705631, 7.165738, 2.998710, 4.156677, 19.283890, -240.005020, 13.724712, 100.771888
1759224933.779742, -6.127660, 26.982353, 15.809063, -0.869500, 9.354781, 1.636519, 2.085571, 20.882950, -247.089737, 13.724712, 100.771888
1759224933.799841, -6.651541, 20.245369, 14.527866, -5.309770, 2.742264, 2.652368, 2.249130, 21.778793, -247.527847, 13.724712, 100.771888
1759224933.819772, -2.120066, 13.032388, -7.295581, -3.100507, 1.750695, 1.756915, 3.058487, 22.619415, -246.791245, 13.724712, 100.771888
1759224933.839778, 3.372383, 8.220940, -10.435726, -0.183513, -0.791379, 0.385903, 3.538132, 23.129791, -245.934937, 13.724712, 100.771888
1759224933.859789, -2.701408, 3.996072, -5.013608, 0.415502, -3.370116, -0.434622, 4.651382, 22.884979, -244.501465, 13.724712, 100.771888
1759224933.879760, -6.609643, 1.271471, -0.325312, 0.197212, -3.638641, -0.771094, 5.092255, 22.612854, -241.961487, 13.724712, 100.771888
1759224933.899630, -6.278794, -1.620126, 1.836951, -0.336527, -1.812132, -0.463064, 6.003021, 22.157104, -240.801910, 13.724712, 100.771888
1759224933.919831, -7.517644, -3.994875, -2.355296, -0.131118, -1.256253, -0.318415, 6.390244, 21.654480, -239.572113, 13.724712, 100.771888
1759224933.939786, -10.220697, -4.822970, -7.387608, 0.799628, -1.604309, -1.270657, 6.504196, 21.418976, -238.984833, 13.724712, 100.771888
1759224933.959770, -4.519056, -2.682104, -6.817639, 0.611795, -1.073657, -1.954544, 6.166367, 20.991837, -238.622345, 13.724712, 100.771888
1759224933.979765, 8.780136, 1.107618, 3.025223, -1.681845, 3.980138, -0.659870, 4.777100, 19.819977, -239.701752, 13.724712, 100.771888
1759224933.999771, 7.232285, 5.149479, 9.192687, -1.948853, 3.731103, 0.371212, 3.225494, 18.688309, -241.373398, 13.724712, 100.771888
1759224934.019765, 3.703381, 5.443666, 2.706346, 0.121814, 3.324056, 1.193945, 2.685043, 18.728638, -242.897659, 13.724712, 100.771888
1759224934.039026, 2.432210, 6.899640, -14.041843, 0.722941, 6.726905, 1.840565, 1.619553, 19.850327, -246.247238, 13.724712, 100.771888
1759224934.059760, -3.024775, 25.015666, 1.569100, 0.861647, 0.651528, 0.162397, 2.019958, 21.350174, -249.225739, 13.724746, 100.771883
1759224934.079766, -8.893112, 47.438861, 1.950975, 0.273952, -3.055931, -2.690092, 1.514069, 20.663773, -248.541824, 13.724746, 100.771883
1759224934.099753, -5.202002, 10.038139, 0.414496, 0.966629, -2.124480, -3.274890, 1.002853, 19.059723, -247.743912, 13.724746, 100.771883
1759224934.119746, -4.189254, 8.128315, 1.428590, 1.270772, -2.010656, -3.302487, 0.234558, 16.669418, -246.009796, 13.724746, 100.771883
1759224934.139873, -4.622904, 12.210279, 3.774908, 1.487965, -3.645781, -3.389078, -0.518814, 14.761078, -244.398224, 13.724746, 100.771883
1759224934.159831, -1.015740, 21.377078, 4.881777, 1.552161, -4.972156, -3.602873, 0.117661, 12.966980, -242.047485, 13.724746, 100.771883
1759224934.179750, 5.378125, 26.544963, 14.231434, -0.313183, -6.943352, -3.006258, 1.183853, 10.902390, -238.251022, 13.724746, 100.771883
1759224934.199585, 15.466543, 25.761909, 16.151584, -4.818989, -5.348825, -1.499887, 4.548721, 8.725052, -232.271027, 13.724746, 100.771883
1759224934.219864, 15.392173, 18.905364, 0.032771, -7.216158, 6.225214, -2.587668, 3.920425, 3.993073, -231.908203, 13.724746, 100.771883
1759224934.239828, 16.745645, 15.582213, -3.724779, -4.782172, 8.361691, -2.475660, -0.033676, -1.143555, -235.621536, 13.724746, 100.771883
1759224934.259829, 8.363395, 6.125415, -32.836476, -1.071808, 3.872074, -1.035273, -3.198380, -4.110580, -242.646423, 13.724746, 100.771883
1759224934.279760, 6.320543, 4.128501, -12.976573, -0.016682, -2.784800, -0.624416, -3.026627, -4.646118, -242.475739, 13.724746, 100.771883
1759224934.299807, 7.415890, 1.435623, -1.956362, -0.132995, -0.648632, -0.602473, -2.217316, -5.345139, -241.496429, 13.724746, 100.771883
1759224934.319821, 9.634866, 1.056591, 1.042824, 0.234083, -0.691947, 0.245400, -2.069519, -5.404480, -240.299484, 13.724746, 100.771883
1759224934.339874, 5.965752, -1.861193, -2.532766, 0.286642, 0.149445, 0.666065, -1.789215, -5.227142, -240.170517, 13.724746, 100.771883
1759224934.359784, 5.742493, -4.362535, -8.561067, 0.761098, 1.099221, 1.015443, -2.504456, -4.319107, -241.043869, 13.724746, 100.771883
1759224934.379438, 8.666262, -2.514510, -8.985888, 1.665770, -1.130973, 2.339725, -2.032532, -3.022171, -241.446594, 13.724746, 100.771883
1759224934.399763, 1.207276, 5.948095, -5.102493, 3.061135, -1.958343, 2.648123, -1.651688, -0.388214, -239.769318, 13.724746, 100.771883
1759224934.418964, 0.112677, 5.839607, -0.542885, 4.026472, -3.031621, 2.363230, -0.632416, 3.218872, -238.474594, 13.724746, 100.771883
1759224934.439826, 4.187159, 13.299641, 1.548151, 4.834668, -4.698705, 2.949937, 1.313828, 6.837387, -236.462769, 13.724746, 100.771883
1759224934.459884, 14.143597, 33.886932, 6.420201, 4.723152, -6.491340, 5.432816, 5.431702, 11.842438, -233.297195, 13.724746, 100.771883
1759224934.479782, 0.279673, 60.389547, 6.124368, 2.608162, 1.618862, 3.105766, 8.409210, 16.398209, -232.965683, 13.724746, 100.771883
1759224934.499840, -9.234137, 29.400796, 5.087080, 1.659873, 7.452399, -0.194315, 6.600601, 18.169815, -236.514191, 13.724746, 100.771883
1759224934.519081, -4.673631, 20.410420, 7.511209, -1.360116, 6.802483, 1.247238, 3.341141, 18.527496, -241.639954, 13.724746, 100.771883
1759224934.539789, -0.862661, 18.304570, 1.174206, -1.858653, 1.770974, 2.293478, 3.002762, 19.372879, -244.178680, 13.724746, 100.771883
1759224934.559765, 5.028721, 16.528970, 0.190189, -1.198751, -0.465360, 1.976904, 3.629593, 20.750443, -243.648880, 13.724746, 100.771883
1759224934.579758, 4.499902, 8.223783, -3.345747, 0.382969, -1.996206, 0.986242, 4.608734, 21.035583, -243.169861, 13.724746, 100.771883
1759224934.598870, 0.339378, 4.976498, -0.834080, 0.918313, -3.201089, 0.421440, 6.201920, 22.045944, -241.603500, 13.724746, 100.771883
1759224934.619273, -4.762067, 2.134431, 3.147328, 0.161881, -2.511808, 0.146523, 7.310501, 22.525574, -240.270279, 13.724746, 100.771883
1759224934.639761, -7.435792, -1.119439, 4.012682, -0.791717, -1.833537, 0.338069, 8.245972, 22.208618, -238.973907, 13.724746, 100.771883
1759224934.659806, -8.101081, -2.782062, 3.091064, -0.849598, 0.019287, 0.774195, 8.812271, 22.631943, -238.012238, 13.724746, 100.771883
1759224934.679762, -9.076718, -3.454983, 0.627730, -0.838079, 1.300947, 0.477679, 8.872421, 22.237686, -238.454880, 13.724746, 100.771883
1759224934.699768, -11.866711, -6.604555, -7.131579, -0.193588, -0.274243, -0.135387, 8.485031, 21.900558, -238.323181, 13.724746, 100.771883
1759224934.719441, -8.287080, -9.049484, -14.193276, 1.112199, -1.774390, -1.600084, 9.077637, 21.604614, -237.914490, 13.724746, 100.771883
1759224934.739780, 3.602974, -2.129343, -4.915146, 0.731249, 0.773023, -2.250505, 8.402664, 21.277390, -238.144547, 13.724746, 100.771883
1759224934.759830, 6.696133, 6.274754, 9.947160, -0.114123, 2.373387, -1.138379, 6.590836, 20.571167, -239.280167, 13.724746, 100.771883
1759224934.779798, 8.363096, 6.605602, 0.853383, -0.204728, 7.438003, 0.520634, 5.219025, 20.303329, -241.839142, 13.724746, 100.771883
1759224934.799839, 4.337096, 16.385617, 9.908553, -0.539495, 6.263306, 2.199731, 3.345825, 21.029068, -247.562164, 13.724746, 100.771883
1759224934.819682, -9.485528, 62.676309, 7.402273, 0.526938, 2.328471, -0.025652, 3.425034, 22.243744, -250.047348, 13.724746, 100.771883
1759224934.839862, -5.501726, 5.351340, 0.352097, -2.351120, 2.604369, -1.729367, 2.406723, 21.170868, -250.852341, 13.724746, 100.771883
1759224934.859792, -2.905813, 5.111920, -2.278233, -1.247026, 1.882519, -1.365985, 1.790207, 19.539001, -251.918640, 13.724746, 100.771883
1759224934.879774, -3.881749, 12.757504, -1.013645, 0.560452, 0.810928, -2.606643, 0.488083, 18.148453, -252.846024, 13.724746, 100.771883
1759224934.899779, -1.996166, 19.977368, 0.531213, 2.892035, -1.884452, -4.085945, -0.481445, 16.042694, -253.411346, 13.724746, 100.771883
1759224934.919694, 3.705775, 26.469845, 5.113566, 3.012123, -5.461917, -4.132023, -1.962265, 13.408127, -251.360504, 13.724746, 100.771883
1759224934.939767, 11.259631, 29.159281, 11.886014, -0.748594, -9.701186, -2.562000, -1.228821, 10.781784, -246.086975, 13.724746, 100.771883
1759224934.959770, 12.106730, 18.747946, 10.024971, -6.223711, -8.016593, -1.871000, 2.103088, 7.738037, -238.014236, 13.724746, 100.771883
1759224934.979794, 14.514698, 15.865177, -0.760159, -6.950827, 0.142798, -1.905756, 3.283600, 3.370392, -234.384735, 13.724746, 100.771883
1759224934.999782, 14.197167, 12.054955, -4.705055, -4.849801, 6.019860, -1.832226, 1.419113, -0.605927, -236.568237, 13.724746, 100.771883
1759224935.019785, 1.416470, 4.936545, -27.906515, 0.260752, 11.794394, -1.398167, -2.397964, -2.954117, -244.806961, 13.724746, 100.771883
1759224935.039813, 6.730550, 3.766378, -13.210157, 1.077873, 0.116738, 0.594605, -3.866821, -2.992462, -247.361771, 13.724746, 100.771883
1759224935.059974, 6.470929, -0.425719, -0.129736, 0.120103, -1.773479, 0.744850, -3.408676, -2.083771, -246.163116, 13.724788, 100.771875
1759224935.079851, 5.033360, -1.511639, -4.451868, 1.305760, 0.537973, 0.893924, -2.976761, -1.312088, -246.231949, 13.724788, 100.771875
1759224935.099841, 3.532046, -0.723049, -1.303493, 1.658056, 0.947615, 1.158108, -3.285233, -0.133148, -247.351486, 13.724788, 100.771875
1759224935.119795, 3.080889, -2.570475, -1.231667, 0.348678, -0.441216, 1.212712, -3.191757, 1.002243, -247.539764, 13.724788, 100.771875
1759224935.139844, 7.770232, -1.133056, -9.151686, 1.070504, -0.540235, 1.882450, -2.767319, 2.220779, -247.144196, 13.724788, 100.771875
1759224935.159838, 8.245481, 4.526986, -5.144840, 2.610901, -0.889315, 2.967176, -2.046066, 4.803238, -246.263550, 13.724788, 100.771875
1759224935.179908, 4.324527, 4.999093, -0.203358, 4.051429, -2.256726, 3.546669, -1.047653, 7.988800, -246.105347, 13.724788, 100.771875
1759224935.199845, 6.355408, 9.585186, 2.048838, 5.294829, -4.452951, 4.206824, 1.071945, 12.042816, -244.882553, 13.724788, 100.771875
1759224935.219990, 22.979548, 40.545655, 8.575731, 3.277527, -5.728280, 6.635479, 5.203110, 16.814850, -242.142197, 13.724788, 100.771875
1759224935.239080, 9.845855, 57.363725, 5.261109, 1.712170, 0.165132, 3.452097, 7.782440, 20.523666, -241.666306, 13.724788, 100.771875
1759224935.259858, -4.271405, 30.865898, 6.276400, 1.436899, 7.116835, 0.708657, 7.231171, 21.304764, -244.788498, 13.724788, 100.771875
1759224935.279773, -4.531326, 25.788844, 8.995614, -1.493055, 6.377264, 1.898301, 6.068405, 22.065308, -249.020477, 13.724788, 100.771875
1759224935.299903, -6.011990, 17.538126, 3.279158, -2.057560, 2.825622, 2.725458, 6.604172, 22.904099, -250.567230, 13.724788, 100.771875
1759224935.319822, -6.290316, 8.082077, -1.929577, -1.235556, 1.109319, 1.649316, 7.649673, 23.803864, -250.645905, 13.724788, 100.771875
1759224935.339823, -4.398597, 5.013159, -4.927716, -0.701942, -2.142770, -0.031016, 7.854507, 23.773087, -249.363174, 13.724788, 100.771875
1759224935.359795, -5.226093, 3.185485, -4.893299, -0.310522, -2.622705, -1.014845, 7.759628, 23.263596, -247.685104, 13.724788, 100.771875
1759224935.379984, -6.212804, 1.594838, -1.240645, -0.605016, -1.219612, -1.565726, 7.543594, 22.049484, -245.851257, 13.724788, 100.771875
1759224935.399805, -7.411700, -1.680879, -4.808305, -0.912484, -0.668198, -1.928295, 7.072159, 20.598083, -245.368484, 13.724788, 100.771875
1759224935.419979, -9.021950, -2.491765, -12.362460, 0.520528, -0.451718, -3.170676, 5.890045, 19.072372, -244.745728, 13.724788, 100.771875
1759224935.439872, 3.027019, 2.959084, -5.313482, 0.958101, 1.161393, -3.542141, 4.175583, 16.975723, -245.552017, 13.724788, 100.771875
1759224935.459903, 10.316166, 2.713229, 8.298303, -0.058726, 2.686394, -2.804533, 2.533417, 14.365753, -247.479355, 13.724788, 100.771875
1759224935.479842, 12.499977, 1.424700, 9.939528, -0.790445, 1.168581, -1.176667, 1.195084, 13.411606, -248.183258, 13.724788, 100.771875
1759224935.499873, 4.280833, -0.054169, 3.664775, -0.511862, -0.397832, 0.205728, 1.181046, 12.687897, -247.736389, 13.724788, 100.771875
1759224935.519795, 0.117316, 1.067664, 1.311125, 0.422419, -0.648910, 0.936319, 1.809952, 13.286621, -247.138062, 13.724788, 100.771875
1759224935.539972, -1.044321, 0.791583, -0.983867, 0.575139, 0.901098, 1.256975, 2.155090, 13.933929, -247.989883, 13.724788, 100.771875
1759224935.559783, -0.865354, 8.911967, -0.645387, -0.343907, 2.115003, 2.283593, 2.204620, 14.779755, -248.782974, 13.724788, 100.771875
1759224935.579775, -9.671827, 49.058239, 1.054646, 1.597722, 2.301814, -0.560805, 1.966660, 15.203400, -250.864532, 13.724788, 100.771875
1759224935.599788, -8.881141, 21.352688, 4.647594, -0.339021, 1.378157, -1.976061, 0.675903, 13.849258, -252.433121, 13.724788, 100.771875
1759224935.619794, -4.053683, 11.546486, 2.148646, -0.421934, -0.039470, -1.656272, 0.359604, 12.593979, -252.141998, 13.724788, 100.771875
1759224935.639790, -5.310788, 9.829545, 3.109469, -0.069649, -1.464911, -2.602829, -0.192123, 10.666138, -250.393082, 13.724788, 100.771875
1759224935.659863, -3.605518, 14.712220, 3.785083, 0.416001, -3.089828, -3.624381, -0.646255, 8.177994, -249.013336, 13.724788, 100.771875
1759224935.679800, 0.009577, 22.323836, 7.332691, 0.060419, -4.627768, -3.993871, -0.448227, 4.896683, -246.172745, 13.724788, 100.771875
1759224935.699867, 8.117541, 28.951734, 15.726912, -2.477224, -7.948486, -2.919459, 1.060959, 2.455872, -240.950531, 13.724788, 100.771875
1759224935.719807, 11.935694, 25.700109, 10.699538, -5.540607, -5.328825, -1.742109, 3.795288, -1.169174, -236.127502, 13.724788, 100.771875
1759224935.739876, 17.189171, 17.840693, -0.964564, -5.849632, 13.354359, -2.511085, 2.177872, -6.583328, -238.686569, 13.724788, 100.771875
1759224935.759786, 9.509470, 11.706449, -48.226554, 2.951891, -0.156068, 0.678133, -1.355392, -8.367844, -245.586517, 13.724788, 100.771875
1759224935.779925, 7.842806, 1.526004, 2.319383, 1.155574, -1.570488, 0.756148, -1.199661, -7.628845, -244.710480, 13.724788, 100.771875
1759224935.799793, 6.662914, 1.530942, -0.622044, 1.256869, 0.704165, 0.784194, -1.042923, -6.554626, -243.623047, 13.724788, 100.771875
1759224935.819981, 4.186411, 0.794725, 0.534206, 1.409166, 1.180731, 1.217734, -1.763962, -5.809113, -244.175308, 13.724788, 100.771875
1759224935.839854, 2.772486, -0.225654, -0.254833, 1.117883, 0.145096, 1.477127, -2.441696, -4.272232, -244.213562, 13.724788, 100.771875
1759224935.859834, 1.658134, -2.476353, -2.592471, 0.712263, -0.123305, 1.420709, -2.640915, -2.994522, -244.354401, 13.724788, 100.771875
1759224935.879807, 2.148197, -3.875464, -6.773196, 1.441626, -0.012146, 1.323241, -2.526642, -1.872314, -243.660049, 13.724788, 100.771875
1759224935.899838, 3.386149, -1.651850, -1.480814, 2.373372, -1.350420, 1.676949, -2.504211, -0.285995, -243.588669, 13.724788, 100.771875
1759224935.919802, 4.188506, 1.981202, -0.175974, 3.650084, -2.850613, 2.148926, -1.781219, 2.223618, -241.452805, 13.724788, 100.771875
1759224935.939804, 8.369530, 8.768165, 0.559345, 5.345251, -4.620748, 2.842891, -0.490585, 5.174728, -239.933975, 13.724788, 100.771875
1759224935.959861, 30.446314, 48.491562, 4.244620, 2.288887, -1.260171, 6.648755, 2.096039, 9.928558, -237.290543, 13.724788, 100.771875
1759224935.979812, 5.504719, 61.688102, 7.300819, 0.669396, 4.164489, 4.243118, 3.827957, 14.586060, -237.963455, 13.724788, 100.771875
1759224935.999857, -7.571812, 31.454722, 6.432621, -0.355685, 8.294547, 2.151600, 2.898483, 17.409241, -242.120209, 13.724788, 100.771875
1759224936.019992, -12.644677, 23.336583, -0.003591, -2.794750, 2.766076, 2.721153, 1.725128, 18.710327, -246.028061, 13.724788, 100.771875
1759224936.039790, -9.645939, 15.437663, -2.882020, -1.086300, 1.172644, 1.652157, 2.256317, 19.818069, -246.633362, 13.724788, 100.771875
1759224936.059799, -1.997662, 7.243956, 1.912817, -0.646262, -2.079348, -0.179006, 2.346359, 20.662430, -246.151718, 13.724821, 100.771874
1759224936.079508, 0.806247, 1.712453, -4.136732, -0.324160, -1.754883, -0.990415, 2.896469, 20.030334, -244.152924, 13.724821, 100.771874
1759224936.100011, -4.321235, 2.190994, -2.804209, -0.136045, -0.716776, -1.362366, 3.091782, 19.432404, -243.627502, 13.724821, 100.771874
1759224936.119804, -6.553528, 0.866701, 1.308730, -0.836566, -0.021040, -1.527057, 2.752029, 18.597290, -242.823959, 13.724821, 100.771874
1759224936.139884, -7.426215, -1.928230, -4.546888, -0.359104, -0.275551, -1.565191, 1.997040, 17.490768, -242.340698, 13.724821, 100.771874
1759224936.159016, -8.449587, -2.532018, -9.729886, 1.347455, -0.191754, -1.946411, 1.426224, 16.720016, -242.330032, 13.724821, 100.771874
1759224936.179791, -2.412158, -1.187075, -3.203891, 0.990786, 0.955701, -1.475292, 0.669144, 15.524597, -243.051132, 13.724821, 100.771874
1759224936.199800, 3.995025, -1.799991, 3.287538, -0.107031, 2.631041, -1.045195, -0.351685, 15.291229, -244.151184, 13.724821, 100.771874
1759224936.219814, 3.493439, -1.144877, 6.310966, -0.587540, 1.911783, -0.924736, -1.644547, 14.516922, -245.666138, 13.724821, 100.771874
1759224936.239866, 2.999785, 3.240552, 7.065439, -0.458618, 0.585092, 0.062042, -2.040939, 13.746201, -246.863922, 13.724821, 100.771874
1759224936.259818, 3.199102, 3.649212, 2.510470, 0.335438, 1.201049, 1.186875, -2.271362, 14.402954, -246.973785, 13.724821, 100.771874
1759224936.279793, 3.051410, 10.914417, 0.977134, 0.551676, 1.762969, 1.615160, -2.112656, 15.482376, -248.366440, 13.724821, 100.771874
1759224936.299840, -0.863259, 45.268966, 1.607258, -0.717918, 3.467175, 0.248532, -2.378204, 16.971985, -250.279541, 13.724821, 100.771874
1759224936.319874, -7.267450, 20.372711, 1.168670, -1.193978, 4.057387, -1.780072, -3.135666, 16.319397, -252.742844, 13.724821, 100.771874
1759224936.338965, -2.334796, 6.395511, 0.277428, -0.832417, 2.720682, -1.706605, -3.814453, 14.741348, -255.735764, 13.724821, 100.771874
1759224936.359872, -2.275689, 10.131214, -0.233884, 0.925283, -0.199577, -2.061097, -4.627090, 13.431671, -256.930176, 13.724821, 100.771874
1759224936.379791, -1.734300, 16.915334, 1.553388, 2.840629, -3.595316, -3.341590, -4.935364, 11.610443, -256.042572, 13.724821, 100.771874
1759224936.399801, -0.395642, 24.843284, 7.606379, 2.619298, -7.079054, -4.539530, -5.462250, 8.643661, -252.779831, 13.724821, 100.771874
1759224936.419833, 9.754726, 28.577490, 20.091093, -1.797479, -9.810158, -2.813150, -5.072601, 5.465073, -245.177597, 13.724821, 100.771874
1759224936.439185, 5.871331, 18.760815, 11.543045, -4.946980, -4.615562, -2.027000, -2.560959, 2.652115, -238.850708, 13.724821, 100.771874
1759224936.459813, 9.583391, 14.996531, 1.953818, -6.191050, 4.424323, -2.996503, -2.319061, -1.425125, -238.504105, 13.724821, 100.771874
1759224936.479796, 12.081590, 11.687744, -41.956289, -1.385479, 5.578830, -1.489359, -4.900879, -5.368515, -244.277542, 13.724821, 100.771874
1759224936.499994, 7.050325, 7.717410, -15.189564, 1.409639, -2.346661, 0.326941, -5.182358, -5.182785, -245.084290, 13.724821, 100.771874
1759224936.519839, 4.109647, 4.132991, 0.660351, 0.904734, 1.392062, 0.071641, -5.074280, -4.531570, -243.702072, 13.724821, 100.771874
1759224936.539393, 4.780772, 2.696619, 2.208801, 0.763686, 1.974236, 0.490224, -5.269669, -4.217804, -245.471329, 13.724821, 100.771874
1759224936.559003, 4.053982, 0.372448, 1.808221, 0.450733, 0.864105, 1.025092, -5.924667, -3.276901, -246.288391, 13.724821, 100.771874
1759224936.579877, 3.208978, -0.954389, 0.218770, 0.000247, -0.202754, 1.510923, -6.042374, -1.941971, -246.933426, 13.724821, 100.771874
1759224936.599804, 4.376451, -4.372261, -9.291897, 0.428527, 1.080935, 2.058800, -6.130829, -0.280579, -246.983536, 13.724821, 100.771874
1759224936.619823, 11.289858, -3.960608, -10.437223, 2.164900, 0.457968, 3.136336, -6.214859, 2.329376, -248.082596, 13.724821, 100.771874
1759224936.639491, 6.416610, 2.768894, 0.149189, 3.111541, -2.074686, 3.443443, -5.548599, 5.792526, -248.189163, 13.724821, 100.771874
1759224936.659830, 4.542249, 4.795287, 0.746841, 3.650053, -3.418021, 3.602427, -4.349899, 9.632965, -246.426697, 13.724821, 100.771874
1759224936.679855, 7.962666, 15.629648, 1.312621, 3.867735, -5.185015, 2.887147, -1.961792, 13.049179, -244.525681, 13.724821, 100.771874
1759224936.699804, 23.384766, 59.441742, 6.777237, 1.579240, -2.994757, 4.040594, 0.998978, 16.666656, -242.066467, 13.724821, 100.771874
1759224936.719830, -1.396268, 43.177631, 8.570643, 1.544386, 4.727290, 1.360404, 1.271851, 19.891220, -245.920273, 13.724821, 100.771874
1759224936.739699, -2.058864, 23.778912, 12.110919, -0.956485, 6.990422, 1.262868, 0.685043, 20.004333, -248.631729, 13.724821, 100.771874
1759224936.759818, -4.916044, 17.971177, 6.083218, -3.663027, 2.525645, 2.692216, 0.739395, 21.184509, -251.196472, 13.724821, 100.771874
1759224936.779813, -0.037260, 13.387328, -8.777293, -1.835679, 1.172727, 1.661417, 1.794327, 22.314102, -251.061249, 13.724821, 100.771874
1759224936.799852, -1.624466, 10.216507, -3.013103, -0.391154, -1.433360, 0.512597, 2.211670, 23.074173, -250.844345, 13.724821, 100.771874
1759224936.819869, -2.912846, 5.235221, -1.179593, 0.188958, -2.661281, 0.054846, 3.052643, 23.399658, -249.516724, 13.724821, 100.771874
1759224936.839816, -4.851850, 1.249624, -0.039205, 0.399598, -2.790716, -0.021535, 4.217636, 23.095016, -246.457748, 13.724821, 100.771874
1759224936.859889, -7.271190, -0.567426, 1.462558, 0.292153, -1.631435, 0.259653, 5.116684, 23.935928, -245.782837, 13.724821, 100.771874
1759224936.879865, -8.498069, -2.177826, -1.752406, 0.319161, -0.445980, 0.725341, 5.174469, 24.898132, -245.487671, 13.724821, 100.771874
1759224936.899871, -13.041067, -3.996371, -9.100660, 0.846608, -1.223533, 0.393453, 6.121613, 25.032272, -245.858658, 13.724821, 100.771874
1759224936.919837, -12.628965, -3.717447, -8.125472, 0.349368, 0.756710, -1.542178, 4.825424, 24.390732, -246.740997, 13.724821, 100.771874
1759224936.939857, 5.043984, -2.559102, 0.294786, -0.604257, 4.578664, -2.028480, 2.559235, 22.866302, -249.525970, 13.724821, 100.771874
1759224936.959807, 14.870536, 2.920477, 13.722666, -1.681183, 5.373477, -0.967471, 1.668671, 21.888306, -252.138290, 13.724821, 100.771874
1759224936.979841, 7.382072, 7.534702, 9.546580, -0.771043, 2.409674, 0.410535, 1.602798, 21.927216, -253.232925, 13.724821, 100.771874
1759224936.999816, 2.121562, 5.241207, -17.816452, 2.058011, 1.287279, 0.667328, 1.571854, 22.384506, -255.153946, 13.724821, 100.771874
1759224937.019371, 0.421379, 9.657761, 10.065074, 1.182979, -0.066688, 1.151715, 1.743301, 22.836288, -255.850677, 13.724821, 100.771874
1759224937.038943, -4.838233, 35.852422, 4.648043, 1.669785, -2.253899, -1.150650, 2.081024, 23.217743, -254.960968, 13.724821, 100.771874
1759224937.058940, -5.611560, 25.841067, 5.948095, -0.137495, -0.017758, -2.653412, 0.898849, 21.692261, -254.746552, 13.724844, 100.771866
1759224937.079805, -3.835960, 3.623026, 2.097021, -0.130764, 0.532742, -2.141774, -0.416412, 19.507782, -254.887772, 13.724844, 100.771866
1759224937.099831, -9.665093, 12.272079, 3.173664, 0.171036, -0.736744, -3.764784, -1.852798, 16.825974, -254.251144, 13.724844, 100.771866
1759224937.119818, -3.045425, 24.775648, 3.986495, 0.375381, -3.547470, -4.939118, -3.242661, 12.839905, -251.714386, 13.724844, 100.771866
1759224937.140006, 3.592949, 27.540053, 5.560384, 0.167310, -6.815293, -4.583303, -3.164215, 9.229904, -246.592377, 13.724844, 100.771866
1759224937.159172, 19.133711, 32.669031, 10.201095, -3.167055, -5.674422, -2.383918, -2.649353, 8.173157, -243.788528, 13.724844, 100.771866
1759224937.179805, 15.461305, 17.490092, 1.799991, -4.210250, 0.136448, -2.373948, -2.144699, 3.617813, -241.398590, 13.724844, 100.771866
1759224937.199815, 15.901539, 12.335825, -0.550367, -3.196218, 3.974627, -2.498077, -3.570999, 0.155884, -245.085907, 13.724844, 100.771866
1759224937.219842, 9.773730, 6.698078, -8.035539, -3.466520, 3.401287, -1.663423, -4.763443, -1.462585, -246.562653, 13.724844, 100.771866
1759224937.239827, 1.651401, 6.947973, -28.729372, 0.922968, -2.332623, -0.314574, -3.912964, -1.689255, -245.075317, 13.724844, 100.771866
1759224937.259382, 4.337545, 2.864213, -2.429666, 0.877761, 0.196320, -0.049487, -4.405914, -1.417709, -244.910538, 13.724844, 100.771866
1759224937.279876, 6.006753, 2.526332, 1.660229, 1.122297, 0.313998, 0.566913, -3.956238, -0.207001, -245.496918, 13.724844, 100.771866
1759224937.299818, 4.563049, 0.263512, 0.561740, 1.044433, -0.110645, 1.002386, -4.131409, 0.655350, -245.459564, 13.724844, 100.771866
1759224937.319884, 3.559729, -1.599925, -2.710984, 0.559896, 0.767155, 1.101068, -4.156845, 2.022415, -246.415253, 13.724844, 100.771866
1759224937.339818, 6.256199, -3.354576, -8.591892, 0.677569, 1.084207, 1.317274, -4.475876, 3.730255, -246.767319, 13.724844, 100.771866
1759224937.359496, 7.565677, -3.665972, -5.307347, 1.868433, -2.316285, 1.771314, -2.809631, 5.386932, -244.823624, 13.724844, 100.771866
1759224937.379278, 3.665972, 0.115071, -0.375890, 2.837514, -4.123871, 2.411092, -1.139648, 8.319305, -242.138580, 13.724844, 100.771866
1759224937.399884, 6.421398, 2.129642, -0.013318, 3.842448, -4.944081, 3.616135, 1.251511, 12.229858, -240.033813, 13.724844, 100.771866
1759224937.419829, 9.888951, 8.296208, 2.209848, 4.819183, -5.938418, 4.917428, 5.655319, 17.873581, -237.991241, 13.724844, 100.771866
1759224937.439817, 26.242844, 54.007054, 5.068375, 3.913027, 2.314261, 6.432312, 6.827438, 22.385056, -242.339066, 13.724844, 100.771866
1759224937.459654, 0.755969, 64.927756, 15.101277, 0.760711, 12.037098, 1.431495, 4.600754, 22.879333, -248.585770, 13.724844, 100.771866
1759224937.479833, -1.081730, 27.274596, 14.976779, -5.447366, 6.124043, 1.317620, 4.497040, 22.673828, -249.320480, 13.724844, 100.771866
1759224937.499847, -0.773926, 15.613188, -4.611532, -4.463242, 0.821807, 2.324703, 5.248154, 23.074524, -247.752426, 13.724844, 100.771866
1759224937.519827, -0.149039, 11.342530, -6.879589, -0.615621, -0.798184, 0.694922, 5.769684, 23.506058, -247.158295, 13.724844, 100.771866
1759224937.539846, -3.089867, 7.277774, -4.900482, -0.014110, -3.713342, -0.328750, 6.679825, 23.487427, -245.623077, 13.724844, 100.771866
1759224937.559825, -6.320992, 4.830601, -1.391779, 0.560968, -3.831333, -0.883874, 7.189850, 22.621597, -243.323929, 13.724844, 100.771866
1759224937.579812, -6.295703, 2.927061, 1.949628, 0.152525, -2.182547, -0.537170, 7.621994, 22.299774, -242.642029, 13.724844, 100.771866
1759224937.599834, -7.135918, -0.794725, 0.022745, -0.328250, -0.806986, 0.131546, 8.034485, 22.149750, -241.391357, 13.724844, 100.771866
1759224937.619844, -11.461343, -4.672883, -11.030237, 1.103332, -1.751958, -0.136098, 8.510605, 22.308823, -240.839188, 13.724844, 100.771866
1759224937.639919, -8.953566, -7.017106, -4.957793, 0.566329, 0.110858, -1.193176, 8.325180, 21.631577, -241.348267, 13.724844, 100.771866
1759224937.659891, 1.726070, -8.045864, 0.404022, -0.717256, 3.599407, -1.349781, 6.928085, 20.654602, -242.179413, 13.724844, 100.771866
1759224937.679884, 5.616498, -2.233790, 3.813814, -1.283577, 5.498290, -0.296055, 5.047363, 20.191711, -245.124847, 13.724844, 100.771866
1759224937.700024, 0.753425, 1.862839, 10.800693, -0.956627, 3.083940, -0.143727, 3.977325, 18.953445, -247.919724, 13.724844, 100.771866
1759224937.719862, 0.549320, 3.639187, 4.181324, 0.533919, 2.400332, 0.162133, 3.047607, 19.110840, -248.495087, 13.724844, 100.771866
1759224937.740012, -2.056919, 8.825327, -9.556456, -0.478301, 2.952608, 0.603051, 2.777908, 18.921722, -250.359085, 13.724844, 100.771866
1759224937.759504, 6.118981, 22.004808, 8.323741, 0.306974, 0.697475, 0.536426, 2.599747, 19.359985, -251.895447, 13.724844, 100.771866
1759224937.779184, 3.634997, 62.595355, 6.277297, -0.033417, 1.689675, -1.418351, 2.497681, 19.357208, -251.718903, 13.724844, 100.771866
1759224937.799051, -1.533935, 3.818003, -0.222062, -1.475352, 3.556949, -1.488088, 0.385025, 17.630737, -254.329681, 13.724844, 100.771866
1759224937.819872, -1.861941, 6.119430, -0.708833, -0.019714, 0.889854, -1.306437, -0.468887, 17.051468, -255.080124, 13.724844, 100.771866
1759224937.839892, -5.860856, 13.310414, 0.734571, 2.034618, -1.872282, -3.679759, -1.572372, 14.658630, -255.423050, 13.724844, 100.771866
1759224937.859843, -0.933290, 21.397579, 4.568885, 2.780158, -5.885727, -5.502844, -2.719589, 11.044281, -252.341049, 13.724844, 100.771866
1759224937.879895, 11.887810, 31.426740, 13.557017, 0.670028, -8.708403, -3.749421, -2.013611, 7.813232, -245.986084, 13.724844, 100.771866
1759224937.899981, 14.495395, 20.280833, 8.000225, -3.080112, -6.033504, -1.769844, -0.020737, 5.539597, -240.183578, 13.724844, 100.771866
1759224937.919913, 14.183400, 14.783148, 0.687286, -4.127466, -0.138466, -1.409079, 0.127762, 3.021606, -238.676056, 13.724844, 100.771866
1759224937.939958, 13.888016, 10.485406, -2.190395, -2.413288, 4.080792, -1.681219, -1.385742, 1.004700, -240.320709, 13.724844, 100.771866
1759224937.959837, 8.835951, 2.241871, -6.716933, -2.533264, 8.352208, -1.015577, -3.815247, -0.561859, -245.914825, 13.724844, 100.771866
1759224937.979858, 4.752490, 1.395371, -24.189368, 0.246333, 0.872693, 0.313753, -5.148773, -0.556091, -248.580734, 13.724844, 100.771866
1759224937.999864, 3.967192, 2.038214, -0.533009, 0.259616, -2.457300, 0.864160, -4.267563, 0.304306, -246.443924, 13.724844, 100.771866
1759224938.019930, 3.599084, -1.610998, -5.199757, 0.815999, -0.468194, 0.953640, -3.935242, 1.529709, -246.097870, 13.724844, 100.771866
1759224938.039840, 3.043030, -3.799748, -3.809624, 0.965028, 1.172754, 0.867563, -4.164215, 2.236084, -246.363876, 13.724865, 100.771868
1759224938.059914, 5.491401, -5.055656, -5.130475, 1.167463, 0.856220, 1.189253, -4.305344, 3.293289, -247.529022, 13.724865, 100.771868
1759224938.079889, 6.451027, 0.347907, -6.313360, 2.137983, -0.799235, 2.286358, -4.418259, 5.355255, -247.006927, 13.724865, 100.771868
1759224938.100041, 2.401983, 4.092140, -1.465401, 2.905496, -2.079209, 2.657884, -3.197723, 8.488190, -245.910492, 13.724865, 100.771868
1759224938.119861, 3.159748, 6.785018, 0.321422, 2.838228, -3.225015, 2.688486, -2.093796, 11.366653, -243.846298, 13.724865, 100.771868
1759224938.140024, 9.567828, 18.068142, 1.023072, 3.366780, -4.487272, 3.594953, 0.809723, 14.902878, -241.963943, 13.724865, 100.771868
1759224938.158922, 20.058472, 45.023112, 2.291550, 2.707474, -2.806082, 5.324249, 3.504440, 19.513901, -241.375412, 13.724865, 100.771868
1759224938.179890, 1.510442, 39.906553, 2.391508, 4.140759, 5.020319, 2.629852, 4.352478, 22.980209, -244.761398, 13.724865, 100.771868
1759224938.199901, -4.356100, 25.460539, 11.420492, 1.558493, 8.027806, 0.686149, 2.822174, 23.902252, -251.170013, 13.724865, 100.771868
1759224938.219919, -1.766472, 21.522077, 12.573449, -2.962985, 3.986892, 1.585001, 3.136169, 24.395432, -253.544632, 13.724865, 100.771868
1759224938.239854, 2.222567, 18.930504, 9.779266, -3.773261, -0.984870, 1.043176, 3.863037, 24.911362, -250.674133, 13.724865, 100.771868
1759224938.259197, 12.675053, 12.315773, -13.809905, -0.705749, 1.479839, 1.230325, 4.514740, 25.393204, -250.548660, 13.724865, 100.771868
1759224938.279893, 1.313968, 7.000346, -3.674501, 0.360515, -2.216646, 0.617763, 5.262939, 26.228775, -249.820923, 13.724865, 100.771868
1759224938.300035, -6.265626, 4.134188, -0.077063, -0.036091, -2.354014, 0.036844, 6.217499, 25.902328, -248.121613, 13.724865, 100.771868
1759224938.319877, -9.309105, 1.736245, 2.406921, -0.703574, -1.064313, -0.128478, 6.164322, 26.240051, -246.995743, 13.724865, 100.771868
1759224938.340033, -9.184307, -0.444873, 1.495927, -0.975048, 0.723135, 0.300297, 6.359161, 26.134964, -246.833893, 13.724865, 100.771868
1759224938.359352, -9.418041, -4.387375, -3.465308, -0.569831, 0.638055, 0.226109, 6.557571, 25.924316, -247.673798, 13.724865, 100.771868
1759224938.379865, -10.798897, -8.526051, -10.436475, 0.553770, -1.610640, -0.639772, 6.770309, 25.664490, -246.284988, 13.724865, 100.771868
1759224938.399884, 1.258452, -8.210166, -9.926061, 0.995211, 1.568269, -1.916505, 5.211472, 24.502213, -247.527390, 13.724865, 100.771868
1759224938.419876, 10.307487, -0.692224, 10.929830, -0.816288, 5.472142, -1.544086, 3.615738, 23.823227, -249.776825, 13.724865, 100.771868
1759224938.439838, 7.097461, 4.532972, 13.959842, -1.331220, 2.147361, -0.183699, 2.927155, 23.173889, -251.243546, 13.724865, 100.771868
1759224938.459480, 0.750732, 5.188085, -0.250194, 0.296316, 0.168814, 0.042713, 3.212814, 23.394745, -251.548203, 13.724865, 100.771868
1759224938.479844, 1.454926, 33.359758, -16.640899, 2.033337, 3.177516, 0.914558, 3.295792, 23.842346, -254.207855, 13.724865, 100.771868
1759224938.499843, 0.595408, 47.890318, 1.121983, 1.195562, 1.389763, 0.492621, 3.437531, 24.080719, -256.401855, 13.724865, 100.771868
1759224938.519839, -5.200505, 11.344775, 0.332495, 1.323282, 2.715803, -0.414881, 3.392441, 24.275955, -258.822845, 13.724865, 100.771868
1759224938.539855, -6.074090, 4.915146, 1.671153, 2.011495, 2.815175, -1.275639, 2.535294, 23.066589, -261.890381, 13.724865, 100.771868
1759224938.559697, -7.394641, 8.080281, 4.364330, 1.936277, -0.501113, -3.294236, 0.910629, 20.987473, -262.653564, 13.724865, 100.771868
1759224938.579916, -0.011672, 16.008829, 7.784597, 1.669688, -6.347757, -3.878218, -0.790710, 18.059097, -258.679993, 13.724865, 100.771868
1759224938.599910, 6.274454, 24.730457, 10.888680, 0.546725, -10.925717, -3.764505, -1.449646, 15.204193, -250.813568, 13.724865, 100.771868
1759224938.619851, 14.778509, 30.385412, 12.567763, -1.778480, -12.589512, -2.305768, 1.191956, 12.936218, -240.671906, 13.724865, 100.771868
1759224938.639839, 15.196896, 15.284733, 6.811953, -4.948046, -2.168186, -1.642549, 2.289871, 10.063995, -237.658829, 13.724865, 100.771868
1759224938.659840, 16.679056, 9.698013, 0.782006, -5.430697, 7.269873, -2.347494, -1.222092, 6.321152, -240.914322, 13.724865, 100.771868
1759224938.679828, 12.330438, 8.472481, -1.818546, -4.412491, 8.562105, -2.562649, -3.852417, 3.009644, -247.420517, 13.724865, 100.771868
1759224938.699857, 2.224662, 11.072285, -41.519048, -0.022253, 0.027684, -1.549569, -4.206451, 1.479858, -248.666641, 13.724865, 100.771868
1759224938.719853, 5.992687, 9.682451, -5.706729, -0.181641, -5.072512, -0.489626, -3.121582, 0.965469, -245.017746, 13.724865, 100.771868
1759224938.739844, 5.141997, 3.991284, -1.107468, -0.397021, -1.361264, -0.289804, -2.932175, 0.438934, -243.818878, 13.724865, 100.771868
1759224938.759847, 9.242816, 1.615936, -0.194230, 0.372911, -0.196718, 0.700836, -2.424225, 1.094513, -243.277420, 13.724865, 100.771868
1759224938.779843, 6.305729, -0.357484, -0.671574, 0.429430, 0.490026, 1.299710, -2.504822, 1.742477, -243.842361, 13.724865, 100.771868
1759224938.799847, 4.500650, -4.145411, -4.268113, 0.070853, 2.611373, 1.353869, -2.875610, 2.762604, -245.202850, 13.724865, 100.771868
1759224938.819857, 7.931990, -9.378088, -12.909984, 1.457513, 1.225020, 1.624666, -2.582840, 4.207901, -246.142975, 13.724865, 100.771868
1759224938.839845, 3.323152, 1.073201, -1.963694, 2.052355, -2.286574, 2.039827, -1.673355, 6.060776, -244.704224, 13.724865, 100.771868
1759224938.860040, 2.680309, 3.873818, 1.207875, 2.643259, -4.530462, 2.489983, 0.372040, 8.635635, -241.891632, 13.724865, 100.771868
1759224938.879838, 9.047688, 12.267590, 2.856582, 3.022230, -7.152693, 3.162208, 3.622314, 11.935364, -237.435760, 13.724865, 100.771868
1759224938.900044, 26.907235, 35.663878, 3.740641, 2.172251, -4.796389, 6.204949, 7.299637, 16.150314, -234.847885, 13.724865, 100.771868
1759224938.919864, 8.413823, 43.440694, 0.227449, 3.087631, 0.160885, 3.430292, 9.066025, 19.377396, -236.058807, 13.724865, 100.771868
1759224938.939896, -2.365920, 30.657902, 8.089858, 3.884308, 6.534599, 0.283706, 6.343842, 21.286697, -241.339111, 13.724865, 100.771868
1759224938.959882, -1.878102, 23.422774, 13.356653, -0.411572, 7.719061, 1.395409, 4.907669, 22.209412, -246.764145, 13.724865, 100.771868
1759224938.979892, -6.305729, 19.402760, 7.813327, -3.684245, 4.094386, 2.001291, 4.626770, 22.339294, -246.505692, 13.724865, 100.771868
1759224938.999914, -0.022895, 15.855451, 2.750190, -3.262645, 1.332255, 0.752447, 4.803299, 22.429245, -245.885986, 13.724865, 100.771868
1759224939.019895, 10.076746, 10.607361, -5.295525, -1.194960, -1.646268, 0.800009, 5.544769, 22.745590, -244.527603, 13.724865, 100.771868
1759224939.039875, 2.296339, 7.429208, -2.561497, -0.288645, -2.614423, 0.272055, 6.475723, 22.793777, -242.381653, 13.724896, 100.771862
1759224939.059914, -4.264971, 4.702362, 0.387861, -0.594126, -3.665564, 0.030594, 7.515854, 22.312653, -240.246216, 13.724896, 100.771862
1759224939.079907, -10.105626, 1.843386, 0.188543, -1.058967, -3.452645, 0.181549, 9.006439, 22.773163, -237.681290, 13.724896, 100.771862
1759224939.100041, -13.583952, -0.847847, -2.804209, -0.565401, -1.487651, 0.660717, 9.822388, 22.445465, -236.378616, 13.724896, 100.771862
1759224939.119868, -16.409409, -4.273650, -10.225486, 0.927299, -1.743454, -0.111333, 10.473648, 22.964249, -236.168976, 13.724896, 100.771862
1759224939.139989, -15.728857, -4.578462, -11.501595, 1.391971, -1.216117, -1.280410, 10.691788, 22.785126, -236.983521, 13.724896, 100.771862
1759224939.159858, 0.024241, -3.813664, -6.651391, 0.889534, 2.663287, -1.741671, 8.370834, 21.803482, -239.039719, 13.724896, 100.771862
1759224939.179872, 9.699958, -0.760608, 8.200440, -0.694341, 6.353350, -0.894692, 5.561279, 21.817978, -241.689194, 13.724896, 100.771862
1759224939.199867, 6.944831, 4.276194, 13.350517, -0.718774, 4.656062, 0.043663, 4.054337, 21.527603, -244.416077, 13.724896, 100.771862
1759224939.219938, 4.420594, 4.759224, 2.367417, 0.533446, 5.211639, 1.314377, 3.501816, 22.819427, -248.219955, 13.724896, 100.771862
1759224939.239959, 5.220706, 11.482292, 4.469077, 1.345464, 4.665661, 2.375340, 3.535782, 24.238449, -251.680176, 13.724896, 100.771862
1759224939.259923, 4.042011, 55.616107, 1.278055, -1.107510, 3.811147, -0.046439, 3.215897, 24.613525, -254.187195, 13.724896, 100.771862
1759224939.279730, -3.752911, 15.439159, -3.680187, -0.081410, 4.237919, -1.279269, 2.131241, 24.065582, -256.434448, 13.724896, 100.771862
1759224939.299849, -6.660370, 9.958682, 3.733159, 0.917143, -1.004756, -3.189064, 0.959473, 21.803238, -257.047272, 13.724896, 100.771862
1759224939.319897, -2.596811, 14.976480, 6.897695, 1.079936, -5.878829, -4.449686, -0.655869, 19.606171, -255.015717, 13.724896, 100.771862
1759224939.339852, 3.868282, 22.826019, 5.538836, 0.967927, -9.038238, -4.777487, -1.060425, 15.889130, -249.303528, 13.724896, 100.771862
1759224939.359852, 13.913604, 30.142700, 6.285378, -0.225884, -8.420435, -3.208444, -0.488647, 13.225204, -242.103943, 13.724896, 100.771862
1759224939.379914, 15.617527, 18.935741, 3.598186, -3.300795, -0.938443, -2.192613, 0.477631, 10.944550, -239.433945, 13.724896, 100.771862
1759224939.399917, 15.828666, 15.778986, 3.239654, -3.445440, 3.146460, -2.613455, -0.834824, 7.214050, -239.892776, 13.724896, 100.771862
1759224939.419866, 16.033669, 12.470948, 0.733673, -2.398065, 4.985824, -2.596557, -3.350204, 4.768600, -242.998459, 13.724896, 100.771862
1759224939.439846, 8.446893, 4.725855, -9.479393, -1.911846, 9.348970, -2.127617, -5.286301, 2.421707, -248.606934, 13.724896, 100.771862
1759224939.459870, 9.582792, 2.896535, -22.743569, 0.953193, -1.418619, -0.365976, -5.859863, 1.459839, -251.242493, 13.724896, 100.771862
1759224939.479850, 7.369652, 0.498293, 1.011101, 0.173264, -3.661869, 0.092327, -5.128052, 1.911209, -248.206100, 13.724896, 100.771862
1759224939.499869, 8.163479, -1.258303, -1.756297, 0.392201, -1.623781, 0.556066, -4.628830, 2.204651, -246.046219, 13.724896, 100.771862
1759224939.519864, 5.035305, -3.135357, -0.807145, 0.605060, -0.021832, 0.456030, -4.168961, 3.253601, -245.966232, 13.724896, 100.771862
1759224939.539170, 3.210475, -5.564574, -0.398335, 0.012008, 1.005490, -0.136610, -4.215240, 3.084045, -246.315170, 13.724896, 100.771862
1759224939.559923, 5.621585, -6.667253, -8.466196, 0.649180, 0.881239, 0.132255, -4.119659, 3.517487, -247.440430, 13.724896, 100.771862
1759224939.579867, 7.425168, -0.128539, -4.890456, 1.850502, -1.574538, 1.870884, -3.708298, 4.705032, -247.130096, 13.724896, 100.771862
1759224939.599880, 6.499210, 3.503316, -1.051354, 2.967912, -3.275928, 3.016844, -2.530350, 7.452667, -245.451080, 13.724896, 100.771862
1759224939.619857, 5.306299, 7.181707, 1.247379, 3.397637, -4.643275, 3.458994, -0.083740, 10.754959, -243.658264, 13.724896, 100.771862
1759224939.639666, 18.932150, 28.953230, 1.878401, 2.827975, -4.760466, 5.295399, 3.288803, 14.620163, -241.183838, 13.724896, 100.771862
1759224939.659959, 20.789152, 60.900111, 2.677615, 2.769326, -0.981151, 4.665884, 6.528229, 18.655106, -240.662582, 13.724896, 100.771862
1759224939.679918, -2.053178, 33.172113, 7.687033, 3.415855, 4.956236, 1.425076, 6.163971, 20.431168, -243.471039, 13.724896, 100.771862
1759224939.699892, -0.939724, 24.844331, 13.088801, -0.147341, 6.739460, 1.869309, 4.914734, 21.964371, -248.375046, 13.724896, 100.771862
1759224939.719879, -7.076662, 23.160459, 8.734945, -3.175814, 2.520761, 2.301485, 5.138077, 22.808594, -250.068512, 13.724896, 100.771862
1759224939.740097, 1.104475, 15.598523, -6.850559, -1.457135, 0.468845, 1.513392, 6.026337, 23.089661, -249.036575, 13.724896, 100.771862
1759224939.759894, 3.572299, 10.917859, -6.260388, 0.133325, -1.063593, 1.076928, 6.494064, 23.951355, -248.328110, 13.724896, 100.771862
1759224939.779912, -1.342399, 6.067506, -1.723227, 0.273677, -2.612653, 0.500595, 7.097137, 24.482513, -246.998428, 13.724896, 100.771862
1759224939.799930, -7.234829, 3.041833, 1.823783, -0.168415, -1.923175, 0.056576, 7.368240, 24.442825, -245.344284, 13.724896, 100.771862
1759224939.819980, -9.679308, 0.842310, 1.524358, -0.891842, -1.155334, 0.058187, 7.743317, 24.265244, -244.855804, 13.724896, 100.771862
1759224939.839906, -10.895264, -0.456395, -1.205481, -0.816523, 0.636027, -0.010460, 7.918106, 24.152756, -244.209518, 13.724896, 100.771862
1759224939.859931, -11.892149, -2.218527, -3.817854, 0.430114, 1.446683, -1.107643, 6.921722, 23.665024, -245.093231, 13.724896, 100.771862
1759224939.879865, -9.991303, -5.921310, -5.163545, 1.172502, 0.311511, -2.019893, 5.856461, 22.911697, -246.189270, 13.724896, 100.771862
1759224939.899946, 1.555184, -3.822493, -2.704550, 0.551070, 1.116660, -1.808637, 4.471039, 22.325211, -247.052353, 13.724896, 100.771862
1759224939.919314, 11.479449, -1.029956, 1.836652, -0.570511, 5.022656, -0.820164, 2.850006, 21.613434, -249.317032, 13.724896, 100.771862
1759224939.939900, 8.059332, 1.803283, 10.487351, -1.594657, 4.109107, 0.068150, 1.791779, 21.443787, -251.935608, 13.724896, 100.771862
1759224939.959867, 2.023998, 4.346523, -1.732803, 0.055495, 2.554521, 0.481019, 1.512405, 20.930237, -252.927124, 13.724896, 100.771862
1759224939.978920, 3.629161, 15.307328, 4.872649, 0.980991, 1.070306, 1.753646, 1.968475, 22.568008, -255.226074, 13.724896, 100.771862
1759224939.999962, 1.534683, 51.993531, 4.834342, 0.807416, -0.860766, 0.180675, 2.476974, 23.586884, -255.193893, 13.724896, 100.771862
1759224940.019887, -2.675371, 18.057219, -1.047014, -1.458979, 3.198611, -1.500989, 1.354828, 22.893829, -256.095184, 13.724896, 100.771862
1759224940.039893, -4.562151, 6.158635, -0.057610, -0.549259, 3.920444, -1.345707, 0.076416, 21.711334, -258.272095, 13.724896, 100.771862
1759224940.059066, -9.104999, 8.621371, -0.495300, 1.193939, 1.449624, -2.766494, -0.318329, 20.059860, -260.149841, 13.724922, 100.771870
1759224940.079190, -3.239205, 16.480038, 2.840122, 2.547613, -2.347785, -4.294935, -2.348465, 17.018463, -260.406982, 13.724922, 100.771870
1759224940.099476, 4.129699, 26.286688, 6.960692, 2.737623, -6.107395, -4.639754, -3.889633, 13.588150, -257.059692, 13.724922, 100.771870
1759224940.119890, 12.918663, 31.099931, 10.554539, 0.261714, -8.310619, -3.075850, -4.080688, 11.215073, -251.071152, 13.724922, 100.771870
1759224940.139149, 12.705579, 16.905308, 8.057985, -4.223045, -5.526579, -2.513830, -3.390198, 8.565887, -245.326813, 13.724922, 100.771870
1759224940.158892, 18.032678, 15.052795, 0.757914, -4.503344, -0.589999, -1.797399, -3.223068, 5.943954, -243.421936, 13.724922, 100.771870
1759224940.179269, 16.850990, 4.623054, -1.601422, -3.020952, 5.600101, -2.503360, -4.613770, 3.134933, -246.361740, 13.724922, 100.771870
1759224940.199863, 12.742390, 1.269675, -11.721114, -1.536609, 10.452025, -1.498294, -7.047501, 1.116684, -253.964157, 13.724922, 100.771870
1759224940.219879, 12.103737, 1.865083, -17.805229, 0.485660, 0.328889, 0.975786, -6.777634, 1.993393, -255.906143, 13.724922, 100.771870
1759224940.239865, 6.836344, -0.206051, -1.810166, 0.385328, -2.953088, 1.665314, -6.509277, 3.262390, -253.953033, 13.724922, 100.771870
1759224940.259903, 3.836708, -3.042432, -6.563554, 1.069050, -0.204328, 1.285634, -6.113297, 4.657104, -253.687057, 13.724922, 100.771870
1759224940.279452, 1.638681, -1.456124, -0.348656, 0.741990, -0.036247, 0.826947, -5.860992, 5.568863, -253.456451, 13.724922, 100.771870
1759224940.299906, 2.480842, -1.650652, -0.206201, 0.551882, -1.344292, 0.841379, -5.757538, 6.833466, -252.381592, 13.724922, 100.771870
1759224940.319915, 8.570045, -1.180192, -5.012860, 1.555041, -1.222572, 2.058906, -4.876617, 8.551987, -251.558517, 13.724922, 100.771870
1759224940.339903, 9.853337, 3.766229, -2.231845, 2.835306, -1.500409, 3.644937, -3.540390, 11.835770, -251.177139, 13.724922, 100.771870
1759224940.359933, 4.503793, 6.943484, 1.497274, 2.816386, -3.461913, 3.793608, -1.918793, 14.964401, -249.468201, 13.724922, 100.771870
1759224940.379666, 13.825617, 19.108273, 4.857237, 2.962298, -7.152983, 4.807645, 1.758804, 19.128937, -245.673050, 13.724922, 100.771870
1759224940.399869, 27.668292, 52.460250, 5.887342, 2.138455, -5.956018, 5.618167, 5.850281, 23.244507, -242.787781, 13.724922, 100.771870
1759224940.419890, 2.178125, 39.511211, 5.252430, 3.328760, 4.086328, 2.164184, 6.992752, 25.786331, -245.980164, 13.724922, 100.771870
1759224940.439235, -2.693776, 24.920946, 11.911303, 1.446630, 9.172030, 0.565693, 5.396973, 26.356522, -252.195267, 13.724922, 100.771870
1759224940.459974, -4.158279, 17.385196, 12.526313, -2.985185, 5.287883, 1.558105, 5.750107, 27.170090, -254.955383, 13.724922, 100.771870
1759224940.479885, -6.847117, 11.792191, 3.349787, -3.407094, 0.053022, 0.868277, 6.264709, 27.245453, -252.642792, 13.724922, 100.771870
1759224940.499898, -1.495927, 8.665065, -9.082554, -1.216492, -2.926464, -0.616773, 6.407166, 26.902039, -250.727310, 13.724922, 100.771870
1759224940.519887, 3.736750, 6.949769, -9.621548, 0.527625, -2.210071, -0.444678, 6.399796, 26.739151, -249.830551, 13.724922, 100.771870
1759224940.539884, -4.400842, 3.729418, -0.535703, 0.169325, -1.191980, -0.613729, 6.595612, 26.295258, -248.442398, 13.724922, 100.771870
1759224940.559944, -7.571962, 2.504036, 0.930896, -0.166551, 0.080285, -1.009179, 5.684921, 25.889877, -248.307053, 13.724922, 100.771870
1759224940.579917, -8.794052, -0.513706, -2.737620, 0.446685, -0.805719, -1.320288, 5.302429, 25.169342, -248.010391, 13.724922, 100.771870
1759224940.598879, -9.586982, -3.216311, -6.404041, 1.032042, -2.586372, -1.259003, 5.456390, 24.830780, -247.351822, 13.724922, 100.771870
1759224940.619879, -10.170419, -3.141043, -7.853131, 0.781877, -0.728289, -1.700311, 4.454636, 24.243073, -246.486801, 13.724922, 100.771870
1759224940.639293, 2.913743, 1.045219, -5.013608, 0.426005, 3.842107, -2.002045, 2.790680, 22.689743, -249.059586, 13.724922, 100.771870
1759224940.659093, 9.491962, 2.123807, 13.871256, -1.206277, 5.223433, -1.299017, 1.251495, 21.871674, -252.423431, 13.724922, 100.771870
1759224940.679888, 10.564415, 8.820089, 14.668376, -1.207275, -0.267948, 0.803766, 1.835617, 21.681000, -252.042953, 13.724922, 100.771870
1759224940.699051, 7.919720, 10.676793, 3.628413, 0.192961, -2.009109, 2.437171, 3.209763, 23.569550, -250.579712, 13.724922, 100.771870
1759224940.719956, 13.362788, 30.148535, -4.918887, 0.945857, 5.190330, 3.782561, 4.595947, 26.205002, -253.721756, 13.724922, 100.771870
1759224940.739900, -0.865654, 30.658949, -10.833763, -0.436088, 11.454301, 1.359310, 5.203003, 27.055573, -260.318237, 13.724922, 100.771870
1759224940.759948, -7.623886, 7.585130, -0.709432, 0.623155, 3.043089, 1.281265, 5.995148, 28.063492, -262.810791, 13.724922, 100.771870
1759224940.779898, -10.426748, 5.712116, 0.960673, 1.563058, 0.827489, -0.229344, 6.169281, 27.693268, -264.366394, 13.724922, 100.771870
1759224940.799895, -16.027833, 9.526379, 5.316026, 1.511366, -0.887260, -4.335881, 3.639297, 24.832901, -264.550751, 13.724922, 100.771870
1759224940.819899, -2.858527, 16.499491, 6.207267, 1.964571, -5.367039, -5.630498, 0.274658, 21.088623, -261.623657, 13.724922, 100.771870
1759224940.839896, 4.468029, 26.330831, 6.882282, 1.924914, -9.679463, -5.425599, -1.771042, 17.281357, -256.108887, 13.724922, 100.771870
1759224940.859896, 10.696096, 29.741820, 9.570821, -0.927827, -11.178128, -3.973428, -1.185440, 14.141556, -247.859970, 13.724922, 100.771870
1759224940.879877, 13.851354, 19.651458, 7.912238, -6.328730, -4.515300, -2.408449, -0.897644, 10.075958, -241.889542, 13.724922, 100.771870
1759224940.899475, 19.037195, 17.751060, 0.647033, -7.659742, 4.033665, -1.435563, -2.316956, 6.533722, -243.105087, 13.724922, 100.771870
1759224940.919958, 16.023793, 8.952219, -15.625907, -2.697915, 10.602529, -2.517791, -5.289230, 4.199265, -250.396790, 13.724922, 100.771870
1759224940.939958, 9.293692, 7.188142, -30.239964, 1.576760, 1.711371, -1.124254, -6.060333, 3.149551, -252.910553, 13.724922, 100.771870
1759224940.959882, 7.093571, 1.777994, -3.015497, -0.017409, -2.922879, -0.295130, -5.543320, 2.742477, -250.855301, 13.724922, 100.771870
1759224940.979886, 6.933458, 1.011251, 1.053299, -0.196668, -2.085540, 0.093724, -5.292877, 3.388916, -248.915985, 13.724922, 100.771870
1759224940.999887, 6.596325, -0.371101, -2.619706, 0.999774, 0.249279, 0.735968, -5.128860, 3.813995, -249.361618, 13.724922, 100.771870
1759224941.019916, 5.581183, -2.866308, -0.911592, 1.108420, 1.739605, 0.662151, -5.198227, 4.838486, -250.587173, 13.724922, 100.771870
1759224941.039550, 10.349685, -7.916428, -10.510096, 1.549226, 3.253943, 0.997058, -5.712219, 5.874496, -253.444931, 13.724922, 100.771870
1759224941.059920, 5.230283, 4.206014, 0.807145, 2.635289, -3.515467, 3.079076, -4.965363, 8.452560, -252.320450, 13.724946, 100.771873
1759224941.079960, 6.312911, 7.299173, 1.946336, 3.253072, -5.798753, 3.696831, -3.747314, 11.900146, -249.674362, 13.724946, 100.771873
1759224941.099830, 18.416349, 21.553352, 2.228254, 3.819600, -7.178637, 5.787437, -0.449600, 15.858948, -245.439880, 13.724946, 100.771873
1759224941.119898, 24.495227, 41.102906, 2.240673, 2.477195, -3.880251, 6.219528, 4.007980, 21.645325, -243.191193, 13.724946, 100.771873
1759224941.139935, 9.859472, 31.788564, 3.574992, 3.424314, -2.315791, 4.107901, 7.794205, 25.440628, -241.983582, 13.724946, 100.771873
1759224941.159891, 2.531569, 39.155223, 7.447015, 3.901018, 3.957050, 1.682808, 8.691849, 28.316193, -245.254639, 13.724946, 100.771873
1759224941.180038, -3.734655, 30.452749, 12.857761, -0.333771, 8.273126, 0.693821, 7.945663, 29.857819, -250.543793, 13.724946, 100.771873
1759224941.199955, -4.957195, 18.468273, 8.904335, -3.616888, 5.725705, 1.164058, 7.684952, 29.729736, -253.233475, 13.724946, 100.771873
1759224941.219894, -2.217779, 7.879168, 0.862960, -2.686173, -0.718583, 0.707404, 7.909485, 29.922424, -252.178909, 13.724946, 100.771873
1759224941.239889, 0.235679, 3.847931, -7.037756, -0.580226, -3.659749, 0.152973, 8.661285, 29.779449, -250.050690, 13.724946, 100.771873
1759224941.259905, -4.719720, 3.644723, -3.138349, -0.432541, -2.714910, -0.452450, 9.310715, 30.011871, -247.978760, 13.724946, 100.771873
1759224941.279881, -10.565013, 2.477999, -1.122282, -1.132806, -0.359329, -0.964511, 9.290344, 29.281174, -246.203781, 13.724946, 100.771873
1759224941.299890, -11.782764, -0.983418, -6.832154, 0.147983, -0.757496, -1.360726, 8.347458, 28.432388, -245.755783, 13.724946, 100.771873
1759224941.319898, -11.086351, -4.842871, -9.430311, 2.045944, -3.142472, -1.763777, 7.934265, 27.890350, -244.848175, 13.724946, 100.771873
1759224941.339883, -5.222053, -4.929362, -4.704157, 1.532241, -1.243987, -2.062629, 7.702835, 27.319702, -245.635071, 13.724946, 100.771873
1759224941.359916, 3.383605, -2.021604, 0.475099, 0.115683, 1.839867, -1.900120, 6.551956, 26.518387, -245.941315, 13.724946, 100.771873
1759224941.379908, 10.656891, 0.971148, 10.373627, -1.385640, 4.301440, -0.638346, 4.743866, 25.782761, -248.150177, 13.724946, 100.771873
1759224941.399912, 6.462399, 5.325153, 8.116344, -1.191806, 5.114581, 0.371495, 3.751938, 25.470108, -250.645645, 13.724946, 100.771873
1759224941.418960, 0.467468, 5.991190, 1.492336, 0.242775, 4.502757, 0.781515, 3.456406, 26.323166, -253.471115, 13.724946, 100.771873
1759224941.439910, -0.033220, 26.869676, -12.725331, -0.684995, 5.217945, 2.085245, 3.802811, 27.196106, -256.639618, 13.724946, 100.771873
1759224941.459961, 5.144840, 28.249634, 6.744167, 0.038320, -0.248240, 1.645136, 5.257645, 28.781693, -257.415527, 13.724946, 100.771873
1759224941.479953, 4.586093, 27.893646, -6.093393, -0.000986, 3.191588, -0.830277, 4.850464, 28.788879, -258.578735, 13.724946, 100.771873
1759224941.499998, -2.028038, 5.755362, -0.057910, 0.676575, 1.877434, -0.560436, 4.711548, 28.419571, -260.657410, 13.724946, 100.771873
1759224941.519903, -3.653103, 9.970503, 1.477671, 0.982969, -0.210759, -2.177438, 3.910980, 27.638916, -261.311432, 13.724946, 100.771873
1759224941.539908, -3.335422, 12.362610, 2.589329, 1.521125, -1.861756, -3.935429, 2.295776, 25.372284, -261.341583, 13.724946, 100.771873
1759224941.559901, 2.210297, 23.858220, 4.156933, 2.220779, -4.778379, -4.722515, -0.386734, 22.174866, -260.211304, 13.724946, 100.771873
1759224941.579557, 10.728118, 33.141138, 13.117981, 0.454803, -9.302474, -3.939411, -1.733688, 19.166473, -254.851303, 13.724946, 100.771873
1759224941.599893, 8.830564, 16.938827, 13.004256, -3.073994, -11.399381, -2.965729, -1.242767, 16.377579, -245.868698, 13.724946, 100.771873
1759224941.619379, 13.051242, 13.464691, 3.392584, -6.313090, -3.145432, -2.142706, 0.398865, 12.486298, -238.861755, 13.724946, 100.771873
1759224941.639896, 17.514483, 10.774805, -0.383820, -6.064583, 4.510364, -2.130933, -1.149246, 8.512344, -239.270523, 13.724946, 100.771873
1759224941.659908, 11.345074, 5.970540, -9.805603, -3.394683, 10.381577, -2.598015, -3.846771, 4.719482, -244.331284, 13.724946, 100.771873
1759224941.679958, 2.544139, 6.238541, -35.978267, 1.752118, 0.355163, -0.340045, -5.442505, 3.773438, -248.323990, 13.724946, 100.771873
1759224941.699995, 5.364807, 1.808370, 1.438466, 0.569922, -2.525769, 0.918962, -4.789780, 4.568817, -246.121155, 13.724946, 100.771873
1759224941.719906, 5.385607, 0.283114, 0.530465, 0.402527, -2.056668, 1.070267, -3.802048, 5.408081, -244.950409, 13.724946, 100.771873
1759224941.740015, 4.340837, -0.587028, -0.063895, 0.614793, -0.608735, 1.025107, -3.115585, 6.286880, -244.201218, 13.724946, 100.771873
1759224941.759900, 4.091990, -3.176806, -1.230021, 0.768595, 0.912746, 0.683938, -3.054047, 7.334290, -244.747467, 13.724946, 100.771873
1759224941.779903, 6.698527, -6.040421, -7.175422, 1.094248, 4.044657, 0.658468, -3.569427, 8.149185, -247.648911, 13.724946, 100.771873
1759224941.799050, 9.170391, -0.278326, -6.497714, 1.488017, 1.417091, 2.432753, -3.265594, 10.002060, -249.934479, 13.724946, 100.771873
1759224941.819908, 4.817433, 2.573168, 0.563685, 2.019855, -2.331709, 3.529209, -2.379700, 12.814362, -249.644623, 13.724946, 100.771873
1759224941.839918, 4.356549, 5.206790, 1.443554, 3.032516, -5.278934, 4.256407, 0.445831, 16.067276, -248.083511, 13.724946, 100.771873
1759224941.859932, 17.974619, 21.189283, 2.300229, 5.041676, -7.763073, 6.365664, 4.953293, 20.975906, -244.631760, 13.724946, 100.771873
1759224941.879924, 34.959534, 64.243164, 2.877531, 3.191832, 1.011230, 6.141080, 8.919952, 25.969666, -246.241745, 13.724946, 100.771873
1759224941.899161, 1.685518, 39.877524, 6.067506, 2.642203, 7.112058, 2.166431, 9.233627, 27.699341, -250.680054, 13.724946, 100.771873
1759224941.919919, -2.365920, 25.305814, 8.347085, -0.486190, 8.476843, 1.784328, 9.034775, 28.739014, -255.376984, 13.724946, 100.771873
1759224941.939920, -5.654805, 18.353501, 4.664803, -3.142291, 1.878096, 2.464125, 10.047577, 29.458420, -255.991745, 13.724946, 100.771873
1759224941.959906, -3.659088, 12.353931, -5.230134, -1.221975, -1.408769, 1.124056, 11.235596, 30.137543, -254.142395, 13.724946, 100.771873
1759224941.979942, -0.449661, 9.581745, -0.604386, -0.497812, -2.081113, -0.171473, 11.035202, 29.837448, -252.771667, 13.724946, 100.771873
1759224941.999391, 1.499668, 5.064485, -4.344728, -0.427462, -1.258093, -0.796079, 11.216125, 29.232025, -252.120789, 13.724946, 100.771873
1759224942.019915, -3.672406, 3.619434, -2.157176, -0.404827, -0.895150, -1.506202, 10.437866, 28.800293, -251.215332, 13.724946, 100.771873
1759224942.039919, -6.795941, 3.195062, -0.923114, -0.061924, -0.039854, -1.882766, 9.533081, 27.794968, -250.867783, 13.724946, 100.771873
1759224942.059940, -7.360973, 0.288950, 1.054347, -0.269929, 0.371994, -1.703348, 8.077637, 26.908066, -250.990143, 13.724978, 100.771878
1759224942.079933, -6.870461, -3.170372, -2.443283, -0.244118, -0.409388, -1.447089, 7.123703, 25.751755, -250.031891, 13.724978, 100.771878
1759224942.099533, -8.717139, -4.214992, -7.907150, 0.167637, -0.957550, -1.701621, 6.621582, 24.551727, -250.297775, 13.724978, 100.771878
1759224942.119971, 2.919729, -2.345569, -3.547608, -0.097178, 2.210460, -2.108831, 5.194946, 23.490570, -251.251587, 13.724978, 100.771878
1759224942.140112, 12.256517, 1.228225, 10.644621, -1.344647, 2.872586, -1.625392, 3.606216, 22.229401, -253.099350, 13.724978, 100.771878
1759224942.159947, 10.288782, 5.731419, 10.017938, -1.094925, -0.946928, -0.029508, 2.988144, 21.704880, -252.177353, 13.724978, 100.771878
1759224942.180084, 7.127389, 5.720945, 1.680131, 0.423937, -2.398921, 1.467733, 4.009232, 22.610352, -250.757584, 13.724978, 100.771878
1759224942.199664, 8.613739, 15.958850, -2.975693, 0.912851, 1.145501, 2.595814, 5.822983, 24.106232, -251.176422, 13.724978, 100.771878
1759224942.219941, 9.208399, 38.268770, -1.706617, -0.793689, 6.578520, 2.327499, 5.829346, 25.898499, -254.045334, 13.724978, 100.771878
1759224942.240054, -3.171719, 21.066880, -4.430919, -1.088953, 7.602177, 1.839075, 6.437561, 26.450302, -258.102844, 13.724978, 100.771878
1759224942.260076, -18.113782, 6.662764, -15.714193, 1.555904, 1.539072, 0.634516, 7.190155, 27.105316, -260.278931, 13.724978, 100.771878
1759224942.279967, -6.744167, 6.762123, 2.672827, 2.373979, -0.267206, -1.129924, 6.770676, 26.519791, -261.514465, 13.724978, 100.771878
1759224942.299863, -4.842572, 12.909086, 3.195960, 2.833119, -1.507379, -3.537885, 4.694229, 24.692734, -263.022278, 13.724978, 100.771878
1759224942.319984, 1.930325, 22.085463, 4.918139, 3.215504, -3.494314, -5.070942, 2.365158, 21.055908, -262.539429, 13.724978, 100.771878
1759224942.340103, 9.215881, 31.450532, 15.566800, 0.773002, -7.136596, -4.844553, -0.183167, 17.519745, -258.725098, 13.724978, 100.771878
1759224942.359998, 12.461969, 22.604406, 17.808371, -3.314156, -10.211484, -3.218891, -0.110275, 14.762634, -249.654297, 13.724978, 100.771878
1759224942.380064, 12.950386, 16.218472, 7.277625, -4.185948, -5.171271, -2.304925, 0.526917, 12.068069, -243.858078, 13.724978, 100.771878
1759224942.399990, 15.788413, 12.055853, 1.591845, -5.498074, 4.729824, -2.926849, -1.240387, 8.066544, -244.917267, 13.724978, 100.771878
1759224942.419918, 17.262942, 8.554333, 0.044442, -6.584754, 9.640662, -3.724604, -4.104156, 4.268051, -250.545151, 13.724978, 100.771878
1759224942.440000, 6.806266, 10.058939, -57.779867, 1.341636, -2.417799, -1.245253, -3.992432, 2.364807, -251.098907, 13.724978, 100.771878
1759224942.459940, 5.508011, 4.049942, -0.933739, 0.029572, -3.193341, -0.461649, -3.452896, 2.013992, -248.095581, 13.724978, 100.771878
1759224942.479921, 4.917241, 1.292270, 0.446070, 0.310282, -1.233467, -0.020560, -3.086960, 2.173676, -247.280640, 13.724978, 100.771878
1759224942.500127, 5.076007, 0.253187, 1.040131, 0.944253, -0.335082, 0.597378, -3.010757, 2.868713, -247.040512, 13.724978, 100.771878
1759224942.519944, 4.519654, -1.787571, 0.795474, 1.390147, -0.240646, 0.901323, -2.790634, 3.543991, -246.950653, 13.724978, 100.771878
1759224942.539939, 2.287959, -3.475782, -0.554856, 1.326885, 1.038621, 0.595136, -2.671860, 4.461090, -247.866302, 13.724978, 100.771878
1759224942.559916, 4.270807, -5.831677, -10.187478, 1.651655, 4.838012, 0.950176, -3.657150, 5.290894, -251.685623, 13.724978, 100.771878
1759224942.579923, 3.391836, 0.895132, -3.789423, 2.161919, 2.132139, 1.706394, -3.625351, 7.153458, -253.649918, 13.724978, 100.771878
1759224942.599934, 4.421791, 2.399888, 2.017863, 2.545576, -2.025684, 2.410141, -3.173157, 8.777130, -253.204971, 13.724978, 100.771878
1759224942.619140, 8.677036, 10.529998, 2.918831, 2.716523, -5.579580, 3.430420, -1.326584, 11.580994, -249.710403, 13.724978, 100.771878
1759224942.639917, 26.407296, 34.589480, 4.317195, 1.502610, -5.145560, 7.346092, 2.717621, 16.590195, -246.358200, 13.724978, 100.771878
1759224942.659916, 10.039785, 33.216855, 1.890073, 1.438219, -3.621263, 5.349164, 5.841782, 20.625183, -243.862976, 13.724978, 100.771878
1759224942.679910, 5.372888, 32.918627, 0.107589, 3.250478, 0.529997, 3.657084, 7.660751, 24.207123, -245.549179, 13.724978, 100.771878
1759224942.699921, 1.178097, 32.528222, 6.641964, 3.155808, 6.210619, 2.232379, 8.519699, 25.920212, -250.725647, 13.724978, 100.771878
1759224942.719990, -3.173814, 28.063934, 10.355521, -1.199757, 8.661482, 1.750688, 7.993286, 27.166000, -255.026825, 13.724978, 100.771878
1759224942.739924, -3.883694, 16.841862, 8.476821, -3.652001, 4.017686, 0.252913, 7.893158, 26.756409, -255.418289, 13.724978, 100.771878
1759224942.759921, 3.221997, 7.906402, -3.518130, -2.492256, -1.618276, -0.300542, 7.781250, 26.568604, -253.126877, 13.724978, 100.771878
1759224942.779977, 0.295983, 6.797737, -7.855525, -0.423578, -3.645513, -0.277843, 8.101273, 25.890198, -251.183487, 13.724978, 100.771878
1759224942.799387, -6.151003, 4.126556, -3.082984, -0.085765, -3.302650, -0.690541, 8.333221, 25.607300, -248.701019, 13.724978, 100.771878
1759224942.819935, -7.699603, 2.828151, 0.193930, -0.861132, -0.213688, -0.514869, 8.339676, 25.046814, -247.937332, 13.724978, 100.771878
1759224942.839988, -7.651869, -2.767996, -6.822128, -0.007628, -0.280897, -0.442500, 7.615051, 24.726761, -247.446030, 13.724978, 100.771878
1759224942.859919, -9.280075, -4.609886, -8.121880, 1.009309, -0.456103, -0.928160, 7.640137, 24.440613, -247.718292, 13.724978, 100.771878
1759224942.879905, -5.724985, -6.321441, -5.094562, 1.024860, 0.962334, -1.457476, 7.094757, 23.987930, -247.802216, 13.724978, 100.771878
1759224942.899919, 4.073884, -5.265448, 0.122852, 0.625727, 3.797919, -1.848966, 5.544510, 23.003387, -249.718750, 13.724978, 100.771878
1759224942.919995, 6.509086, 2.001104, 11.685350, -0.954867, 3.342116, -1.300946, 3.947098, 22.522247, -251.906876, 13.724978, 100.771878
1759224942.939607, 4.893299, 4.744859, 7.698107, -0.666639, 0.953468, -0.036697, 3.987152, 21.038452, -252.859329, 13.724978, 100.771878
1759224942.959935, 7.075464, 17.214759, 1.398812, 0.885773, 0.028037, 1.525780, 3.603302, 21.529968, -253.169724, 13.724978, 100.771878
1759224942.979911, 15.355512, 43.808952, 0.835127, -0.335892, 3.636083, 2.519989, 5.339951, 23.601685, -254.579620, 13.724978, 100.771878
1759224942.999924, 2.312500, 20.520254, -9.222166, -0.806544, 8.531168, 0.059512, 5.404861, 23.946152, -258.274170, 13.724978, 100.771878
1759224943.019820, -4.245219, 3.467702, -7.091625, 1.448565, 2.827788, 0.860468, 5.662308, 24.205841, -262.346680, 13.724978, 100.771878
1759224943.039973, -6.114043, 8.012645, 1.342848, 1.915148, -1.223362, -0.039195, 5.692291, 24.318771, -263.772827, 13.724978, 100.771878
1759224943.059922, -8.748263, 12.348843, 3.985598, 1.999919, -2.305131, -3.404612, 4.797134, 23.118637, -263.344482, 13.725004, 100.771878
1759224943.079947, -1.373524, 20.208708, 5.928642, 2.625928, -4.047387, -5.080151, 2.589035, 19.934494, -263.220459, 13.725004, 100.771878
1759224943.099938, 7.487118, 29.554773, 16.491860, 0.489629, -9.358827, -4.433374, 0.100449, 16.475586, -259.357239, 13.725004, 100.771878
1759224943.119933, 9.907955, 22.922536, 15.312117, -3.425074, -12.537346, -2.884371, -0.196228, 13.505447, -250.436295, 13.725004, 100.771878
1759224943.139926, 9.851242, 16.985065, 3.012504, -4.530592, -6.684221, -1.886931, 1.454895, 10.797379, -241.303238, 13.725004, 100.771878
1759224943.159922, 14.165294, 10.768820, -2.163460, -6.072718, 6.003563, -2.043965, 1.320969, 7.524658, -240.212021, 13.725004, 100.771878
1759224943.179069, 14.403068, 8.605210, -8.474426, -3.569823, 12.156595, -2.658863, -2.333420, 4.109482, -246.885941, 13.725004, 100.771878
1759224943.199989, 10.178350, 11.297938, -40.271519, 1.273949, -1.017334, -0.965940, -3.802307, 2.225586, -252.210480, 13.725004, 100.771878
1759224943.219970, 6.320243, 3.457676, -1.166126, 0.313216, -4.252611, -0.584333, -3.534988, 1.806137, -249.583878, 13.725004, 100.771878
1759224943.239923, 5.500229, 1.891419, -2.117971, 0.428786, -1.680053, -0.343532, -2.862671, 1.368454, -247.304276, 13.725004, 100.771878
1759224943.259944, 6.069002, 0.924162, 1.209371, 0.307429, -0.590136, 0.353587, -2.969147, 1.398163, -246.353592, 13.725004, 100.771878
1759224943.279920, 3.800346, -1.988085, 0.604237, 0.174221, -0.174283, 0.415793, -2.329453, 1.788010, -246.360321, 13.725004, 100.771878
1759224943.299210, 3.405602, -5.394436, -5.752369, 0.503512, 2.645453, -0.090366, -2.625992, 2.188873, -247.002319, 13.725004, 100.771878
1759224943.320003, 6.106561, -5.886743, -7.597251, 1.613971, 1.171546, 0.669232, -3.004318, 2.167068, -249.366287, 13.725004, 100.771878
1759224943.339937, 4.930858, 0.875530, 0.236278, 2.114676, -2.509286, 1.919475, -3.091019, 3.515991, -248.890930, 13.725004, 100.771878
1759224943.359997, 7.228244, 8.662521, 0.695665, 3.048132, -5.500584, 3.058284, -1.727097, 5.898499, -245.823990, 13.725004, 100.771878
1759224943.379919, 22.253955, 30.916176, -0.009876, 3.743556, -4.785241, 6.651871, 1.392319, 10.630737, -241.729813, 13.725004, 100.771878
1759224943.399928, 13.183073, 38.729504, 1.974767, 2.740219, -1.509704, 5.314023, 3.947708, 15.709900, -241.574265, 13.725004, 100.771878
1759224943.419986, 2.909853, 35.163789, 1.724573, 4.080894, 2.614750, 2.880320, 5.533295, 19.497726, -242.998032, 13.725004, 100.771878
1759224943.439994, -2.321927, 32.991051, 9.587281, 3.188379, 7.218638, 0.791522, 4.726532, 21.380264, -248.467850, 13.725004, 100.771878
1759224943.459966, -5.433940, 24.979155, 11.604995, -1.351080, 7.698288, 0.408929, 3.654816, 21.688965, -253.505905, 13.725004, 100.771878
1759224943.479958, -4.640262, 18.214787, 7.654712, -3.828187, 1.594307, 0.546228, 3.414597, 21.856094, -255.330048, 13.725004, 100.771878
1759224943.500060, -2.502689, 11.681460, 4.521300, -4.045940, -4.594223, -0.459393, 3.296844, 21.670090, -251.095306, 13.725004, 100.771878
1759224943.519966, 7.748684, 6.625504, -17.260398, -0.750018, -2.732614, -0.970049, 3.889862, 20.767944, -247.951859, 13.725004, 100.771878
1759224943.539985, 1.922694, 6.071546, -4.835090, 0.883888, -1.838193, -0.320046, 3.863235, 20.407150, -246.870987, 13.725004, 100.771878
1759224943.560000, -7.185897, 2.219575, 2.216432, 0.489298, -0.515301, 0.101623, 4.284058, 20.509766, -246.104507, 13.725004, 100.771878
1759224943.580110, -9.661651, -0.681001, 2.692729, 0.033530, -0.062546, 0.290235, 4.584641, 20.794250, -246.482941, 13.725004, 100.771878
1759224943.599955, -9.207202, -5.375881, -3.063980, 0.348763, -1.908463, 0.739729, 5.120041, 21.305679, -245.905930, 13.725004, 100.771878
1759224943.620005, -12.434286, -8.226776, -3.534141, -0.047182, -1.640246, 0.049443, 5.640640, 21.586105, -243.911224, 13.725004, 100.771878
1759224943.640008, -6.232705, -10.409839, -7.508665, 0.186083, 2.651764, -1.659299, 4.694855, 21.103790, -244.921646, 13.725004, 100.771878
1759224943.660041, 2.463634, -0.631770, 6.111050, -1.058063, 3.976327, -2.135900, 2.866058, 19.694046, -247.727753, 13.725004, 100.771878
1759224943.679941, 4.314950, 5.513547, 14.788684, -1.520433, 2.221138, -0.899567, 1.298645, 18.627350, -248.927933, 13.725004, 100.771878
1759224943.700018, 3.621080, 6.627599, 2.534562, 0.219477, 1.099602, 0.190664, 0.832886, 17.899841, -249.968704, 13.725004, 100.771878
1759224943.719011, 7.514202, 33.912969, -38.971917, 0.255050, 8.049925, 1.398721, 0.700256, 19.054153, -254.022217, 13.725004, 100.771878
1759224943.740029, 4.856488, 9.382128, 10.269180, 1.042483, 2.070007, 1.937609, 0.970276, 20.364029, -257.826111, 13.725004, 100.771878
1759224943.760002, -0.755670, 39.563434, 5.398775, 2.086519, -1.305611, 0.120475, 1.062698, 21.495514, -257.597443, 13.725004, 100.771878
1759224943.780098, -4.015525, 6.520010, 3.231574, 0.132681, 0.386265, -1.114658, 0.832642, 20.491501, -258.633789, 13.725004, 100.771878
1759224943.799999, -3.537283, 9.518298, 1.186327, 0.422023, 1.452166, -1.619919, 0.086548, 19.803696, -259.165222, 13.725004, 100.771878
1759224943.819163, -4.355352, 16.383073, 1.545906, 1.040459, 0.910756, -3.592204, -1.227264, 17.719284, -259.794312, 13.725004, 100.771878
1759224943.840000, 0.999878, 23.968203, 2.422633, 1.792358, -1.444925, -3.910324, -2.567703, 14.639832, -260.861206, 13.725004, 100.771878
1759224943.859965, 5.732766, 25.766698, 7.063194, 1.350300, -5.894635, -3.163454, -3.773422, 11.567932, -257.696228, 13.725004, 100.771878
1759224943.879935, 10.031256, 19.785533, 11.471967, -0.720957, -8.880149, -1.942993, -3.185379, 10.132416, -251.237244, 13.725004, 100.771878
1759224943.900010, 10.567408, 14.358776, 5.334132, -3.619737, -5.341866, -1.657423, -1.937485, 8.451569, -244.710007, 13.725004, 100.771878
1759224943.919307, 15.661371, 11.291205, 3.219752, -4.907423, 2.949179, -1.736800, -2.712128, 5.874680, -244.857452, 13.725004, 100.771878
1759224943.940004, 13.681366, 9.072378, 0.074220, -4.111868, 5.274529, -2.192080, -3.877243, 3.069839, -247.481430, 13.725004, 100.771878
1759224943.959465, 8.009951, 8.158990, -26.930579, -1.079741, 10.280064, -1.527682, -5.302505, 1.476074, -255.065186, 13.725004, 100.771878
1759224943.979943, 8.581866, 5.263503, -14.280814, 1.041551, -2.067207, -0.163855, -5.641312, 0.971893, -255.706741, 13.725004, 100.771878
1759224944.000024, 6.227618, 0.736666, 2.381333, 0.321042, -4.372253, 0.136834, -4.747116, 0.541702, -252.031052, 13.725004, 100.771878
1759224944.019508, 5.225046, -1.658284, -0.741155, 0.375192, -2.629863, 0.310878, -4.855988, 1.708603, -249.116776, 13.725004, 100.771878
1759224944.039980, 4.157082, -4.389320, -1.887978, 0.562691, 0.212542, 0.001820, -4.150543, 1.961273, -249.193268, 13.725024, 100.771873
1759224944.059956, 4.307917, -4.531176, -3.031658, 0.834475, 2.371758, -0.286018, -5.091476, 2.342331, -250.705078, 13.725024, 100.771873
1759224944.079927, 5.641936, -3.501969, -3.801394, 1.122999, 2.152620, 0.389551, -5.006683, 2.180237, -252.899139, 13.725024, 100.771873
1759224944.099971, 6.986729, 0.624887, 0.195277, 1.607759, -1.131923, 2.032384, -4.700623, 3.892838, -253.119690, 13.725024, 100.771873
1759224944.119669, 8.164826, 6.380547, 0.704494, 2.240220, -4.772092, 3.520539, -3.635818, 7.037872, -250.325485, 13.725024, 100.771873
1759224944.140146, 16.888549, 21.492449, -0.585532, 3.601221, -5.985881, 6.637841, -0.954956, 11.889679, -246.586853, 13.725024, 100.771873
1759224944.160011, 18.748095, 44.022036, 0.958578, 3.752821, -3.997578, 6.663157, 2.956192, 18.254776, -244.273865, 13.725024, 100.771873
1759224944.180007, 0.133177, 34.995746, 3.182044, 5.495082, 2.200570, 3.028872, 5.121765, 22.282516, -246.938248, 13.725024, 100.771873
1759224944.200008, -3.617788, 35.676597, 14.479084, 3.173523, 7.424800, 0.596291, 4.395935, 23.685638, -253.038345, 13.725024, 100.771873
1759224944.220047, -6.881983, 24.916606, 15.898546, -2.323025, 5.480223, 0.344250, 4.543167, 23.670212, -256.328217, 13.725024, 100.771873
1759224944.240032, -4.386327, 16.209493, 8.884882, -4.566129, 1.492373, 0.890571, 4.870377, 23.694473, -256.047546, 13.725024, 100.771873
1759224944.259986, -2.754080, 11.065402, 2.214337, -5.042970, -1.487525, -0.256077, 4.928284, 23.713562, -252.731964, 13.725024, 100.771873
1759224944.279964, 6.101773, 7.900865, -20.276344, -1.767123, -1.077469, -0.645200, 4.911102, 22.622803, -250.501877, 13.725024, 100.771873
1759224944.299597, -0.571316, 5.231630, -9.308506, 0.436974, -2.451644, -0.627309, 5.055954, 22.243179, -248.655807, 13.725024, 100.771873
1759224944.320020, -5.086781, 1.806575, -1.868674, 0.610651, -2.450715, -0.762189, 5.081848, 21.993317, -247.638474, 13.725024, 100.771873
1759224944.339971, -6.543054, 0.873884, 1.162535, 0.245486, -1.062907, -0.596325, 5.496384, 21.504883, -247.238388, 13.725024, 100.771873
1759224944.360009, -6.009446, -1.070507, -0.851588, 0.262257, -0.580732, -0.061308, 5.494095, 21.576035, -246.665771, 13.725024, 100.771873
1759224944.379997, -7.096114, -3.419369, -2.473659, 0.153575, 0.125470, 0.160328, 5.499374, 21.797424, -246.858856, 13.725024, 100.771873
1759224944.400038, -8.080431, -4.877737, -2.564639, -0.355837, 2.615385, -0.959612, 4.747299, 21.005844, -248.049255, 13.725024, 100.771873
1759224944.420017, 0.110433, -2.155679, 1.924040, -0.689093, 5.124526, -1.934526, 3.288132, 19.977066, -250.882751, 13.725024, 100.771873
1759224944.440015, 3.610306, 3.716998, 7.574656, -0.548956, 3.333741, -1.227640, 1.371155, 18.845886, -252.950333, 13.725024, 100.771873
1759224944.460057, 3.333627, 7.059154, 4.034978, 0.778607, -0.283945, -0.063674, 2.197891, 18.714447, -253.271210, 13.725024, 100.771873
1759224944.479986, 6.056881, 12.952481, 3.013103, 1.132862, -1.713724, 1.432025, 2.479919, 19.282990, -252.491730, 13.725024, 100.771873
1759224944.499985, 12.949189, 35.370289, 3.157653, -1.026726, 1.645810, 2.309502, 3.245651, 20.614990, -253.612549, 13.725024, 100.771873
1759224944.520004, 4.647145, 31.147666, -3.600281, -0.938328, 6.321077, -0.620064, 3.392792, 20.501755, -257.303711, 13.725024, 100.771873
1759224944.540024, -0.934636, 6.218939, -2.943671, 0.181620, 4.956241, -0.196225, 2.939682, 20.167099, -260.575745, 13.725024, 100.771873
1759224944.559955, -1.628955, 4.078672, -0.322170, 0.721170, 0.377313, 0.586313, 3.042435, 20.515106, -261.785461, 13.725024, 100.771873
1759224944.579943, -7.190835, 9.939528, 0.998831, 2.101917, -1.620871, -2.553255, 2.546539, 20.043015, -261.881226, 13.725024, 100.771873
1759224944.600018, -2.099864, 19.210924, 2.131139, 2.940880, -3.645026, -4.513631, 1.393112, 17.861298, -261.768555, 13.725024, 100.771873
1759224944.619965, 5.114913, 28.139351, 8.630498, 1.688873, -7.699873, -4.335812, -0.707779, 14.217117, -258.658020, 13.725024, 100.771873
1759224944.639577, 8.589049, 26.799347, 14.795717, -2.165058, -10.310031, -2.303815, -1.377670, 11.482513, -252.086655, 13.725024, 100.771873
1759224944.659959, 9.903017, 18.018462, 7.616853, -3.602094, -5.304434, -1.018626, 0.178696, 9.844742, -244.952667, 13.725024, 100.771873
1759224944.679431, 11.257087, 11.030536, 4.093636, -4.491202, 2.706040, -1.418106, 0.521759, 8.049530, -241.919235, 13.725024, 100.771873
1759224944.699960, 10.726023, 6.555773, -1.032799, -6.817755, 10.226571, -2.507325, -1.292877, 4.730026, -245.095993, 13.725024, 100.771873
1759224944.719961, 19.565715, 12.072612, -65.019035, 1.578745, 0.028257, -0.529995, -3.651703, 2.624359, -252.553940, 13.725024, 100.771873
1759224944.739945, 10.059089, 2.947861, 0.327257, 0.832211, -3.306846, 0.267619, -3.609512, 2.655319, -251.034485, 13.725024, 100.771873
1759224944.760016, 6.212055, 1.683273, 1.389236, 0.475368, -3.042256, 0.542996, -2.670364, 3.410233, -248.665924, 13.725024, 100.771873
