SamplingTime, AccelerationX, AccelerationY, AccelerationZ, GyroX, GyroY, GyroZ, MagneticFieldX, MagneticFieldY, MagneticFieldZ
1759224925.647637, 0.627879, -3.538331, -8.460660, 0.068049, 0.353307, 0.051902, -43.337143, 9.730698, -143.121216
1759224925.667633, 0.999878, -4.108600, -8.471733, 0.408461, 0.385482, 0.034196, -42.863678, 9.777832, -143.264114
1759224925.687614, 0.736666, -3.951480, -8.911667, 1.264021, -0.577361, -0.161252, -42.727341, 9.246231, -143.109772
1759224925.707692, 0.401478, -4.031686, -9.031378, 1.944676, -1.963548, -0.706018, -43.861206, 8.367889, -144.599274
1759224925.727698, 2.244714, -2.272696, -6.481403, 1.833964, -3.767399, -0.164616, -46.019836, 7.540497, -146.583878
1759224925.747623, 2.134880, -2.773084, -5.382016, 1.554146, -5.568110, 0.616285, -48.232773, 6.556229, -148.556046
1759224925.767614, 0.955586, -3.192518, -4.468328, 1.181453, -6.053587, 0.832568, -51.647812, 5.646515, -150.137039
1759224925.787416, -1.512986, -6.101324, -11.780071, 0.667632, -1.869947, 0.449065, -53.983871, 4.807556, -150.924225
1759224925.807014, -2.847155, -5.173870, -7.260566, -0.352250, -1.855155, 0.534573, -54.663300, 4.778091, -150.393387
1759224925.826949, -2.240075, -4.412663, -9.282469, -1.249817, -0.509195, 0.344915, -55.055435, 5.504150, -150.529434
1759224925.847610, -5.439626, -5.569212, -7.406164, -1.201341, 0.406698, -0.081997, -54.984756, 6.366211, -149.871704
1759224925.867716, -3.786729, -4.585195, -7.168240, -0.978081, 0.472982, 0.026063, -54.480942, 6.932266, -148.850677
1759224925.887681, -1.770811, -3.147328, -6.826617, -0.782559, -0.127135, 0.182414, -54.395264, 7.479980, -148.247742
1759224925.907481, -1.216105, -2.964171, -10.508001, -0.707798, -1.303615, 0.205557, -54.739014, 7.840393, -148.235855
1759224925.927705, -4.291158, -2.665345, -9.585935, -0.501952, -2.331307, 0.287650, -55.574478, 8.080795, -147.823624
1759224925.947653, -3.012953, -4.027346, -9.231144, -0.283810, -3.337793, 0.462429, -56.977020, 8.390015, -147.133224
1759224925.967603, -1.845630, -4.648193, -8.908824, -0.070264, -3.108183, 0.676310, -58.744156, 8.419083, -147.573608
1759224925.987708, -4.561702, -3.838055, -8.347384, -0.112005, -2.210738, 0.153710, -60.230667, 8.511414, -146.544510
1759224926.007587, -7.769035, -4.118326, -6.564153, -0.761673, -1.270381, -0.839727, -61.572662, 8.976547, -146.151688
1759224926.027600, -5.935076, -3.052607, -5.089624, -1.502064, -1.457322, -1.081960, -62.948318, 9.787231, -144.813919
1759224926.047600, -4.520103, -2.772785, -6.655881, -1.308760, -1.844099, -0.957371, -64.538666, 10.202530, -143.807617
1759224926.067640, -5.008820, -3.096750, -8.434473, -0.378572, -2.470705, -1.168580, -66.555618, 9.972778, -142.812683
1759224926.087654, -5.698948, -3.304298, -8.921992, 0.763505, -1.127734, -1.035751, -67.947784, 9.857086, -142.956772
1759224926.107572, -4.023755, -4.336348, -6.949919, 0.816226, -0.829941, 0.127405, -68.474426, 9.395523, -143.089386
1759224926.127646, -4.637120, -3.826832, -4.758775, 0.272891, -2.217248, 1.126142, -68.704025, 9.448303, -142.680557
1759224926.147570, -5.683386, -3.286491, -4.457405, -0.154636, -2.145842, 1.423170, -68.947937, 9.805878, -142.492340
1759224926.167603, -5.176114, -1.970727, -6.464045, -0.775931, -1.120456, 1.204546, -68.521606, 10.429138, -141.771301
1759224926.187645, -5.124938, -1.184082, -4.413860, -1.145551, -0.569471, 1.022366, -67.982285, 11.416412, -141.472305
1759224926.206641, -4.416704, -1.127968, -3.561525, -1.966114, 0.048526, 0.653907, -67.861938, 12.534531, -139.757278
1759224926.227572, -4.608838, -0.903661, -4.856937, -2.421566, 0.612064, 0.227630, -67.343750, 13.233063, -138.028427
1759224926.247564, -6.033687, -0.989404, -4.745757, -2.680514, 1.188992, -0.103585, -67.348541, 14.419998, -136.587311
1759224926.267603, -6.442647, 1.179893, -7.275231, -2.665780, -0.111617, 0.074333, -67.176331, 15.000137, -134.357819
1759224926.287677, -5.559935, 2.156727, -4.477756, -2.614048, -1.614569, 0.542258, -66.640472, 15.968063, -132.278320
1759224926.306968, -8.328081, 0.035614, -6.012140, -2.838606, -1.257795, 1.202595, -66.173737, 17.346024, -129.928986
1759224926.327575, -7.149834, 0.530465, -5.486014, -2.720885, -2.301327, 1.815155, -65.053482, 17.778885, -127.038361
1759224926.347554, -7.647679, 0.077961, -6.859238, -2.496070, -2.350046, 2.135917, -63.426773, 18.584656, -124.834732
1759224926.367550, -6.802226, 0.378882, -7.062596, -2.190007, -1.655818, 2.385160, -61.563599, 19.381012, -122.801834
1759224926.387544, -7.863456, 1.047763, -6.432621, -1.818320, -0.947171, 2.329441, -60.001862, 19.652481, -121.349075
1759224926.407363, -10.118794, 2.147000, -5.309292, -1.735463, -0.608664, 1.882649, -58.528152, 20.125473, -119.273529
1759224926.427543, -11.873145, 3.772214, -4.516961, -2.327356, -0.539895, 1.299244, -57.166718, 19.662109, -117.657211
1759224926.447544, -10.911724, 3.893122, -5.209783, -2.539906, -0.758072, 1.144803, -56.394714, 19.975830, -115.558151
1759224926.467586, -10.242395, 3.993828, -4.429872, -2.687474, -0.620949, 1.229281, -55.172104, 19.408295, -113.102844
1759224926.487529, -10.457125, 4.195689, -4.541950, -2.841733, -0.595488, 1.071280, -54.218384, 19.516953, -110.469131
1759224926.507532, -10.691308, 3.977667, -5.328445, -2.740027, -0.334608, 0.911243, -53.128983, 19.064453, -108.330566
1759224926.527556, -10.206482, 3.976619, -5.288343, -2.393788, -0.305274, 0.961660, -52.418564, 17.987640, -106.544159
1759224926.547008, -9.493608, 3.767725, -4.639813, -2.068098, -0.404653, 1.335529, -50.983902, 17.783035, -104.893051
1759224926.567527, -9.579500, 3.747524, -3.959112, -1.792602, -0.698358, 1.764437, -49.660736, 17.232651, -103.369736
1759224926.587521, -11.448923, 4.661062, -2.526032, -1.657477, -1.343241, 1.913208, -47.334518, 16.167633, -102.046432
1759224926.607516, -13.476812, 4.506486, -4.233248, -1.598405, -0.619452, 1.374901, -46.009186, 15.573700, -101.260620
1759224926.627015, -12.870181, 5.050269, -4.522348, -1.181629, -0.607260, 0.547783, -45.227158, 14.630234, -100.680908
1759224926.647514, -11.443985, 4.796783, -3.476082, -0.767285, -1.007711, 0.284994, -44.634491, 14.668930, -100.032990
1759224926.667519, -10.099940, 4.265121, -3.118897, -0.623250, -1.041416, 0.454260, -44.456741, 14.248581, -99.605927
1759224926.687268, -9.185804, 4.284873, -3.566762, -0.610012, -1.622264, 0.765011, -42.958893, 13.566254, -99.902695
1759224926.706752, -10.524462, 4.169053, -2.840122, -0.456081, -1.979257, 0.610713, -42.293304, 13.438721, -100.130966
1759224926.727446, -10.327838, 4.153491, -2.475754, -0.320421, -2.180735, 0.115695, -40.930206, 13.233627, -100.498062
1759224926.747533, -8.297405, 3.830573, -2.522890, -0.287923, -2.175503, -0.193230, -40.194763, 13.141342, -100.695358
1759224926.766755, -6.157587, 3.821595, -2.785354, -0.209206, -2.069264, 0.025713, -39.698822, 12.927597, -101.078506
1759224926.787492, -6.346580, 5.264999, -2.407819, 0.051658, -1.713943, 0.451410, -38.717773, 12.810394, -101.994003
1759224926.806964, -7.541137, 5.867440, -1.410484, 0.107816, -1.204590, 0.433863, -38.299500, 12.958115, -102.626755
1759224926.827558, -8.469339, 5.842600, -0.246453, -0.020268, -0.622542, -0.008286, -37.900818, 12.831436, -102.525818
1759224926.847488, -8.760982, 6.222380, -0.298976, -0.103468, -0.263518, -0.392150, -38.077469, 12.697952, -102.309219
1759224926.867491, -8.363994, 6.447585, 0.372149, -0.270208, -0.154188, -0.673422, -38.166245, 12.881622, -102.513123
1759224926.887484, -8.622568, 7.278074, 0.846201, -0.456106, 0.075080, -0.638438, -38.925430, 13.141617, -102.264542
1759224926.907491, -9.521141, 7.278822, 1.508347, -0.650706, 0.274715, -0.660574, -39.152054, 13.365097, -101.912567
1759224926.927511, -9.293992, 6.460005, 1.266533, -0.890886, 0.335873, -0.855580, -40.028320, 13.237946, -101.674118
1759224926.946663, -9.687239, 6.150255, 0.522983, -0.730470, 0.518368, -1.126791, -41.028549, 13.171356, -100.868027
1759224926.967495, -8.810512, 5.620239, -0.338780, -0.675281, 0.531468, -1.247770, -41.850662, 13.768631, -100.238968
1759224926.987478, -9.443629, 5.856217, 0.728137, -0.733341, 0.736285, -1.361342, -43.057251, 13.205215, -98.836304
1759224927.007474, -9.117868, 5.520281, 0.393697, -0.108663, -0.671183, -0.241796, -44.001816, 13.853806, -99.031052
1759224927.026506, -8.357260, 2.942623, -0.893486, -0.890258, 0.233297, -0.632651, -44.116653, 13.259216, -98.493805
1759224927.047496, -11.333103, 4.230854, 2.349460, -2.115705, 2.372936, -2.948355, -45.766037, 13.363190, -97.281479
1759224927.067472, -13.639617, 7.574656, 0.360627, -2.350023, 2.300216, -4.095088, -50.021667, 12.491776, -94.973251
1759224927.087579, -11.407922, 4.442591, 0.999430, -2.677539, 0.719062, -3.496101, -52.880524, 11.565506, -93.643555
1759224927.107285, -8.055291, 1.108515, -2.811242, -1.507260, 0.402954, -2.310307, -55.289734, 10.926712, -92.130020
1759224927.126910, -7.792229, 0.002095, 1.006762, -1.695726, 0.395304, -1.755810, -57.058655, 9.799179, -90.883499
1759224927.146901, -3.169324, 1.565359, 2.207604, -1.496518, 0.732655, -0.556353, -57.919571, 8.899689, -89.924240
1759224927.167469, -1.623119, 1.744176, -2.407968, -0.559077, 1.068577, -0.181254, -58.687195, 8.260986, -89.896912
1759224927.187493, -6.532430, 0.801908, 0.024541, -0.682861, 1.691593, -0.867405, -59.879868, 7.673553, -89.582367
1759224927.207579, -5.745037, -0.038756, 2.319682, -2.078763, 2.814031, -0.350373, -61.682053, 7.379761, -88.979507
1759224927.227446, -6.503550, -2.446276, 3.030910, -1.050091, 0.777594, 0.398437, -62.844284, 6.118713, -87.524582
1759224927.247461, -5.739201, -2.930353, -8.727164, 0.490955, 0.104339, 2.110469, -62.409012, 6.365097, -88.097382
1759224927.267458, -8.166323, -2.963872, -1.961300, 0.318601, -1.822726, 3.559542, -60.420731, 6.574600, -88.381866
1759224927.287464, -14.013711, 4.472069, -1.330278, 0.670741, -2.842332, 3.070057, -57.017288, 7.726593, -88.236481
1759224927.307472, -12.372037, 5.925499, 0.328305, 0.395319, -2.552704, 2.422934, -53.336731, 7.729218, -88.671646
1759224927.327459, -4.131345, 3.872472, 0.605733, -0.081681, -0.568317, 3.234155, -50.334290, 7.968033, -88.748123
1759224927.346660, -0.736965, 4.706552, -2.357391, 0.290305, 0.678563, 4.711640, -48.513168, 7.649139, -88.550507
1759224927.366833, -3.800047, 6.196044, -2.115726, 0.511645, 0.898306, 6.156068, -45.682877, 6.962936, -89.109329
1759224927.387455, -10.981156, 7.347955, -0.385018, 0.274031, 0.649406, 5.507964, -42.641022, 5.371979, -89.580276
1759224927.407461, -12.344354, 7.496096, -1.001225, 0.365074, 0.417970, 3.359100, -39.849731, 4.255295, -88.575455
1759224927.427445, -7.865701, 7.680000, 0.369006, 0.145712, 0.305350, 1.832471, -38.904358, 3.663147, -88.764786
1759224927.447041, -5.649717, 7.865401, 0.667234, 0.059823, 0.394609, 1.392490, -38.871017, 3.651291, -89.295059
1759224927.467437, -1.085920, 5.940463, -0.411204, -0.194699, -0.554866, 2.041142, -37.179886, 2.792969, -88.831863
1759224927.487447, -1.122881, 3.605967, -1.038784, -0.502556, -1.041125, 2.761058, -35.372238, 1.233582, -89.301163
1759224927.507198, -6.325331, 11.001506, -5.242553, -0.149545, -0.058308, 2.801849, -33.910446, 0.028534, -88.655273
1759224927.526768, -11.762264, 15.272463, -2.337788, 0.160565, -0.854831, 0.435143, -32.492813, -0.459793, -88.772476
1759224927.547456, -9.883414, 12.585121, -2.615216, 0.059418, -0.663805, 0.307599, -32.315109, -0.504745, -89.914627
1759224927.566819, -4.797830, 7.945009, -2.309058, -0.241194, 0.147893, 0.647703, -32.178314, -0.547592, -89.220688
1759224927.587435, -2.447173, 6.596624, 0.214580, -0.749551, -0.005507, 1.173285, -31.835022, -1.686569, -89.455154
1759224927.607441, -4.369418, 7.271190, 0.565032, -0.842098, 0.582929, 1.857090, -31.386459, -2.688705, -89.107956
1759224927.626567, -6.457162, 8.814403, -0.872537, -0.756867, 0.714530, 2.043545, -30.731674, -4.133530, -88.495728
1759224927.647501, -7.830685, 10.740389, -2.642750, -0.016744, -0.370155, 0.969964, -30.176666, -4.800278, -88.159561
1759224927.667485, -7.010073, 11.143512, -2.626439, 0.329214, -0.799787, 0.746385, -29.564575, -5.277954, -88.440765
1759224927.687449, -5.364358, 10.355371, -1.991527, 0.290084, -0.662021, 0.962899, -28.844131, -5.475967, -88.459503
1759224927.707432, -6.805369, 9.135076, -1.490839, -0.010466, -0.142697, 0.967449, -28.487137, -5.894150, -88.388123
1759224927.727423, -6.463896, 8.651747, -2.284817, -0.322260, 0.536239, 0.826753, -29.004547, -6.575821, -88.342270
1759224927.747436, -6.980744, 8.293963, -3.187131, -0.242180, 1.068890, 0.628491, -29.412506, -6.948761, -88.027466
1759224927.767397, -6.074090, 7.811382, -3.660884, 0.095212, 1.375640, 0.350407, -30.149185, -6.501556, -86.507111
1759224927.787417, -4.094234, 7.461529, -2.067243, 0.338859, 1.627789, 0.362264, -31.355865, -6.768066, -86.100266
1759224927.807423, -3.985448, 7.452402, -0.482432, 0.460132, 1.795197, 0.488921, -31.873199, -6.502121, -85.287750
1759224927.827430, -4.055628, 7.019799, -0.232986, 0.692835, 1.806850, 0.351515, -33.303970, -6.604019, -85.088852
1759224927.846486, -2.904167, 5.647922, -1.458667, 0.889033, 2.623092, -0.077516, -35.024231, -5.255997, -83.650131
1759224927.867400, -0.947655, 4.882226, -0.572513, 0.802789, 2.854797, 0.350417, -37.078537, -5.008911, -83.040466
1759224927.887279, -1.451185, 5.513846, 0.385766, 0.723179, 2.257536, 1.407244, -37.906265, -5.255783, -82.764908
1759224927.907045, -1.505055, 6.220884, 0.129287, 0.792961, 1.718798, 2.793504, -38.393295, -5.492599, -82.195099
1759224927.927425, -0.209343, 4.053234, -0.945560, 0.902507, 2.134454, 3.841119, -39.045029, -5.782349, -81.943527
1759224927.946910, -3.494337, 3.337816, -8.121132, 2.200679, -0.025389, 3.319641, -37.816544, -5.495117, -83.205124
1759224927.967373, -2.873790, 5.570709, -6.632986, 4.950721, -5.578398, 2.126179, -33.349045, -3.251266, -86.753372
1759224927.987401, -3.760243, 11.564892, -2.642450, 3.053931, -6.588459, 0.713232, -29.322891, -2.132156, -91.049728
1759224928.007406, -2.797774, 15.653590, -11.176582, -1.301272, -5.760082, -0.340263, -26.630585, -2.349045, -94.270187
1759224928.027392, 15.143176, 39.053769, -17.583616, 0.423959, -1.772583, 3.621850, -24.274414, -4.066574, -94.902664
1759224928.047307, -1.888427, 31.686361, -4.910059, 1.180862, 2.125947, 5.179720, -23.337936, -6.750656, -94.537994
1759224928.066706, -4.521151, 14.408156, 0.691026, 1.097701, 0.228288, 1.329489, -23.031891, -7.402512, -94.635117
1759224928.087402, 4.580407, 6.155941, 1.982698, 0.986420, -0.495317, 0.002431, -23.087280, -7.070129, -96.041794
1759224928.107396, 4.663157, 2.776376, 1.924788, 0.848483, 0.571107, -0.235058, -23.790665, -6.456253, -95.562897
1759224928.127390, 4.495413, 0.697311, 0.716315, 0.401423, 1.520533, -0.000237, -24.277176, -6.212372, -95.135986
1759224928.147385, 2.702754, -0.780360, -0.010175, -0.361816, 1.906696, 0.172263, -24.926910, -6.320190, -93.321198
1759224928.166620, 1.648857, -2.518551, -2.245163, -1.208858, 2.647461, 0.416759, -26.116837, -7.065582, -92.065277
1759224928.187383, -3.377620, -0.163853, -4.261230, -2.451672, 1.965715, 0.836444, -27.002792, -8.811371, -89.627319
1759224928.207403, -5.160402, 8.386888, -11.093683, -2.372587, -0.720113, 0.359553, -27.341431, -10.652740, -88.810287
1759224928.227375, -2.752284, 13.227665, -7.778312, -1.556356, -2.209146, -0.665584, -26.013885, -11.186630, -89.780533
1759224928.247125, -1.911321, 8.945037, -1.020828, -1.151629, -2.032420, -1.147770, -25.478333, -10.960541, -89.905365
1759224928.267356, 1.232565, 3.521422, 5.552902, -0.852716, -1.523568, -1.077712, -24.556519, -10.927719, -91.592346
1759224928.287383, 7.161057, 6.352715, -4.642357, 0.768494, -0.866814, -0.135540, -24.302628, -10.709320, -91.539139
1759224928.307375, 14.169185, 13.480702, -1.739537, 2.683566, -3.147598, 2.211688, -22.754730, -10.008835, -93.887909
1759224928.326958, 6.502502, 7.552659, 9.121310, -1.278376, 1.204939, 1.810300, -22.555115, -11.704346, -94.316254
1759224928.347359, 3.808876, 5.491251, 4.250606, -2.431764, -0.641880, 0.991031, -21.894653, -13.233948, -93.773560
1759224928.367216, 10.854861, 9.335441, -5.785588, -1.148812, -0.819755, 1.576805, -21.789398, -15.191513, -93.784775
1759224928.387363, 6.034286, 14.689624, 2.733729, -1.040159, -0.688998, 1.916953, -21.009583, -17.074829, -94.690536
1759224928.406641, 5.204994, 15.031397, 1.330578, -1.268472, -0.554754, 1.865475, -20.856262, -18.702835, -94.359116
1759224928.427396, 3.837756, 10.694151, -0.075268, -1.627629, 0.025930, 1.730985, -20.194077, -20.595169, -94.613480
1759224928.447355, 3.904344, 9.465327, 1.304241, -2.476007, 1.428212, 1.532748, -20.579666, -22.837067, -93.494766
1759224928.467266, 4.601656, 10.556783, 0.534954, -2.569962, 1.497562, 1.608875, -21.267349, -25.191269, -92.885376
1759224928.487377, 2.981829, 13.149554, -0.878822, -2.326590, 1.020461, 1.607499, -22.068192, -27.479187, -92.422897
1759224928.507411, 3.778349, 16.537798, -0.276530, -2.060424, 0.483458, 1.561771, -22.496490, -29.264465, -91.965912
1759224928.527268, 1.780089, 21.233277, -4.559757, -1.904318, 1.254653, 1.492835, -23.186157, -31.405914, -91.563828
1759224928.547369, 1.682974, 16.519692, -5.559636, -1.611433, 2.114152, 1.114565, -24.596420, -32.761261, -90.577805
1759224928.567327, 0.723049, 11.547833, -5.801600, -1.376817, 1.546111, 1.067139, -25.700668, -34.458740, -89.913071
1759224928.587368, -0.945859, 8.097639, -5.156063, -1.192452, 0.209788, 1.106563, -26.618851, -35.873672, -89.990585
1759224928.607346, -3.573196, 7.037905, -4.842572, -0.960365, 0.411421, 0.807529, -26.837372, -36.844604, -89.929459
1759224928.627350, -4.114286, 6.091298, -4.818780, -0.523674, 1.123572, 0.433794, -27.465744, -37.535919, -89.555252
1759224928.647360, -3.647566, 5.623980, -3.488501, 0.174483, 0.797477, 0.027804, -28.620087, -37.837982, -88.647919
1759224928.666466, -2.171990, 4.226364, -1.752107, 0.862057, 1.074256, -0.446717, -28.617188, -37.396622, -87.942123
1759224928.687341, -2.631377, 2.543690, -1.371878, 1.277984, 0.437552, -0.798614, -29.517441, -36.299866, -87.465225
1759224928.707340, -3.617489, 1.730559, -1.851017, 1.998290, -0.330223, -1.471506, -28.867981, -34.728882, -87.135971
1759224928.727344, 3.068020, 11.009437, 0.332345, 2.820233, -0.202410, -2.172098, -28.750519, -32.565109, -86.653030
1759224928.747288, 8.595334, 17.614441, -0.420182, 3.278812, -0.026019, -2.156503, -28.429382, -29.327179, -86.219940
1759224928.766858, 15.348628, 18.216882, -3.327042, 3.102010, -0.814345, -1.460899, -27.667236, -26.150070, -86.314163
1759224928.787349, 13.064859, 15.466243, 0.750582, 2.231923, -3.954986, -0.804415, -26.631653, -23.457367, -87.176987
1759224928.807367, 11.464784, 17.022774, 2.438345, 1.175907, -6.953466, -0.677955, -23.153061, -22.218811, -90.248627
1759224928.827322, 9.994146, 17.010354, -0.656460, 0.987905, -4.823208, -1.077553, -19.362549, -20.537674, -96.490677
1759224928.847323, 9.347412, 19.323153, -4.047996, 2.392886, 0.283928, -1.704830, -19.150742, -18.461136, -96.895050
1759224928.867277, 3.983503, 21.932683, -3.880702, 3.329325, -0.545124, -2.384221, -19.291519, -15.065643, -97.168579
1759224928.887314, 1.975665, 19.053955, -1.134702, 2.847312, -0.173617, -2.357295, -19.935104, -12.591370, -97.858398
1759224928.907320, 3.103634, 15.247473, -0.922665, 2.353681, 1.088850, -1.555475, -20.380264, -10.407578, -98.330505
1759224928.927392, 2.941875, 9.894637, 0.198719, 1.985007, 1.672789, -0.802851, -21.357010, -8.978821, -97.926270
1759224928.947316, 2.798223, 4.342184, 2.061258, 1.384442, 1.954758, -0.274954, -22.262909, -8.141876, -96.818466
1759224928.967131, 3.253870, -0.333243, 3.737498, 0.244073, 1.635985, 0.080726, -22.849457, -7.512222, -95.272186
1759224928.986601, 3.755006, -3.357718, 3.411737, -1.015970, 1.457905, 0.098117, -23.730957, -8.372726, -94.244705
1759224929.007309, 3.011008, -4.767005, 1.028310, -2.072826, 1.643168, 0.301947, -24.800827, -9.068924, -93.032593
1759224929.027297, 2.273444, -3.801693, 1.069011, -2.756775, 1.445841, 0.891291, -25.018143, -11.164948, -91.252487
1759224929.047022, 1.449091, -1.916708, 1.532439, -2.614632, 1.130941, 1.166122, -25.771805, -13.018646, -90.122055
1759224929.067289, -1.307833, -2.262072, -3.414730, 0.278343, -1.472628, 0.038656, -25.209061, -13.429794, -90.144653
1759224929.087295, -3.966594, 4.318990, -16.499192, 2.310377, -2.463868, -0.686224, -24.086639, -12.070724, -92.573425
1759224929.107300, -0.196624, 13.396007, -0.342371, -2.124043, -1.715148, -0.257356, -23.487686, -12.371292, -93.449081
1759224929.127346, 1.354819, 1.521515, 8.003816, -2.964209, -1.916339, 0.241058, -22.283798, -13.825027, -94.191483
1759224929.147012, 4.162469, 3.715053, 3.410989, -2.511031, -2.630790, 1.374225, -21.367661, -15.603806, -95.114349
1759224929.167288, 19.422811, 21.043536, 5.809530, -0.915972, -2.251456, 2.978292, -20.028259, -18.388184, -96.445221
1759224929.187282, 7.151331, 18.597111, -0.928202, 0.154284, 0.339367, 0.201615, -19.542877, -19.243423, -96.607544
1759224929.207298, 2.918382, 4.045902, 4.521001, -0.691203, 0.684492, 0.353812, -19.981293, -19.547607, -96.078278
1759224929.227277, 14.960618, 7.558046, 0.643891, -1.097657, 0.601189, 1.814762, -19.918915, -21.584076, -95.799530
1759224929.247274, 8.291270, 13.716980, 2.593220, -2.052726, 0.661979, 2.950125, -20.115891, -24.244110, -95.189667
1759224929.267271, 4.347870, 16.073174, 0.783353, -2.388809, 1.392203, 1.895009, -20.768341, -26.538574, -94.190750
1759224929.287303, 7.201160, 15.114894, 2.008735, -2.506394, 2.336857, 1.705033, -22.036758, -29.025986, -93.182465
1759224929.307222, 6.434567, 14.292935, 0.269348, -1.930748, 3.165544, 2.148090, -24.375458, -31.493591, -91.569031
1759224929.326968, 2.506131, 18.393903, -4.212747, -1.255047, 2.513817, 2.549748, -26.114517, -33.643723, -89.877838
1759224929.346793, 0.750732, 27.664701, -7.879318, -2.667098, 2.647448, 1.765882, -27.897308, -36.047577, -89.356934
1759224929.366394, -2.261174, 15.531635, -13.728053, -1.587844, 0.000958, 1.142402, -28.445404, -37.340591, -89.427612
1759224929.387261, -3.675548, 8.487894, -9.417443, -0.406957, 0.091801, 0.850044, -28.610275, -38.342834, -89.388000
1759224929.407276, -2.235287, 4.046201, -2.855684, 0.060173, 1.129956, 0.470509, -29.197433, -38.389572, -88.843811
1759224929.427262, -2.808099, -0.335787, -4.444536, 0.306332, 0.664176, 0.103276, -29.918930, -38.661331, -87.943893
1759224929.447268, -3.055301, 0.224307, -3.279907, 1.075802, -0.374190, -0.461954, -29.347260, -37.173706, -88.092758
1759224929.467269, -4.275895, 2.644246, -2.080861, 1.368985, -1.363288, -1.003731, -28.298126, -36.228058, -88.144302
1759224929.486447, -0.771681, 7.921067, -0.309750, 1.421759, -1.062607, -1.685751, -26.903442, -34.553848, -88.318939
1759224929.507263, 5.188684, 16.428563, -2.060360, 2.881089, 0.601771, -2.278380, -26.800629, -32.062302, -87.797058
1759224929.527257, 12.160749, 22.566248, -5.869834, 4.306388, 1.871130, -2.241948, -27.086731, -28.114990, -86.254272
1759224929.547312, 18.169297, 20.103812, 2.530821, 3.800648, 0.458636, -0.620122, -27.734818, -25.373520, -85.150757
1759224929.567310, 16.484527, 18.792238, 7.278223, 1.603423, -4.205142, 1.084112, -25.024307, -24.638809, -87.442581
1759224929.586847, 12.675353, 18.504036, 1.265635, -0.209629, -6.817137, 0.334348, -21.334030, -24.480072, -91.958786
1759224929.607262, 11.780370, 18.201320, -4.656423, 0.244819, -2.362520, -1.571993, -19.690887, -23.418137, -93.634262
1759224929.627282, 7.026533, 18.771289, -3.777901, 2.018734, -1.256540, -2.009577, -19.033508, -20.869858, -94.617889
1759224929.647276, 3.234267, 13.475315, 0.680402, 1.948411, -1.881836, -2.323503, -18.401123, -18.181732, -96.276154
1759224929.667247, 4.034080, 8.213907, 0.812682, 1.468462, -0.009200, -1.744256, -18.107437, -16.819199, -97.161346
1759224929.687258, 3.231125, 3.186682, 2.012476, 1.340144, 1.837807, -1.016016, -19.168564, -15.246368, -95.716461
1759224929.707262, 3.988291, -1.687164, 2.769343, 1.001565, 1.990644, -0.313575, -20.479309, -14.057175, -95.126266
1759224929.727253, 3.077896, -4.674379, 4.165312, -0.124632, 1.617161, 0.240439, -21.274445, -13.902802, -93.852982
1759224929.746611, 0.875380, -4.285771, 7.076213, -1.208698, 2.189547, 0.561168, -22.412537, -14.869125, -92.356598
1759224929.767254, -0.533159, -4.096479, 6.600515, -1.044729, 3.460889, 0.528778, -23.399170, -16.126434, -89.882080
1759224929.787251, -0.276530, -3.527108, 3.864840, -0.750086, 3.579226, 0.337858, -25.795151, -16.509048, -88.165329
1759224929.806341, 3.529801, -4.733486, -21.249438, 2.867335, -1.443280, 0.770381, -25.989975, -15.647171, -88.065765
1759224929.826820, 7.577798, 15.203330, -28.773516, 4.426366, 1.420880, 0.415429, -25.412399, -13.467621, -89.267456
1759224929.847244, -1.763778, 20.885220, 1.667262, -1.007686, -6.570225, -1.362348, -24.090164, -12.686523, -91.476456
1759224929.867222, 4.781520, 6.470929, 14.863653, -3.454855, -6.131122, -0.907100, -21.047745, -13.558838, -95.263626
1759224929.887247, 12.581979, 6.021716, 12.814665, -2.225231, 0.219166, 0.815256, -20.259064, -15.002869, -96.572693
1759224929.906978, 7.775469, 2.534861, 12.882152, -1.505746, 1.088322, 1.316260, -20.203491, -16.439270, -96.120346
1759224929.926860, 9.510667, 3.686921, 12.516437, -2.251340, -0.756791, 2.869095, -20.554657, -19.191940, -95.386765
1759224929.947219, 16.518794, 12.258612, 5.167735, -2.353077, -1.077944, 4.540843, -19.472504, -22.881592, -96.457626
1759224929.967066, 18.277036, 15.665710, 2.841768, -1.780000, 1.339747, 4.708551, -19.851639, -27.483932, -96.300064
1759224929.987240, 17.248427, 20.701465, -3.214964, -1.580401, 11.100015, 2.708297, -23.539078, -30.577988, -91.961304
1759224930.007233, 10.045472, 26.104430, -13.060969, -0.157940, 7.937550, 1.155674, -30.535187, -32.028366, -85.834320
1759224930.027220, 0.344166, 27.484537, -9.922320, -0.627038, -0.005261, 0.930434, -31.879349, -32.598328, -84.948273
1759224930.047218, -2.125901, 17.315465, -0.992995, -3.286741, 2.448573, 0.540897, -32.738174, -34.170303, -84.565170
1759224930.067209, -1.744176, 7.207894, -9.200019, -1.585733, 1.618465, 0.073347, -34.355942, -35.907791, -84.547852
1759224930.087209, 6.186467, 2.556259, -11.051036, 0.029154, 0.700315, 0.294920, -34.699814, -36.688614, -84.464508
1759224930.107216, 4.400543, 1.219098, -2.906262, -0.633884, 0.699563, 0.211942, -35.774277, -36.720840, -83.976974
1759224930.127207, -1.012897, -1.106121, -2.147449, -0.630772, -0.203629, -0.181515, -35.826965, -37.418488, -84.417023
1759224930.147202, -2.235735, 2.353351, -5.341913, 0.280368, -1.315459, -0.215431, -35.756165, -37.412140, -84.982224
1759224930.167214, -5.937919, 7.570615, -6.717831, 0.804558, -1.975982, -1.088895, -34.137665, -37.029343, -85.764557
1759224930.187197, -3.645471, 8.525303, -3.715801, 1.181751, -2.378072, -1.833346, -32.187332, -35.951370, -85.970932
1759224930.206255, 0.015862, 3.080739, -6.639570, 2.602635, -2.602512, -1.844818, -30.055603, -33.816223, -87.152481
1759224930.227196, 2.333598, 1.558476, -5.578490, 4.051254, -1.126054, -2.120670, -28.109924, -29.314041, -87.467072
1759224930.247196, 7.937078, 14.382269, -0.142305, 5.451359, 1.005136, -2.526181, -28.210495, -24.803909, -86.472504
1759224930.267193, 18.711434, 29.862129, 2.306813, 4.862082, 1.006918, -0.365157, -29.211258, -21.533051, -85.531830
1759224930.287195, 24.615236, 35.784037, 4.513369, 2.470498, -5.418951, -0.269627, -26.165787, -20.141815, -88.294754
1759224930.306437, 14.481927, 18.987366, 5.011363, -0.830492, -9.088666, -1.925867, -23.732361, -19.247925, -90.573898
1759224930.326522, 16.316784, 16.320973, -3.522619, -1.072279, -3.557094, -2.435999, -19.745575, -17.625504, -96.452103
1759224930.347191, 7.191583, 15.455619, -5.484667, 1.095271, -0.613600, -2.988106, -19.586166, -15.502441, -97.700027
1759224930.366556, 1.143082, 15.751004, -1.682675, 2.201093, 0.151053, -2.791329, -19.981445, -12.502670, -97.692352
1759224930.387191, 0.858621, 11.787403, 1.227178, 1.868627, 1.445699, -1.557051, -20.886063, -10.630798, -97.320084
1759224930.406922, 1.769614, 6.587646, 4.298789, 1.166972, 2.077968, -0.221221, -22.060104, -9.517776, -95.893234
1759224930.427204, 1.976413, -0.750881, 4.895544, -0.169587, 1.617095, 0.285550, -22.373901, -9.344574, -95.207520
1759224930.447179, 2.511667, -5.591808, 3.538331, -1.450773, 2.148984, -0.030952, -23.246185, -10.281708, -93.452759
1759224930.467281, 2.052130, -6.594380, 2.760814, -1.621157, 2.986648, 0.548701, -24.726654, -10.998566, -91.216812
1759224930.487320, 2.199074, -5.761946, 3.065775, -1.275280, 2.855110, 1.171270, -26.467514, -12.412827, -88.972168
1759224930.507261, 0.352995, -3.886388, 1.272518, -0.789930, 1.212528, 1.021207, -26.698517, -13.153809, -87.420135
1759224930.527371, 1.271770, -2.690783, -15.937901, 4.292560, -2.589019, 0.595711, -25.410568, -11.975266, -89.181305
1759224930.547286, 8.193108, 15.572187, -23.688979, 1.710228, 1.286648, -0.034753, -26.229019, -10.523804, -89.588791
1759224930.567340, 0.121356, 11.770644, 8.284686, -3.572302, -3.071611, -0.025138, -24.906189, -11.539886, -89.318832
1759224930.587224, 1.693898, 1.728614, 8.782231, -3.365564, -3.589256, 0.800358, -22.871918, -13.895752, -91.267578
1759224930.607373, 12.096704, 6.504447, 7.716811, -1.550764, -1.983471, 2.546731, -20.839188, -16.246857, -92.472198
1759224930.627205, 14.865299, 10.334422, 9.551967, -0.900482, 0.556135, 2.294986, -20.566681, -18.220230, -92.839386
1759224930.647187, 8.074295, 7.257424, 7.999776, -1.888230, 1.055027, 1.644033, -21.040161, -20.066849, -91.349228
1759224930.667201, 16.151733, 12.340763, 3.390788, -1.057426, -0.019119, 2.757075, -21.010818, -22.084351, -91.047180
1759224930.687199, 7.110779, 23.458089, -2.785354, -2.194279, 1.555773, 1.743232, -21.306915, -24.646652, -90.617416
1759224930.707179, 6.931663, 17.176302, 4.036325, -2.940466, 2.327428, 1.183695, -22.564987, -26.811554, -89.659058
1759224930.726980, 0.184354, 17.502662, -4.755782, -3.379853, 2.390263, 0.257885, -23.991226, -28.711029, -88.072479
1759224930.747190, 4.298340, 20.325725, -5.788132, -2.920212, 0.969020, 0.905228, -24.671463, -30.926468, -88.052551
1759224930.767309, 2.518999, 22.292861, -8.784476, -2.052777, 1.324024, 1.464892, -25.811752, -32.651443, -87.334503
1759224930.787286, -0.590470, 12.172570, -11.534515, -0.607038, 2.361534, 1.002015, -27.723007, -33.558640, -86.660645
1759224930.807173, 1.746271, 4.709694, -8.305037, 0.267214, 3.727745, 0.856870, -30.482559, -33.511398, -83.791199
1759224930.827160, 4.956446, 1.364845, -2.952051, 0.217705, 3.120843, 0.709752, -32.463760, -33.534622, -82.715485
1759224930.847163, 1.157746, 1.275212, 2.924068, -1.343196, 0.546436, 0.131434, -32.963882, -34.307800, -82.356064
1759224930.867297, -2.272097, 1.917307, -2.828899, -1.449504, -1.528298, -0.142723, -31.838120, -34.895477, -83.626068
1759224930.887248, -9.913192, 3.648614, -7.803152, -0.264917, -4.438510, -0.918389, -28.647858, -35.006058, -85.730911
1759224930.907354, -3.462465, 6.062268, -4.899734, 0.247913, -1.749895, -1.639029, -27.209503, -33.333939, -87.055344
1759224930.927171, 5.378724, 3.099893, -11.079916, 2.776181, -0.191691, -1.193859, -26.981659, -31.059814, -86.091232
1759224930.947193, 6.429030, 9.312996, 1.448043, 4.583117, 0.161610, -1.841834, -26.651230, -27.090485, -85.798477
1759224930.967149, 11.009437, 23.107787, -1.208473, 5.549242, 1.568002, -2.342745, -27.800751, -22.301117, -84.974716
1759224930.987228, 20.773141, 35.328840, 0.983867, 3.915778, -0.113243, -0.355861, -28.022568, -19.324036, -85.173431
1759224931.007204, 13.137284, 24.745571, 4.771644, 1.037118, -6.286580, -0.648778, -24.658539, -17.994888, -88.708450
1759224931.026945, 15.991322, 19.285743, -1.262941, -0.977929, -8.293286, -1.754810, -20.356354, -17.598465, -93.892059
1759224931.047152, 11.682507, 14.597597, -6.454917, 0.928018, -2.282880, -2.330962, -19.579544, -15.506958, -95.837540
1759224931.067130, 5.270685, 13.587094, 0.175076, 3.195018, 0.070409, -2.300659, -20.191666, -13.097015, -96.475586
1759224931.087335, 2.454057, 10.880449, 1.987187, 3.373070, -0.474318, -1.841130, -20.573914, -10.179871, -98.121033
1759224931.107214, 2.204910, 7.774122, 2.064251, 2.795949, 0.746956, -0.838626, -21.079102, -8.504852, -98.402145
1759224931.126626, 2.753332, 2.523040, 3.531148, 1.735442, 1.839087, 0.015176, -21.587997, -7.761765, -97.846313
1759224931.147176, 2.047940, -3.600879, 5.105336, 0.301137, 2.005717, 0.198796, -22.373505, -7.582352, -97.063263
1759224931.167010, -1.282544, -6.427085, 4.870105, -0.727500, 2.759568, -0.082812, -23.563110, -7.584366, -94.829666
1759224931.187139, -1.547851, -4.163966, 7.603386, -1.434660, 3.086700, 0.299870, -24.804459, -8.280197, -92.618973
1759224931.207214, -0.964265, -2.860323, 5.267393, -2.135460, 2.179923, 0.301067, -26.121201, -9.410156, -90.657669
1759224931.226896, 0.631171, -3.357569, -5.081543, -1.175611, 0.184992, 0.309422, -27.012314, -10.578629, -89.693176
1759224931.246409, 3.152864, 6.875549, -30.248344, 3.930741, -2.879735, 0.125893, -25.367645, -8.892731, -92.558441
1759224931.266241, 0.718859, 13.101820, 0.806996, -0.442922, 0.943978, -0.953426, -26.060959, -7.937881, -92.063461
1759224931.287154, 1.953369, 0.921618, 10.032304, -3.970634, -1.388570, -0.528557, -26.053009, -9.215057, -91.931900
1759224931.307136, 8.709357, 8.148067, -3.821445, -2.073433, -5.264278, 0.687059, -24.454788, -10.810776, -93.279633
1759224931.327133, 21.214422, 14.580389, 9.848249, -1.007717, -4.197855, 3.572485, -21.173248, -12.875793, -96.777420
1759224931.346152, 17.105823, 14.602236, 9.673921, -0.872517, 0.885212, 1.905993, -20.451492, -15.114914, -96.355026
1759224931.366772, 12.622082, 11.852196, 10.530297, -2.381337, 2.092639, 1.051150, -21.172516, -16.539291, -94.775284
1759224931.386663, 12.296171, 16.599000, -0.459088, -2.745126, 1.592993, 2.412492, -21.884521, -19.096130, -93.257431
1759224931.407125, 6.401946, 19.480422, -2.186505, -1.217491, 0.716177, 1.705493, -22.073013, -20.948868, -93.043793
1759224931.427109, 6.099678, 19.232622, 1.150414, -1.957512, 2.830294, 1.296424, -23.022156, -22.795547, -91.304901
1759224931.446540, 2.135329, 18.356194, -3.556736, -2.395192, 4.698110, 1.525194, -25.422455, -24.674911, -89.193741
1759224931.467110, 6.318149, 16.276531, -7.792528, -1.881698, 2.776278, 1.796619, -27.745865, -27.214081, -87.202179
1759224931.487108, 1.992724, 18.837279, -7.811382, -1.412287, 1.005681, 1.094718, -29.089706, -29.019180, -86.305069
1759224931.507128, 1.678934, 11.165359, -10.882844, -1.110023, 1.912987, 1.003914, -30.293488, -30.098099, -86.211304
1759224931.527138, 2.669086, 4.102764, -10.304794, -0.549141, 0.706903, 0.879889, -31.480148, -31.680008, -85.780945
1759224931.546924, 0.850091, 2.183811, -2.097021, -1.476760, -0.301361, 0.369027, -31.820175, -32.114227, -85.771240
1759224931.567136, -1.813159, 2.736572, 0.959626, -1.943650, 0.232896, -0.130285, -31.775711, -33.529892, -86.897522
1759224931.586793, -2.056021, 3.093009, -0.336984, -0.261339, -2.435996, -0.841515, -31.849518, -33.884491, -86.558563
1759224931.607105, -13.457209, 1.089212, -11.930756, 1.462838, -3.918560, -2.040098, -29.081100, -32.789780, -89.105453
1759224931.626907, -1.971475, 3.296516, -5.948095, 1.384754, 1.308373, -1.367556, -28.045563, -31.082245, -89.024338
1759224931.647095, 5.356577, 2.226757, -2.919130, 3.447311, 1.567296, -0.930369, -29.732300, -27.884308, -87.729523
1759224931.667085, 6.811803, 8.611644, -0.997035, 4.720386, 0.983004, -1.804681, -30.168777, -23.814301, -86.834991
1759224931.686733, 8.037036, 22.232557, 0.371401, 4.008976, -0.077470, -1.684423, -30.650040, -20.751160, -87.437515
1759224931.707100, 20.710293, 36.881629, 2.423082, 1.048189, -3.758512, 0.062738, -28.883850, -19.804062, -88.507202
1759224931.727167, 12.257564, 28.052262, 3.154959, -1.178308, -7.961699, -1.673157, -25.183853, -20.512756, -92.686890
1759224931.746970, 12.751518, 20.345327, -3.006519, -1.123221, -5.271711, -2.632066, -22.699814, -19.383972, -96.397141
1759224931.767081, 10.760889, 15.551387, -5.303755, 1.610057, 0.402853, -2.481890, -22.808289, -17.341507, -96.583527
1759224931.787083, 8.690503, 16.944513, -1.707365, 3.070073, 0.288367, -1.869629, -23.262177, -15.408005, -96.177109
1759224931.807159, 2.926463, 13.467833, 2.757073, 2.667204, 0.599310, -1.341608, -24.067230, -13.525970, -96.442215
1759224931.827078, 4.068048, 8.131756, 2.536806, 1.917636, 1.306525, -0.498325, -24.365372, -12.373077, -95.690994
1759224931.847153, 3.885640, 2.213589, 2.723255, 1.477305, 1.630506, -0.128643, -24.809464, -12.386429, -95.026566
1759224931.867072, 3.269881, -3.065925, 1.591994, 1.008736, 2.151330, -0.187439, -25.704147, -11.812454, -94.369186
1759224931.887118, 2.084901, -5.459827, 2.438794, 0.114160, 2.501245, 0.126535, -26.696503, -11.998749, -93.154572
1759224931.907087, 1.724873, -4.508880, 5.429451, -0.668340, 1.716016, 0.635261, -27.653839, -12.205627, -91.244217
1759224931.927073, 0.632518, -2.747945, 7.025186, -0.975478, 0.536895, 0.777242, -27.935699, -13.770325, -90.975998
1759224931.946404, -0.254683, -2.280627, 1.013047, 1.513607, -1.084509, 0.375898, -27.568527, -13.318253, -91.029724
1759224931.967065, -2.265364, -2.598906, -33.744926, 4.037517, 3.512672, -0.278513, -28.503860, -11.280472, -91.069229
1759224931.987150, 0.511162, 11.726351, -1.953220, -2.134025, -0.763292, -0.668507, -29.633331, -11.622391, -89.437424
1759224932.007143, -0.550666, 3.328240, 16.363321, -4.964684, -3.752116, -0.061084, -27.678436, -14.025742, -90.868484
1759224932.027076, 2.605490, 1.773954, 4.187459, -3.773383, -4.890039, 0.753372, -25.511719, -16.234070, -92.212143
1759224932.046828, 17.815404, 13.113042, -2.454057, -0.192508, -4.824783, 2.523477, -22.579208, -18.446686, -95.627808
1759224932.067061, 22.338051, 21.664532, -0.648829, 0.333035, 0.848048, 0.993581, -22.447510, -19.260666, -96.027039
1759224932.087061, 4.737227, 6.777835, 11.489624, -2.348587, 1.363499, 0.756506, -22.643311, -20.392181, -95.492996
1759224932.107099, 10.740538, 10.641777, 5.053412, -3.543399, 0.867688, 2.419492, -23.284119, -22.810715, -93.763489
1759224932.127078, 9.205556, 17.973571, 3.240402, -3.834295, 1.707034, 1.813339, -23.884369, -26.274277, -93.610138
1759224932.147080, 6.611887, 20.860081, 0.654515, -2.621583, 1.711224, 0.770678, -24.979172, -28.304138, -92.825485
1759224932.167064, 1.210419, 21.224149, -5.301960, -0.632838, 1.425603, 1.554066, -25.849945, -30.020218, -91.865005
1759224932.187056, 4.083760, 20.463840, -6.371120, -0.463657, 4.857364, 2.784289, -27.851227, -31.857132, -90.440887
1759224932.207073, 0.746542, 19.161544, -9.438541, -0.797323, 4.913183, 1.621619, -31.448868, -33.489304, -87.266495
1759224932.227070, 1.781735, 11.491569, -11.486631, -0.789250, 1.198390, 0.979587, -33.418777, -34.562881, -85.993958
1759224932.247052, 3.994277, 5.336376, -6.706009, -1.130380, -0.213488, 0.972463, -34.153015, -35.787033, -86.483093
1759224932.267149, 1.092654, 3.112462, -2.891447, -1.211879, -0.368867, 0.944491, -34.117325, -37.339310, -86.516998
1759224932.286911, -2.032228, 3.448399, 0.125995, -1.309022, -0.346137, 0.704600, -33.917953, -38.148895, -87.580826
1759224932.307069, -5.513547, 1.571045, -1.666963, -0.681402, -1.687696, 0.276287, -32.604614, -38.794815, -88.436646
1759224932.327149, -12.067674, 1.617134, -5.927744, 0.147764, -4.867315, -0.734917, -29.724792, -39.015259, -90.351242
1759224932.347188, -9.218724, 4.171597, -7.253832, -0.187587, -1.537482, -1.884392, -28.376266, -38.167923, -90.873627
1759224932.366431, 2.390760, 3.499126, -9.304167, 2.280047, 0.569007, -1.910650, -28.600739, -36.546875, -90.563248
1759224932.387127, 4.447978, 8.883087, 0.182259, 4.957087, 1.926595, -2.145314, -28.761536, -32.726746, -88.090500
1759224932.406889, 6.783671, 19.173365, 3.797802, 6.635592, 4.151634, -2.844829, -30.998291, -27.649094, -85.114304
1759224932.427121, 27.722012, 42.272773, 1.936460, 4.729401, 2.484047, 0.064446, -31.947617, -24.448959, -83.810440
1759224932.446686, 15.480459, 25.460240, 2.135628, 1.674096, -5.034123, -0.023943, -29.018433, -23.136154, -85.677536
1759224932.466318, 12.660987, 15.771504, 2.444031, -1.563697, -8.991913, -2.085363, -23.864212, -22.840652, -90.670792
1759224932.487047, 9.817125, 14.433744, -4.530129, -1.956200, -4.122822, -2.925515, -21.128525, -21.695282, -93.401138
1759224932.507106, 6.045509, 15.808165, -1.669357, 0.861165, -0.572009, -3.047012, -20.625046, -19.372726, -94.164658
1759224932.527039, 2.028637, 13.614328, 1.092654, 2.283437, -0.268464, -2.739758, -20.590805, -16.658356, -94.718979
1759224932.547028, 3.078794, 9.464878, 1.296909, 2.193542, 0.785719, -1.432452, -20.896667, -14.109329, -94.782364
1759224932.567021, 3.449596, 3.732111, 2.677166, 1.400535, 2.122310, 0.081160, -21.802597, -13.261765, -93.281631
1759224932.587044, 3.659986, -2.023699, 2.252794, 0.808072, 2.494317, 0.560085, -22.500931, -12.801285, -92.112976
1759224932.607047, 1.941997, -4.823119, 2.741511, 0.191868, 2.196339, 0.383030, -23.454559, -12.566452, -90.553497
1759224932.627043, -0.207398, -5.397428, 4.941782, -0.852998, 2.378114, 0.088952, -24.755508, -13.178421, -89.399124
1759224932.647036, 0.381576, -3.633351, 4.616919, -1.347295, 2.364114, 0.149583, -26.137741, -13.840012, -87.402542
1759224932.667017, 0.292093, -3.622876, -1.295712, -0.827101, 1.120670, 0.227794, -26.984802, -14.374741, -86.124664
1759224932.687030, -1.771410, 0.338929, -32.461634, 4.254711, 1.054956, -0.515749, -27.010300, -12.284805, -86.543457
1759224932.707039, -2.049137, 18.398243, -5.163694, 0.494260, 1.162825, -1.038354, -28.564651, -10.316895, -86.362579
1759224932.727045, -1.439813, 3.883096, 13.551780, -4.307641, -3.927885, -1.323493, -26.439697, -11.663559, -87.189697
1759224932.746995, 4.691737, 6.917597, 1.247678, -3.537177, -4.800456, -0.594199, -24.058319, -13.829773, -88.113815
1759224932.766409, 19.876961, 13.847314, 2.902820, -0.027117, -3.173067, 2.332489, -21.329620, -15.307861, -90.758560
1759224932.787076, 8.368782, 7.997831, 8.626009, 0.500991, -0.271510, 2.190992, -20.588348, -16.419983, -91.389709
1759224932.807090, 12.731018, 10.758944, 12.032360, -1.322852, -0.353590, 1.766936, -20.178833, -17.385483, -91.471527
1759224932.827040, 18.146103, 16.299126, 7.234679, -3.315807, 0.464164, 3.018133, -19.971481, -21.239243, -91.290573
1759224932.847025, 9.517401, 14.453197, -2.693178, -2.705263, 2.347917, 1.879290, -20.929596, -24.247360, -89.521317
1759224932.866811, 8.917803, 14.431948, -1.536479, -1.208495, 2.413455, 1.209458, -22.119690, -26.062668, -88.377625
1759224932.887030, 8.132804, 13.351266, 2.054973, -1.483682, 2.662981, 1.912473, -23.855972, -27.758377, -87.128799
1759224932.906296, 5.935076, 13.996653, -1.396119, -1.763080, 2.657451, 2.514887, -26.065521, -30.001556, -85.515335
1759224932.927014, -2.352153, 28.393735, -8.131008, -2.597848, 1.625507, 1.831579, -27.591324, -32.750732, -84.774078
1759224932.947019, -3.274071, 15.202881, -11.901427, -1.877639, 0.411520, 1.092338, -28.469864, -34.636978, -84.282288
1759224932.967016, -0.147094, 7.355885, -11.257686, -0.510521, 1.379071, 1.109757, -29.054031, -35.939758, -84.801086
1759224932.986323, 0.208445, 5.010615, -8.111106, 0.038247, 1.438867, 0.936528, -30.688782, -36.276520, -83.280045
1759224933.007007, -0.695815, 2.609081, -1.517774, -0.743133, 1.361076, 0.542642, -31.745758, -36.620773, -83.214630
1759224933.027139, -1.429937, 3.296367, 2.583793, -0.855583, 0.685964, 0.027438, -32.369949, -37.286530, -82.519714
1759224933.047013, -7.717410, 0.640000, -6.142474, 0.053514, -3.789700, -0.824314, -30.836151, -37.273666, -83.324539
1759224933.067052, -11.646594, 2.796128, -4.987571, -0.085310, -2.718156, -1.637715, -27.434631, -36.288193, -85.530029
1759224933.087009, -3.517082, 5.163395, -4.443938, 0.997371, 0.433202, -1.790364, -26.725082, -34.023605, -85.657150
1759224933.106775, 7.367707, 1.391929, -12.768876, 3.631387, 1.235381, -1.238641, -26.902496, -30.846939, -84.230072
1759224933.126517, 6.038476, 5.371990, -0.680701, 4.788084, 1.049305, -2.239604, -27.025681, -28.977783, -83.348999
1759224933.147001, 4.977396, 16.806996, 1.006014, 4.746973, 0.899305, -2.734319, -27.573212, -21.180984, -82.665894
1759224933.166984, 16.109835, 33.651103, 2.412607, 2.430167, -2.078438, 0.079245, -26.342667, -18.844421, -83.448868
1759224933.186993, 15.370924, 33.997065, 4.364630, -0.047692, -6.767940, -0.474522, -22.187424, -18.209885, -87.734314
1759224933.207011, 9.523386, 25.162012, -0.647183, -0.795282, -6.850395, -2.462836, -18.915222, -16.714035, -92.885941
1759224933.227003, 14.132224, 16.893487, -10.941651, 1.265850, -1.457862, -2.643670, -18.168671, -14.119644, -94.692459
1759224933.247004, 8.371775, 15.423746, -4.133140, 2.667642, 0.648212, -2.504836, -18.862610, -11.145752, -95.018204
1759224933.267002, 4.257938, 15.192856, 0.627281, 2.911308, 0.551421, -1.817211, -19.722122, -8.391006, -95.602814
1759224933.286994, 4.420295, 11.796232, 1.769016, 2.164402, 0.789599, -0.619901, -20.465790, -6.934540, -96.058548
1759224933.306999, 4.503643, 5.193772, 2.428020, 1.436818, 2.105385, 0.208417, -21.812500, -6.289810, -94.924103
1759224933.326993, 4.445733, -0.984167, 3.625420, 0.832211, 2.272398, 0.454949, -23.241684, -6.033356, -94.093018
1759224933.346992, 1.878850, -4.445434, 3.882348, -0.002364, 1.966279, 0.160362, -24.137589, -6.154495, -93.403351
1759224933.366989, -0.659902, -4.499004, 5.995380, -1.183687, 2.253583, 0.176351, -25.009445, -6.654739, -91.706940
1759224933.386992, -1.357363, -2.941726, 7.018153, -2.004198, 2.166090, 0.370587, -26.053192, -8.253586, -89.618301
1759224933.406269, -0.932093, -3.458724, 4.044256, -2.155616, 1.778643, 0.399976, -27.275284, -9.880814, -87.918579
1759224933.426992, -2.140865, -3.009661, -9.692925, 3.864723, -2.596699, -0.454907, -26.713730, -8.476440, -89.710190
1759224933.446986, 4.660014, 13.216592, -24.246828, 1.865251, 2.758941, -0.205180, -27.870697, -7.050034, -89.512939
1759224933.466976, -1.748216, 13.951911, 0.167295, -2.890064, -2.559264, -0.814609, -27.786026, -7.095901, -89.563034
1759224933.486153, 2.147300, 0.829142, 7.513454, -2.999231, -4.549766, 0.098878, -25.264374, -8.851898, -91.061600
1759224933.506805, 9.202264, 5.766584, 2.352004, -1.561351, -4.919127, 2.070552, -22.530991, -10.990082, -93.643967
1759224933.526993, 14.963910, 8.804078, 6.219088, -0.598113, -1.086504, 2.391440, -20.752121, -12.797836, -94.846664
1759224933.546987, 5.109675, 4.929811, 9.062801, -1.787277, 1.199843, 0.836915, -20.715134, -14.164597, -94.512833
1759224933.567043, 13.650990, 11.672182, 11.185561, -3.823291, 1.667668, 2.452501, -21.391525, -17.553284, -93.313812
1759224933.586546, 18.913894, 19.614497, 7.022642, -3.833349, 2.754000, 2.917835, -22.434738, -21.356308, -91.436142
1759224933.606979, 11.855937, 19.748722, 1.927632, -2.358732, 3.299977, 1.562366, -24.511093, -24.351410, -89.368240
1759224933.626971, 4.709095, 21.283405, -6.259191, -0.011328, 0.149932, 1.322778, -24.966141, -25.504745, -88.551392
1759224933.646966, 4.684704, 21.448156, -6.108506, -1.805167, 3.052331, 2.548735, -26.226349, -27.178894, -88.075684
1759224933.666958, 0.224756, 24.041226, -3.141342, -3.218765, 2.696692, 1.811457, -28.921188, -30.299561, -86.418716
1759224933.686960, -2.616862, 16.419884, -12.654703, -1.407054, -0.037108, 1.005756, -29.385223, -32.323425, -86.625809
1759224933.706730, 0.336086, 6.928969, -11.566388, -0.257959, 1.766280, 0.970092, -30.142014, -33.098587, -85.848618
1759224933.726252, 2.723255, 2.909404, -7.129334, 0.018727, 2.119963, 1.133398, -31.631897, -34.060043, -85.108719
1759224933.746067, -1.121983, 2.422932, -1.445499, -0.337934, 1.055273, 0.820262, -32.292725, -34.503128, -85.037323
1759224933.767018, -1.828422, 4.763414, 2.207005, -1.089201, 0.110991, 0.196765, -32.647461, -35.512100, -85.074356
1759224933.787054, -6.555474, 2.381333, -3.418172, -0.753085, -2.823259, -0.050734, -30.817352, -36.067184, -86.543747
1759224933.806972, -11.432163, 5.944055, -5.291335, -0.685571, -4.809779, -1.139084, -27.934067, -35.855591, -88.938843
1759224933.827081, -3.191471, 4.548085, -9.985916, -0.137455, -1.661748, -2.338706, -26.378189, -34.782486, -90.504333
1759224933.846961, 9.705794, 0.047285, -14.069376, 3.091640, 0.462004, -1.481666, -26.521240, -32.265915, -89.677368
1759224933.866951, 9.286360, 8.010699, 0.448314, 4.696495, 1.175419, -1.480677, -26.821655, -29.022949, -88.205597
1759224933.887031, 9.567978, 21.831378, 2.806154, 5.696525, 2.176726, -2.434937, -27.828049, -24.606308, -86.938126
1759224933.906962, 22.210111, 39.959675, 3.674501, 4.203679, -0.447523, -0.391728, -27.599869, -21.793564, -87.403137
1759224933.927090, 12.410943, 25.664196, 5.294478, 0.995169, -6.317829, -0.339590, -23.809708, -20.875580, -90.769333
1759224933.946958, 8.981698, 20.321684, 0.772729, -1.596914, -8.808959, -1.978001, -20.171661, -20.239761, -96.314224
1759224933.966932, 9.712528, 16.888998, -6.761375, -0.711898, -3.713028, -2.426091, -18.779083, -19.013565, -99.472565
1759224933.986999, 5.933131, 14.181605, -1.155801, 1.499937, 0.446339, -2.448848, -18.763733, -16.356430, -99.830902
1759224934.006955, 3.895366, 12.461670, 1.591994, 2.739926, 0.780002, -2.124956, -19.178818, -14.042801, -99.107361
1759224934.026739, 3.958962, 9.505878, 2.936788, 2.607638, 0.797971, -1.337507, -19.781754, -11.751160, -99.374680
1759224934.047015, 4.317045, 4.253299, 3.982904, 2.051419, 1.910844, -0.455761, -20.899307, -10.580276, -98.745789
1759224934.067005, 3.957017, -1.905036, 5.075857, 0.897921, 2.201152, 0.028208, -21.844757, -10.232544, -96.582703
1759224934.087013, 0.697162, -6.535572, 3.807828, -0.486145, 2.320257, -0.240380, -22.413925, -10.198273, -95.894440
1759224934.106948, 0.702698, -4.649240, 5.617994, -1.420280, 3.216580, 0.089860, -24.264404, -10.684906, -92.654846
1759224934.127167, -0.209642, -4.018817, 5.215768, -1.850613, 4.187538, 0.392588, -26.209229, -12.070404, -90.096344
1759224934.146988, -3.606715, -5.778406, -12.734908, 0.091080, 1.158208, -0.095610, -27.292770, -12.332550, -88.689117
1759224934.166809, 2.993949, 11.885715, -28.338968, 3.473567, 0.710445, -1.229141, -26.900879, -9.732315, -90.237747
1759224934.186958, 0.257526, 12.395829, 6.754492, -1.410704, -3.558978, -0.905174, -26.295059, -9.239182, -90.588913
1759224934.206748, 2.093580, -1.553238, 8.300697, -2.973701, -3.696589, 0.132205, -24.285446, -10.568314, -92.598953
1759224934.226932, 5.062240, 2.069338, -0.572065, -0.888599, -2.214174, 0.931237, -22.810242, -11.689163, -93.966187
1759224934.246935, 15.706412, 10.937012, 7.444770, 0.239698, -4.552540, 2.471868, -20.540634, -13.010086, -96.473862
1759224934.266940, 13.387328, 15.962142, 9.142259, -1.012814, -0.659584, 3.114929, -19.276108, -15.285339, -98.223755
1759224934.286935, 7.247099, 9.968708, 9.358336, -3.041031, 1.839837, 0.758292, -19.251648, -17.237793, -97.080978
1759224934.306162, 16.916381, 17.831116, 1.723676, -3.852611, 2.220281, 1.944064, -20.086456, -19.555908, -94.786880
1759224934.326933, 8.800936, 17.888278, -0.075417, -2.397940, 0.899442, 1.697625, -20.151627, -22.352615, -94.273926
1759224934.346066, 9.557054, 15.589096, 4.023456, -1.988774, 2.154013, 1.725484, -21.009155, -24.550659, -93.202133
1759224934.366921, 6.417209, 17.464803, 2.209399, -1.889922, 3.451224, 1.992106, -22.893860, -27.155441, -90.898773
1759224934.386926, 2.722207, 18.866010, -9.428067, -0.832664, 0.710800, 2.365315, -24.253967, -28.579269, -89.549973
1759224934.406571, 0.634164, 21.809830, -5.030068, -2.287034, 2.492643, 2.312019, -25.113998, -30.988678, -88.881073
1759224934.426956, -2.745551, 12.889933, -9.973496, -1.919211, 1.596517, 1.593669, -26.839798, -33.563232, -87.720230
1759224934.446987, 0.249296, 6.132897, -9.931148, -0.117038, 1.243992, 1.105245, -28.097977, -34.215637, -87.411499
1759224934.466914, 0.819565, 3.842544, -3.458574, 0.155306, 1.685379, 0.977869, -29.171371, -34.694031, -86.640564
1759224934.486926, -2.934543, 2.702156, 1.052401, -0.907967, 0.890556, 0.634690, -30.186996, -35.812408, -86.358231
1759224934.506928, -2.768745, 3.131616, -1.554585, -1.015939, -0.758572, 0.366704, -30.049057, -36.377594, -86.574646
1759224934.526926, -5.585373, 2.124106, -3.429395, -0.386230, -3.888768, -0.197923, -27.911469, -36.376129, -88.610397
1759224934.546914, -11.124957, 3.187431, -7.786393, -0.025017, -2.782202, -1.923455, -25.664429, -35.193054, -90.372498
1759224934.566910, -1.012747, 4.526837, -7.871836, 1.913379, -0.287697, -1.804993, -25.116592, -32.623108, -89.929886
1759224934.586949, 6.730251, 2.306065, -9.337985, 4.412604, 0.923739, -1.551182, -25.085632, -29.739029, -88.971695
1759224934.606570, 5.364957, 10.508450, -0.240318, 5.422700, 2.565865, -2.841549, -26.442429, -24.965637, -86.659393
1759224934.626945, 9.414151, 26.966492, 0.316035, 3.968346, 1.023663, -2.293102, -27.553589, -21.226212, -87.065460
1759224934.646985, 15.857995, 30.684986, 4.506486, 1.265762, -3.734103, -0.407786, -25.651169, -20.064575, -88.783081
1759224934.666986, 9.564686, 22.173150, 6.646753, -0.844802, -8.106179, -1.332639, -21.522446, -19.985718, -93.612930
1759224934.685979, 10.836905, 22.059875, -2.140566, -0.549856, -5.302233, -2.617085, -19.285645, -18.487671, -97.549179
1759224934.706917, 9.253889, 19.411289, -6.132897, 1.123156, 0.095523, -2.697970, -19.340607, -16.287155, -98.367874
1759224934.726667, 5.459827, 18.480992, -2.636615, 2.262683, 0.933966, -2.426175, -20.183350, -13.899628, -97.260025
1759224934.746947, 2.859575, 15.948525, 1.053149, 2.253040, 0.760460, -1.853707, -20.924194, -11.568878, -97.428040
1759224934.766919, 4.034679, 10.536133, 2.381782, 1.559197, 1.287142, -0.843089, -21.958801, -9.849411, -96.532791
1759224934.786998, 3.766977, 4.281581, 3.546860, 0.813171, 1.813000, -0.210252, -22.538132, -9.455185, -96.131302
1759224934.806649, 4.457704, -1.292869, 2.867356, 0.205815, 1.540752, 0.134800, -23.244949, -9.391785, -95.337921
1759224934.826896, 4.167856, -5.011064, 2.927959, -0.790640, 1.919950, 0.345685, -24.009644, -9.972549, -93.542709
1759224934.847089, 2.322825, -4.951209, 5.248090, -1.299565, 3.003847, 0.880556, -25.069183, -10.676315, -91.637024
1759224934.865979, 0.691625, -4.528932, 5.308693, -1.304314, 3.387069, 0.935364, -26.813171, -12.421799, -89.303543
1759224934.886923, 0.029030, -4.447678, 0.513107, 1.590952, 1.062530, 0.748796, -27.692154, -12.572281, -88.247772
1759224934.906902, -2.554314, -6.110152, -30.728531, 4.316494, 3.615047, 0.217653, -28.410355, -9.841156, -87.978363
1759224934.926963, 1.938854, 13.351714, -3.925144, -1.145362, 0.696696, -0.446953, -30.286270, -10.000427, -86.854584
1759224934.946991, -4.130746, 7.022792, 10.916662, -4.045063, -3.180528, -0.708584, -28.665314, -11.502335, -87.455383
1759224934.967061, 0.146495, 3.419668, 3.328539, -1.852886, -9.091939, -0.614548, -25.423157, -12.617447, -91.080704
1759224934.986919, 14.591163, 13.238439, 8.824429, -0.926472, -3.739588, 1.919519, -21.517395, -14.254272, -94.490555
1759224935.007088, 14.926650, 16.187048, 7.508665, -0.378484, 2.024718, 0.501294, -21.839798, -14.874146, -93.453766
1759224935.026895, 1.740435, 3.996970, 5.348796, -1.438896, 1.871769, 0.239589, -22.701263, -15.467422, -91.705551
1759224935.047014, 16.699856, 12.436681, 3.454384, -1.797300, -0.086656, 3.001579, -23.107712, -17.663681, -91.461670
1759224935.066942, 8.563311, 20.597167, -0.631920, -1.526093, 1.521522, 2.198411, -23.098022, -20.162964, -91.328568
1759224935.086907, 7.851335, 15.543008, 3.651158, -1.668414, 4.084037, 1.276446, -24.987762, -21.948959, -88.790955
1759224935.106906, 7.511508, 16.303765, 4.452467, -2.071880, 4.067532, 1.655452, -27.603012, -23.911530, -86.062057
1759224935.126367, 4.342034, 17.563115, -7.574955, -1.892676, 0.738415, 2.178115, -29.001129, -26.406189, -85.293076
1759224935.146911, 1.623718, 22.798336, -3.460818, -3.094690, 1.535314, 1.550674, -29.752838, -28.990280, -84.947769
1759224935.166904, 1.332224, 15.305383, -10.230424, -1.882290, 1.531018, 1.466087, -31.195602, -31.295334, -84.312622
1759224935.186937, 3.853916, 6.741773, -11.866861, 0.096721, 1.673879, 1.333160, -32.604263, -32.359390, -83.645111
1759224935.207069, 1.934814, 3.713407, -5.068525, -0.058000, 1.771611, 1.012513, -33.608612, -32.684555, -82.746078
1759224935.226580, -2.104054, 1.282245, 0.332345, -1.361159, 0.081373, 0.644156, -35.082672, -33.862167, -83.023315
1759224935.246874, -3.376273, 3.256414, 0.605733, -1.212028, -2.014906, 0.304135, -34.425507, -34.697266, -83.328430
1759224935.266882, -8.527398, 2.524985, -4.452168, -0.400082, -5.183732, -0.643615, -31.696579, -35.310410, -85.135910
1759224935.286527, -10.301202, 3.765032, -9.682002, -0.336538, -4.118344, -1.595715, -28.880859, -34.993866, -87.632843
1759224935.306905, 2.569128, 3.287987, -10.991181, 1.116615, -0.650327, -2.054707, -28.233505, -32.827240, -87.270035
1759224935.327009, 6.728604, 2.285864, -6.503400, 3.715863, 0.278939, -1.227592, -28.209381, -30.704224, -87.247360
1759224935.346868, 4.459201, 12.159252, 1.074847, 5.046807, 1.438081, -2.370651, -28.636642, -25.924026, -85.930603
1759224935.366850, 9.033622, 26.556634, 3.623026, 4.400651, 1.722122, -3.052660, -29.920212, -21.550446, -85.414062
1759224935.386890, 19.297415, 36.252253, 4.304326, 1.890412, -1.421958, -0.508006, -29.587265, -19.942932, -85.761795
1759224935.406874, 8.990676, 25.499445, 3.460220, -0.932525, -6.987508, -0.674649, -25.757019, -19.658463, -88.920929
1759224935.426868, 8.741230, 20.553623, -6.049399, -1.710717, -7.635667, -2.885708, -21.789352, -19.748428, -93.786118
1759224935.446135, 12.239907, 19.770868, -9.461586, 0.741023, -0.849083, -2.860669, -21.372345, -17.020813, -95.478302
1759224935.466860, 7.380875, 16.261867, 0.641646, 3.156915, 1.007357, -1.687212, -21.956940, -15.103409, -94.853378
1759224935.486867, 3.559729, 10.910676, 3.086724, 2.950590, 0.574043, -1.249965, -22.427032, -12.881622, -94.604462
1759224935.506869, 4.531027, 7.381473, 2.926014, 1.829577, 0.927766, -0.579902, -23.041595, -11.047134, -94.991089
1759224935.526868, 4.297592, 2.445078, 3.255216, 0.901440, 0.990667, -0.087493, -23.465073, -10.979645, -94.420456
1759224935.546611, 5.604527, -2.616563, 3.412486, 0.230508, 0.809357, 0.150682, -23.993256, -10.828827, -94.498215
1759224935.566839, 4.213196, -5.287894, 3.279757, -0.496635, 0.594853, 0.359142, -24.363022, -11.207001, -93.899597
1759224935.586924, 0.852037, -3.478925, 5.978022, -1.301754, 2.195253, 0.593347, -25.059067, -11.956024, -92.563324
1759224935.606868, -0.226402, -3.344550, 4.256292, -1.416513, 3.663081, 0.851764, -26.595016, -13.088913, -90.178894
1759224935.626959, -0.899172, -2.158522, 1.926135, -1.562241, 3.370043, 0.837258, -29.140182, -14.581528, -87.456543
1759224935.646846, -10.075249, 0.720206, -30.920815, 4.209880, -3.657451, -1.152044, -28.299759, -12.773895, -88.876404
1759224935.666844, 3.815160, 13.960440, -3.707122, 0.931824, 1.503567, -0.623682, -28.031433, -11.124161, -89.620285
1759224935.686871, -2.787150, 6.060173, 5.896021, -2.825087, -1.206683, -1.009911, -28.093918, -11.967850, -89.216705
1759224935.706857, 1.428590, -0.574758, 3.867683, -3.015701, -1.760983, -0.381746, -27.746338, -13.452240, -89.315750
1759224935.726847, 3.476530, 4.505588, -1.245883, -0.657228, -4.140390, -0.247215, -25.738968, -14.309570, -90.499161
1759224935.746920, 16.818518, 13.299042, 8.904335, -0.115388, -3.491374, 1.671899, -23.779037, -14.773270, -93.025513
1759224935.766843, 10.315567, 13.215245, 9.528174, -1.050129, -0.372726, 2.465898, -22.665833, -16.872757, -93.958496
1759224935.787051, 9.741707, 11.958289, 4.447230, -1.872914, 1.648520, 1.656008, -22.942551, -18.461899, -93.061401
1759224935.806878, 16.205752, 24.729859, -8.875156, -0.474540, 1.962715, 2.720759, -23.883942, -21.015366, -91.934753
1759224935.826967, 7.349750, 17.360356, 5.472696, -0.987616, 2.766743, 1.432421, -25.386673, -22.552750, -90.152435
1759224935.846920, 3.946243, 17.810765, -0.759560, -1.543848, 2.994090, 1.207791, -27.367813, -24.050934, -88.438309
1759224935.866837, 6.094440, 15.993117, -2.649184, -1.767250, 2.718670, 2.262490, -28.671921, -25.966995, -86.998703
1759224935.886943, 6.685509, 18.255638, -2.718466, -1.976803, 3.674452, 2.352753, -32.270065, -29.939987, -84.802505
1759224935.906845, 2.926612, 19.968689, -9.804705, -2.613611, 1.783398, 1.546518, -33.637100, -31.856506, -84.184982
1759224935.926825, 0.765097, 12.478280, -10.383802, -2.003865, -0.754537, 1.269234, -33.465729, -33.073776, -84.543213
1759224935.946169, 0.275932, 9.160066, -8.753800, -1.058765, 0.133554, 1.229236, -33.815933, -34.681229, -84.592178
1759224935.966842, -3.950582, 3.836708, -4.572177, -0.771654, 0.593237, 1.014490, -34.448502, -36.142883, -84.262024
1759224935.987026, -3.294272, 2.975394, -2.260725, -0.754364, 0.253874, 0.463838, -34.941788, -36.677231, -84.440247
1759224936.006909, -2.797774, 1.606809, -2.898480, 0.126300, -0.291367, -0.023132, -34.624649, -36.588501, -84.446167
1759224936.026827, -7.990049, -0.265906, -6.476764, 1.286014, -2.850669, -0.550349, -32.312820, -35.724991, -85.661438
1759224936.046590, -6.316652, 2.657265, -6.184073, 1.163899, -1.285424, -1.597134, -31.702621, -34.462555, -86.011215
1759224936.066822, 1.821389, 4.002656, -7.007080, 2.174962, -0.417539, -1.400960, -30.630447, -32.298019, -85.833466
1759224936.086900, 8.241890, 2.420089, -7.638251, 3.778728, -0.494543, -1.401414, -30.466156, -29.618454, -85.737869
1759224936.106905, 7.252935, 12.078448, 0.661847, 4.400753, 0.315057, -2.862596, -30.455750, -25.296738, -84.766815
1759224936.127055, 8.966584, 24.519618, 4.617218, 3.526182, -0.373644, -1.797838, -29.729370, -22.090393, -84.880325
1759224936.146976, 20.256592, 35.705627, 4.588787, 1.233257, -3.415650, 0.147667, -28.167328, -20.911285, -86.210175
1759224936.166899, 11.749096, 24.508395, 0.761356, -0.564801, -7.808463, -1.548370, -23.563766, -20.708618, -90.641998
1759224936.186817, 10.666617, 16.898425, -3.634099, -1.227812, -5.549037, -2.372183, -20.255096, -19.514923, -94.788818
1759224936.206873, 6.707057, 15.533880, -4.874595, -0.021587, -0.103888, -2.618221, -20.072708, -17.438019, -95.246353
1759224936.226891, 1.841141, 16.113276, -1.246032, 1.304778, 1.166424, -2.462124, -20.558807, -15.342377, -94.730087
1759224936.246543, 2.135179, 14.673613, 1.984195, 1.559838, 1.249057, -1.442648, -21.441299, -13.217575, -93.844894
1759224936.266216, 3.412934, 9.228301, 3.570204, 1.329126, 1.934412, -0.430415, -22.421249, -12.493027, -93.050171
1759224936.286942, 2.963273, 3.249829, 4.544943, 0.772883, 1.710351, 0.183048, -23.009476, -11.872635, -92.257278
1759224936.306898, 4.905719, -2.246509, 3.902249, 0.256318, 1.056488, 0.290720, -23.368942, -11.587082, -91.233261
1759224936.326842, 3.383306, -4.933253, 3.381361, -0.543609, 2.244651, 0.136947, -24.896881, -11.714188, -90.322540
1759224936.346256, 1.920898, -4.250007, 4.077176, -0.828581, 3.818714, 0.419297, -26.670212, -12.459747, -87.701401
1759224936.366608, 0.722899, -3.827431, 3.239654, -0.925416, 4.238250, 0.567006, -29.180313, -13.183899, -85.025482
1759224936.386822, -0.407613, -2.752284, -0.733075, 3.314679, 1.414903, -0.082198, -30.683975, -12.719482, -83.954895
1759224936.405966, -2.346168, 2.927211, -34.301428, 3.580076, 3.939345, -0.480347, -32.856171, -9.330338, -83.679611
1759224936.426831, 3.412785, 12.496087, 1.927931, -1.186980, -1.863217, -1.193555, -33.108765, -8.750076, -84.089813
1759224936.446821, -0.900070, 4.476559, 9.876381, -3.422847, -4.591724, -0.570501, -30.546371, -10.143768, -84.804565
1759224936.466804, 1.606958, 1.187674, 3.302352, -1.998747, -5.765449, -0.077029, -26.864029, -11.629303, -86.612427
1759224936.486828, 9.032874, 6.347178, 1.753603, -0.160663, -3.586343, 1.144692, -24.280533, -12.600159, -89.331360
1759224936.506818, 19.019239, 14.720899, 8.313117, -0.250144, 0.270356, 2.144584, -23.436432, -13.757553, -90.052811
1759224936.526810, 10.492738, 13.187263, 9.926959, -1.857944, 2.482814, 1.653433, -23.749512, -15.291138, -89.159653
1759224936.546088, 15.594034, 17.817649, 8.952668, -2.627743, 2.909642, 2.230531, -25.400574, -17.849655, -86.999008
1759224936.566804, 10.465055, 16.928652, 1.909974, -1.463699, 2.741612, 1.444993, -27.079773, -20.296478, -84.590088
1759224936.586103, 2.809296, 17.443106, -6.065261, -0.003837, 0.298314, 1.024885, -27.929901, -21.121597, -84.416901
1759224936.606812, 4.916493, 19.472491, -2.494160, -2.236098, 3.183381, 2.207065, -28.559586, -22.611282, -83.248917
1759224936.626814, 5.283704, 18.331504, 2.000206, -3.150983, 4.819414, 2.583474, -31.925476, -25.963089, -81.600250
1759224936.646812, 0.728885, 19.369241, -7.815273, -2.328992, 1.258594, 1.592439, -34.363586, -28.577850, -79.872086
1759224936.666045, -1.319654, 14.057555, -11.975797, -1.427318, 0.502063, 1.082720, -34.939362, -30.411209, -79.975021
1759224936.686796, -1.589301, 8.750957, -7.397036, -0.932083, 1.297509, 0.912861, -36.095657, -31.595764, -79.757874
1759224936.706620, -1.634791, 5.294927, -5.308394, -0.664304, 1.252497, 0.719155, -36.995773, -32.096710, -79.044037
1759224936.726810, -3.029264, 2.473809, -4.441992, -0.225182, 0.144062, 0.185346, -37.820923, -32.739532, -79.348541
1759224936.746797, -2.381183, 3.151218, -4.290858, 0.390504, -1.310053, -0.609511, -37.410629, -32.154907, -79.932266
1759224936.766240, -6.335955, 0.398934, -6.113444, 0.679316, -2.194742, -1.137290, -35.364014, -31.284897, -80.859970
1759224936.786791, -1.405097, 2.833089, -6.751499, 1.380039, -1.799612, -1.935677, -33.365372, -29.720230, -80.951370
1759224936.806702, 3.955520, 2.917035, -5.503073, 1.870474, -1.128948, -1.637459, -32.325302, -27.405563, -81.639923
1759224936.826798, 5.090372, 5.228488, -4.771943, 3.542956, 0.001966, -1.542617, -32.455505, -24.275223, -81.635086
1759224936.846794, 8.224382, 18.039412, -0.222511, 4.762262, 1.114966, -2.263516, -33.347794, -19.669647, -81.932510
1759224936.866641, 17.574937, 33.505206, 4.095731, 4.542653, 1.452272, -1.265334, -34.719162, -16.137878, -82.563858
1759224936.886791, 15.376760, 30.682143, 7.494749, 1.893463, -2.701554, 0.452277, -33.612198, -14.815872, -83.498352
1759224936.906074, 7.095217, 17.823485, 5.351939, -1.219265, -7.878742, -1.805957, -29.107437, -14.685623, -87.216690
1759224936.925909, 11.341782, 14.847791, -8.514679, -2.402088, -7.402506, -2.503180, -24.911865, -14.949127, -90.677933
1759224936.946790, 4.692486, 15.442301, -6.642713, -0.380190, -1.423145, -2.489622, -24.304199, -14.226883, -92.400146
1759224936.966765, 1.737143, 15.698182, -2.753033, 2.167235, 1.383180, -2.218025, -25.145935, -12.344238, -91.887955
1759224936.985801, 2.006790, 12.533197, 2.439243, 2.594082, 1.378533, -1.307637, -26.311325, -10.057953, -91.651535
1759224937.006490, 3.197905, 6.967426, 3.897611, 1.756477, 1.798812, -0.282534, -27.356125, -8.478485, -91.347092
1759224937.026705, 4.610634, 2.064400, 5.053711, 0.932723, 2.028630, 0.414617, -28.599731, -8.473038, -90.843811
1759224937.046815, 4.106954, -3.053954, 3.633949, 0.101260, 1.523042, 0.440824, -29.100403, -8.183182, -89.512161
1759224937.066908, 2.723105, -5.812373, 2.302923, -0.657219, 1.074441, 0.202183, -29.372818, -9.068542, -88.722641
1759224937.086808, 1.503708, -5.203199, 2.780865, -1.420228, 1.611116, 0.657229, -30.227707, -10.333847, -87.686188
1759224937.106808, 0.329203, -4.200477, 4.012083, -1.790334, 2.920506, 0.803459, -31.500168, -11.757858, -84.919846
1759224937.126978, -0.513407, -1.684022, -1.064372, -1.703862, 2.553532, 0.522814, -33.122345, -13.451370, -84.002380
1759224937.146842, -3.524414, 11.353304, -37.068526, 5.102834, -0.331845, -1.580412, -33.168350, -9.837189, -84.862625
1759224937.166951, 0.790835, 18.218678, 0.474650, -0.444232, 0.256601, -1.267462, -34.589569, -8.977097, -84.313217
1759224937.186778, 0.753575, 0.981174, 12.277765, -3.315927, -4.345137, -1.041679, -32.551712, -10.442780, -85.047043
1759224937.206778, 4.429722, -1.116596, 3.093757, -1.221803, -2.634077, 0.136136, -30.364792, -11.524139, -86.552628
1759224937.226829, 12.174964, 8.111555, 5.263503, 0.175789, -2.765781, 1.102467, -28.619644, -12.292511, -87.824829
1759224937.246768, 16.367062, 17.789218, -0.967257, 0.746407, -1.856744, 3.182677, -26.606873, -13.139206, -88.714691
1759224937.266773, 4.211850, 4.269610, 5.091419, -0.624204, 1.714239, 1.375763, -26.608032, -14.893875, -88.254242
1759224937.286774, 14.481329, 14.318523, 6.414665, -2.872932, 2.197694, 1.935145, -27.827225, -16.746933, -86.843338
1759224937.306774, 9.153781, 22.998851, 1.490839, -3.279413, 0.809925, 2.216613, -28.109314, -19.906113, -85.513824
1759224937.326761, 8.505701, 17.948731, 2.889352, -2.745793, 1.036922, 1.263544, -29.193481, -23.950790, -85.315430
1759224937.346770, 5.977424, 16.452655, 0.857872, -2.208637, 1.392922, 1.266141, -30.007233, -26.085449, -84.124344
1759224937.366699, 3.708618, 15.740978, -4.079720, -1.443172, 1.105102, 2.097013, -31.215164, -27.979034, -83.865417
1759224937.386840, 4.372560, 23.615058, -5.288043, -2.234401, 2.824501, 2.798108, -33.410248, -30.901917, -82.853012
1759224937.406768, -0.048483, 23.523630, -10.998514, -2.621860, 1.946235, 1.718760, -34.812317, -32.799240, -82.311966
1759224937.426765, -0.078859, 11.169849, -12.140847, -1.112299, -0.190614, 1.204888, -34.810013, -34.218094, -82.881821
1759224937.446846, -1.608305, 4.498555, -6.750601, -0.655843, 0.467841, 1.044150, -35.289062, -35.263367, -82.136154
1759224937.466765, -3.240552, 2.915090, -2.219724, -0.835261, 0.565168, 0.758940, -36.139374, -35.857544, -82.673386
1759224937.485824, -2.632125, 2.531868, -1.013645, -0.682642, 0.544023, 0.371704, -35.935425, -36.753815, -82.079437
1759224937.506763, -8.449736, -0.784550, -5.960365, 0.235291, -2.784007, -0.056156, -33.932297, -36.080643, -82.913040
1759224937.526757, -8.255806, 2.568978, -4.623203, 0.609417, -3.594304, -1.443909, -30.789459, -35.286713, -84.806107
1759224937.546775, 1.699135, 6.402544, -6.163723, 1.076239, -0.538233, -1.936680, -30.067535, -33.577316, -84.294037
1759224937.566735, 6.888268, 6.241384, -6.875698, 3.167184, 0.289081, -1.543358, -29.184235, -30.340057, -83.982651
1759224937.586220, 6.304083, 9.622446, -2.060659, 4.529754, 1.345260, -2.497002, -29.772766, -26.475784, -83.588562
1759224937.606749, 6.571335, 19.185486, -0.156820, 4.389053, 0.492294, -2.657069, -30.234177, -22.050858, -82.802368
1759224937.626755, 13.817985, 27.646595, 3.415478, 2.382860, -2.461021, -0.800696, -28.638916, -19.220032, -83.694870
1759224937.646750, 14.229040, 26.672005, 7.753173, -0.498484, -5.950667, -0.634783, -25.157379, -19.017456, -87.071732
1759224937.666755, 9.946262, 24.574086, 2.068141, -1.298812, -6.180219, -2.298880, -21.709686, -18.074814, -90.874756
1759224937.686658, 10.019285, 20.065654, -8.046762, 0.641368, -1.451789, -2.938110, -21.184464, -16.327576, -93.058884
1759224937.706744, 4.997148, 16.670677, -4.297293, 2.071691, 0.771362, -2.689542, -21.601822, -13.238235, -92.608704
1759224937.726750, 2.669086, 13.052439, 1.356315, 1.964617, 0.888662, -1.696169, -22.646500, -10.989059, -92.763535
1759224937.746749, 3.182642, 8.504952, 3.162591, 1.587694, 1.723836, -0.581916, -23.569717, -9.960205, -92.037888
1759224937.766745, 4.495263, 3.426103, 2.931999, 1.181215, 1.924866, 0.333205, -24.669556, -9.221710, -91.295776
1759224937.786750, 4.195988, -1.476923, 3.847033, 0.006287, 1.699290, 0.373649, -25.696823, -9.027939, -89.882996
1759224937.805819, 1.774702, -4.934150, 3.503316, -0.715140, 1.735241, 0.242239, -26.153915, -9.660965, -89.127853
1759224937.826765, 1.317260, -4.543147, 4.387524, -0.440719, 2.982896, 0.357095, -27.915955, -10.074219, -87.530304
1759224937.846735, 0.457293, -4.604349, 4.850054, -0.561375, 2.948037, 0.188366, -29.822205, -10.385666, -85.571426
1759224937.866732, -0.196025, -3.604321, 2.742558, 0.122076, 1.695215, -0.070315, -31.385406, -10.617554, -84.868088
1759224937.886742, 1.591546, -4.203021, -33.239151, 4.568771, 3.145052, -0.017287, -32.312576, -7.863907, -85.179214
1759224937.906744, -0.098611, 11.756578, -6.845771, -0.620223, -0.774850, -0.785931, -33.339478, -6.634354, -85.043716
1759224937.926854, -1.124976, 8.678831, 8.886379, -3.581741, -4.936345, -0.526706, -30.864380, -8.982468, -86.154266
1759224937.946736, 2.132037, 3.331681, 4.166061, -3.065616, -6.243493, 0.306339, -27.480026, -10.701630, -88.069519
1759224937.966715, 14.346056, 9.669732, 3.807978, -0.616391, -2.809453, 2.437999, -24.582855, -12.764694, -90.531296
1759224937.986751, 12.888436, 10.376320, 6.922086, -0.285676, 0.649858, 1.590825, -23.938690, -14.247665, -90.984024
1759224938.006610, 7.301118, 9.028983, 9.601796, -2.247693, 1.567701, 1.986053, -24.274475, -15.667313, -89.566940
1759224938.026737, 17.959206, 19.801394, 8.131607, -2.318635, 1.932609, 3.142543, -25.262543, -19.281677, -88.129501
1759224938.046720, 5.109226, 24.983943, -6.347478, -0.972681, 2.583872, 1.634667, -26.349426, -21.152298, -87.773743
1759224938.066731, 8.484003, 17.864934, 4.255394, -1.250784, 4.199916, 1.381429, -28.415298, -22.650864, -84.826721
1759224938.086750, 1.593341, 15.389629, -0.852186, -1.660142, 3.170675, 1.758528, -30.867828, -24.544067, -83.137238
1759224938.106734, 1.869871, 19.076849, -6.668600, -2.421149, 2.067329, 1.719855, -33.386032, -26.774368, -81.917099
1759224938.126749, 1.154903, 21.730223, -5.864298, -2.431335, 1.330249, 1.143054, -34.190704, -29.591644, -82.037445
1759224938.146731, 1.449839, 10.979510, -10.443208, -1.061930, 1.485630, 1.042765, -35.849014, -30.884827, -81.144043
1759224938.166725, 2.779219, 3.344550, -8.911667, -0.094592, 1.153543, 0.911449, -36.626984, -31.686783, -79.975464
1759224938.186724, 1.348983, 1.701828, -1.226879, -0.713144, 0.654438, 0.627359, -37.347107, -32.122849, -80.580032
1759224938.206729, -0.805798, 1.442806, -0.237924, -0.865568, -0.693775, 0.531930, -37.727905, -32.817825, -80.594742
1759224938.226790, -5.387253, 0.722151, -4.624101, -0.193545, -3.492707, -0.288013, -36.477615, -33.509796, -81.158875
1759224938.246728, -10.257807, 4.677971, -6.483199, 0.103800, -3.312619, -1.979418, -33.330338, -32.379547, -82.391373
1759224938.266093, -3.966893, 5.415086, -3.724181, 0.328427, -2.347755, -2.260834, -31.119034, -31.714127, -83.571701
1759224938.286319, 2.935740, 2.327912, -9.750386, 2.192994, -0.670454, -1.798721, -30.195663, -29.245224, -83.626526
1759224938.305850, 4.440346, 6.560113, -3.416825, 4.094589, 0.540370, -1.917632, -30.249176, -25.643250, -83.233383
1759224938.326736, 7.383269, 22.543055, 0.034267, 4.638051, 1.340088, -2.867918, -31.439972, -21.316345, -82.713898
1759224938.346735, 17.956213, 34.891449, 2.539500, 3.142231, 0.283439, -1.428347, -31.206909, -18.066879, -82.726913
1759224938.366709, 12.852523, 28.938117, 5.417330, 0.927980, -4.778307, -0.290429, -29.340851, -17.324265, -85.231277
1759224938.386740, 10.690709, 21.090971, -0.655712, -0.664961, -7.641681, -2.220613, -24.788879, -16.298615, -89.178238
1759224938.406259, 10.130017, 18.576611, -7.486519, 0.123025, -2.682398, -2.781093, -23.366058, -14.370316, -91.506851
1759224938.426809, 4.281880, 17.515680, -2.663100, 1.965148, 0.384754, -2.537536, -24.084625, -12.378464, -92.133774
1759224938.446713, 1.294216, 13.279440, 0.776769, 2.400220, 0.987786, -2.030556, -25.019058, -9.603912, -91.589767
1759224938.466704, 2.998139, 8.818743, 2.876035, 1.907298, 1.070161, -0.844975, -25.717361, -8.011841, -91.675171
1759224938.486718, 3.116203, 4.463690, 3.970634, 1.418145, 1.946714, 0.136112, -26.899734, -7.351807, -90.850098
1759224938.506674, 4.337545, -0.311396, 5.084686, 0.926413, 1.336656, 0.632178, -27.490692, -7.121368, -90.636642
1759224938.526719, 3.571101, -4.833145, 4.477756, -0.045024, 0.697224, 0.428468, -27.250198, -7.444611, -90.458435
1759224938.546863, 1.587056, -6.325930, 4.520552, -1.059003, 1.658286, 0.026682, -28.688034, -7.668823, -89.162018
1759224938.566883, 1.114351, -3.566463, 5.911733, -1.434160, 2.690091, 0.327639, -29.942566, -8.927612, -87.657837
1759224938.586823, 0.808492, -2.553865, 3.923199, -1.713660, 3.135516, 0.398757, -31.907516, -9.904419, -85.672485
1759224938.606711, -3.508254, -3.211971, -19.137153, 1.295848, 0.006646, -0.232535, -32.320435, -10.173904, -84.993469
1759224938.626705, 4.630386, 14.596699, -19.433136, 3.373677, 1.938084, -0.510371, -32.645737, -7.029678, -85.965775
1759224938.646778, -2.164059, 10.909778, 6.607697, -2.574948, -3.080803, -0.662070, -32.176041, -7.543106, -86.135345
1759224938.666700, 2.159420, -0.304363, 5.794267, -3.983075, -3.909729, 0.137621, -29.333588, -10.121704, -87.041183
1759224938.686756, 8.487744, 5.903503, 2.151190, -1.865081, -3.467607, 1.086453, -27.175354, -12.062622, -88.407272
1759224938.706760, 19.961956, 18.042853, 3.202993, 0.745476, -3.181661, 3.140602, -23.774506, -13.897232, -91.377121
1759224938.726737, 4.536713, 8.713248, 7.454497, 0.395476, 0.459634, 1.413822, -24.321640, -14.791290, -90.725006
1759224938.746806, 9.592818, 11.375451, 11.149049, -2.164289, 1.779408, 0.815516, -24.986816, -16.980179, -89.461166
1759224938.766694, 12.650363, 21.040095, -2.973748, -3.211737, 1.517326, 2.278918, -25.267639, -20.034653, -88.490692
1759224938.786740, 6.410774, 16.565781, 2.855085, -2.594489, 0.744379, 1.503644, -25.706512, -22.275406, -87.267868
1759224938.806748, 9.502886, 16.137667, 3.690213, -2.548182, 2.749630, 1.711879, -27.335709, -24.632034, -85.493988
1759224938.826745, 2.490119, 17.064074, -5.337873, -1.315299, 2.330530, 1.684359, -28.912979, -26.454636, -84.370605
1759224938.846820, 4.235193, 21.982063, -7.066785, -0.620463, 0.673640, 2.200895, -29.635529, -28.227585, -83.887131
1759224938.866870, -0.338780, 20.619763, -6.693290, -2.209235, 2.432513, 1.724390, -31.699829, -30.415527, -82.837494
1759224938.886748, -1.192761, 9.152734, -10.584167, -1.381520, 1.212578, 1.349626, -32.227066, -31.985245, -82.587479
1759224938.906882, 0.313940, 3.945794, -7.129334, -0.359267, 1.509243, 1.225241, -33.599030, -32.501282, -81.719025
1759224938.926759, -0.292542, 4.194492, 0.538995, -0.848283, 1.469639, 1.002261, -34.977783, -33.345963, -81.801422
1759224938.946712, -0.494253, 4.545990, 1.307084, -1.768778, 1.161437, 0.814270, -35.737717, -35.112747, -81.466354
1759224938.966789, -3.315221, 1.489942, -4.165312, -1.387239, -0.541661, 0.994789, -35.465317, -36.256348, -81.785492
1759224938.986756, -11.359888, 3.990386, -8.947431, -0.175849, -3.924476, 0.254440, -32.776917, -36.418091, -83.646530
1759224939.006685, -6.569689, 2.432210, -4.685602, 0.646245, -1.195510, -1.206803, -31.896439, -35.752319, -84.464828
1759224939.026758, 4.674230, 0.868796, -6.600814, 2.728646, 0.423165, -1.381938, -31.375671, -33.165970, -83.680923
1759224939.046679, 5.578490, 9.272444, -2.049287, 4.944697, 1.290334, -2.043303, -31.819290, -29.331406, -82.450638
1759224939.066820, 5.467459, 20.832697, -0.652869, 5.466440, 2.517657, -3.443565, -33.409790, -24.121994, -80.847519
1759224939.086756, 14.178612, 29.016377, 3.403507, 3.723721, 1.036028, -2.503135, -34.278320, -19.972549, -79.967682
1759224939.106719, 17.240347, 27.756578, 6.400449, 1.073985, -2.595461, -0.572156, -32.522537, -18.344528, -80.934372
1759224939.125897, 15.961993, 23.258622, 8.598476, -0.847285, -8.110040, -0.662721, -27.640106, -18.388184, -84.338760
1759224939.146761, 12.967295, 19.694254, -2.113482, -0.587317, -7.433170, -2.039290, -22.757248, -17.379349, -89.643768
1759224939.166813, 10.055198, 17.029807, -5.891681, 0.481262, -0.810739, -2.437253, -21.827576, -15.820984, -90.407806
1759224939.186699, 5.212027, 17.318607, -3.033154, 1.765446, 0.090849, -2.265602, -22.154007, -13.481232, -91.047241
1759224939.206870, 4.700117, 14.751125, 0.622492, 2.099141, 0.080157, -1.418546, -22.565903, -10.660751, -91.181595
1759224939.226420, 5.162946, 9.689783, 2.652476, 1.981871, 1.094121, -0.503837, -23.478577, -9.120895, -91.369492
1759224939.246676, 3.910330, 3.970484, 3.454085, 1.643200, 1.356637, -0.083652, -24.313110, -8.286423, -90.617630
1759224939.266716, 2.833837, -1.774702, 3.592051, 0.780289, 0.735356, -0.002565, -24.772034, -7.702194, -90.281418
1759224939.286707, 1.262941, -6.029348, 3.116203, -0.583053, 1.613692, 0.011181, -25.267700, -7.550171, -89.569489
1759224939.306759, 0.177919, -4.056675, 6.619818, -1.136103, 2.747064, 0.027402, -26.875458, -7.752411, -88.367844
1759224939.326696, -0.360327, -3.658639, 5.380370, -1.247231, 2.453267, -0.105686, -28.445526, -8.642029, -86.328125
1759224939.346703, -1.526752, -4.086304, -5.513996, 2.430866, -0.962465, -0.857573, -28.841309, -7.538132, -86.183838
1759224939.366709, -6.632537, 3.872920, -17.539173, 0.686978, -0.131922, -1.027314, -28.730377, -5.830856, -87.564819
1759224939.386861, -4.046500, 7.573309, 3.745878, -2.706146, -1.693132, -0.286238, -28.308151, -6.586533, -87.421936
1759224939.406678, 1.924190, 0.301520, 4.941932, -2.535234, -0.881639, 0.291089, -27.409683, -7.984924, -87.242615
1759224939.426663, 2.968810, 2.830844, 2.040309, -1.360764, -2.680709, 0.753102, -26.198029, -9.360794, -88.115677
1759224939.445797, 20.042012, 17.783232, 9.124901, -1.150762, -2.799311, 3.490875, -23.847168, -11.398132, -89.805847
1759224939.466674, 15.117737, 17.735947, 3.971681, 0.406918, -0.410410, 1.026445, -22.532364, -12.938583, -90.185333
1759224939.486669, 8.486397, 7.309348, -1.754351, -0.424709, 1.429615, 1.218178, -23.063034, -12.885376, -89.967697
1759224939.506671, 17.817349, 16.922666, 3.940407, -1.608173, 2.358237, 2.742944, -23.658005, -14.848785, -88.254547
1759224939.526669, 7.029226, 19.195961, 2.420837, -2.118951, 3.280535, 1.618956, -25.820374, -17.433212, -86.426132
1759224939.546195, 4.294450, 17.760487, 2.564938, -2.550865, 2.389517, 1.191330, -27.341827, -19.585785, -84.464966
1759224939.566642, 0.858621, 16.743550, -0.546626, -2.692503, 0.498889, 1.972785, -27.867050, -22.332260, -84.106445
1759224939.586669, 2.315043, 19.278112, -2.741062, -3.147162, 1.485150, 2.573555, -28.586700, -25.264359, -83.802567
1759224939.606669, 1.312023, 21.214422, -10.014497, -2.190741, 1.539578, 1.776760, -30.291733, -28.261032, -83.470291
1759224939.626657, 0.775422, 12.209381, -14.713267, -0.430091, 1.657424, 1.400550, -31.557159, -29.750900, -82.237701
1759224939.646608, 0.877625, 5.902306, -6.022016, -0.439264, 1.743469, 1.264931, -33.446075, -30.643692, -81.706116
1759224939.666650, 0.030526, 3.431938, -0.417190, -1.027674, 0.753433, 0.975394, -34.643036, -31.898880, -81.647278
1759224939.686670, -2.425177, 2.854487, -1.247828, -0.668979, -1.281405, 0.649635, -34.729523, -32.275726, -81.606873
1759224939.706662, -6.976853, 0.571915, -5.770176, 0.216770, -3.357875, -0.233693, -33.419144, -32.563400, -82.676224
1759224939.726658, -10.530148, 3.354725, -6.156690, 0.388076, -2.309635, -1.975221, -30.636642, -32.086273, -84.139297
1759224939.746655, -2.604891, 5.237316, -4.653131, 1.277258, -1.398423, -2.176372, -29.449646, -30.372925, -84.694214
1759224939.766646, 3.947590, 2.350807, -8.466346, 2.938637, -0.564331, -1.932588, -28.716843, -27.804001, -85.669861
1759224939.786660, 4.627094, 6.292561, -2.237531, 4.262614, 0.655927, -2.814452, -28.386475, -24.010254, -84.773911
1759224939.806690, 6.396559, 20.702961, -0.460435, 4.440711, 1.782722, -3.125652, -29.764694, -19.404617, -84.180008
1759224939.826679, 16.752079, 34.697668, 2.482039, 2.392301, -0.575295, -0.525409, -31.036774, -15.644562, -83.835480
1759224939.846671, 15.653440, 29.853301, 6.487089, 1.151720, -2.733328, -0.041357, -29.559906, -14.423630, -85.289429
1759224939.866672, 9.432257, 20.487782, 2.542044, -0.553618, -7.304903, -1.743379, -25.342667, -13.933990, -88.905731
1759224939.886668, 10.758644, 16.719608, -6.901586, -0.179797, -4.645418, -2.627650, -23.582367, -12.609879, -91.978302
1759224939.906655, 4.500052, 15.865626, -4.322581, 1.088171, 0.297515, -2.588176, -23.878433, -10.970673, -92.552719
1759224939.926665, 0.950947, 14.509760, -0.294487, 1.782352, 1.177190, -2.228060, -24.986893, -8.777283, -92.653625
1759224939.945748, 3.124732, 10.491392, 2.429366, 1.367990, 0.693680, -0.995886, -26.073975, -7.151215, -92.948746
1759224939.966524, 3.818303, 5.074810, 2.783110, 1.156742, 1.438029, 0.111046, -26.718597, -6.548096, -92.228027
1759224939.986351, 5.568913, -0.271592, 3.566313, 0.786920, 1.284900, 0.636067, -27.939316, -6.461151, -91.377228
1759224940.006651, 4.205714, -4.409671, 3.600131, -0.143692, 0.891456, 0.223392, -27.756958, -6.894440, -91.300812
1759224940.026558, 1.459565, -5.725883, 3.261352, -1.018708, 1.557092, -0.214325, -28.486404, -7.530289, -90.463272
1759224940.046183, 0.597353, -4.609287, 3.027618, -1.161544, 2.469867, 0.117664, -30.000977, -8.174622, -88.517960
1759224940.066637, -0.171185, -3.463063, 2.438943, -1.079631, 3.149637, 0.281891, -32.068161, -8.836533, -86.526047
1759224940.086643, -9.836877, -4.119224, -20.301184, 2.245939, -0.557290, -0.938643, -32.547958, -8.270309, -86.415054
1759224940.106253, -0.846949, 15.765070, -16.716765, 2.619791, -0.536749, -1.561600, -31.771088, -5.309769, -88.038483
1759224940.126674, 2.410512, 5.512949, 9.877129, -1.959691, -2.317185, -0.347079, -30.970596, -6.265289, -89.047180
1759224940.146567, 3.813065, 1.647660, 3.526659, -1.903468, -2.231264, 0.686358, -29.098129, -8.065155, -89.814301
1759224940.166633, 20.396653, 16.121507, 11.040861, -1.752401, -4.096150, 2.788915, -26.614899, -10.337799, -91.259140
1759224940.186658, 15.924883, 17.719935, 4.538209, -0.794479, -1.452113, 2.631225, -25.131439, -12.234482, -91.518616
1759224940.206709, 4.088249, 5.300912, 1.379509, -0.481300, 0.708400, -0.000807, -25.900299, -12.613037, -90.947556
1759224940.226633, 15.731701, 14.731822, 6.231059, -2.263709, 1.093677, 1.976727, -26.247681, -15.262421, -89.708267
1759224940.246411, 8.700678, 19.886688, 2.829946, -2.928187, 1.432286, 2.662888, -26.180923, -18.742310, -88.606537
1759224940.266493, 8.807819, 15.453674, 2.147898, -2.368265, 1.644429, 2.473573, -27.352737, -20.858002, -87.815079
1759224940.286107, 6.276699, 14.205098, 1.475726, -1.853707, 2.490834, 2.043173, -28.849274, -23.265717, -86.075333
1759224940.306630, 4.781969, 13.443891, -3.469497, -1.524317, 1.258883, 2.397365, -29.401413, -25.597519, -85.304474
1759224940.326624, 4.286968, 24.452730, -2.423531, -3.018443, 1.503395, 2.768437, -30.792419, -29.242538, -85.146271
1759224940.346617, -2.234089, 26.364949, -8.263886, -3.181036, -0.106524, 1.833146, -31.139725, -31.870087, -85.828690
1759224940.366613, -2.305766, 11.345822, -12.953828, -1.667946, -0.857149, 1.170810, -30.633286, -33.385941, -86.336609
1759224940.386680, -2.103605, 5.399972, -7.754670, -0.224048, 0.938871, 1.265994, -31.367981, -34.290329, -86.128510
1759224940.406140, -3.964948, 3.825036, -2.367865, -0.311502, 0.855206, 1.132051, -32.579590, -34.846832, -85.461426
1759224940.425892, -3.186383, 2.700510, -1.449988, -0.558228, 1.012401, 0.515899, -33.155197, -35.719696, -85.348740
1759224940.446611, -4.728698, 1.381754, -2.553566, 0.074854, -0.364015, -0.333601, -32.764709, -35.729919, -85.970108
1759224940.466605, -9.563788, 1.198747, -4.643554, 0.475935, -3.952134, -1.015636, -30.489944, -34.886322, -87.233337
1759224940.486610, -5.275324, 3.786131, -3.093458, 0.186217, -2.302326, -2.214876, -28.474884, -33.825821, -88.445374
1759224940.506617, 5.721095, 2.709937, -12.968044, 1.615465, -0.673768, -2.137002, -27.592468, -32.177124, -89.321838
1759224940.526609, 8.193706, 4.783914, -5.836315, 3.854470, 0.221794, -1.791208, -27.252823, -29.207123, -88.237930
1759224940.546610, 7.553557, 16.683096, 0.568174, 4.922345, 1.710609, -3.049608, -27.887329, -24.355377, -86.581924
1759224940.566619, 15.916653, 33.652150, 2.320131, 4.687723, 0.949966, -2.377768, -28.735123, -20.070358, -86.385117
1759224940.585963, 20.454263, 38.754194, 4.473117, 2.250308, -2.585469, -0.097939, -27.481171, -18.591904, -87.615494
1759224940.605781, 10.466552, 25.714624, 8.109760, -0.564950, -7.285700, -1.492861, -23.934891, -17.631058, -91.741592
1759224940.626605, 9.584887, 19.342905, 0.805798, -1.509990, -7.547300, -2.668562, -20.226730, -16.616318, -96.912079
1759224940.646605, 9.001001, 16.214581, -6.903830, -0.118919, -1.126721, -3.061774, -19.754883, -14.632431, -98.479034
1759224940.666681, 4.417452, 14.898369, -3.709516, 1.819492, 1.510797, -2.579459, -20.748764, -12.260651, -97.766815
1759224940.686618, 2.140566, 13.863176, 1.381604, 1.908644, 0.857947, -1.646663, -21.859009, -10.547134, -97.336700
1759224940.706639, 3.073706, 10.097845, 3.868282, 1.232282, 1.273973, -0.515283, -22.218765, -9.856064, -97.574646
1759224940.726617, 4.128651, 4.010587, 3.802142, 0.539566, 1.980443, 0.287155, -22.946106, -9.359924, -96.450333
1759224940.746617, 3.919158, -1.993921, 4.760571, -0.602502, 1.707860, 0.170876, -23.724670, -9.750946, -94.520920
1759224940.765630, 1.346738, -5.918766, 3.617489, -1.339517, 2.673829, 0.315056, -24.942917, -10.575577, -92.925537
1759224940.786618, 2.041057, -4.631882, 2.738518, -1.132710, 3.854534, 0.917262, -26.782669, -11.567902, -90.431198
1759224940.806618, 0.780659, -4.536264, 1.899200, -0.511720, 3.590765, 1.020888, -28.462463, -12.843964, -88.556412
1759224940.826613, 0.376189, -6.194249, -11.836185, 4.476564, -2.283932, 0.534683, -28.254089, -11.570740, -88.924362
1759224940.846612, 1.604115, 9.152734, -24.767867, 1.017104, 0.647810, -0.059175, -28.551651, -9.881714, -89.358612
1759224940.866176, -2.350059, 13.124116, 5.122694, -3.051470, -2.634107, -0.940231, -27.367126, -10.651855, -89.875900
1759224940.886505, -0.021697, 0.448763, 7.986009, -2.744806, -1.193201, -0.443126, -26.407349, -12.054123, -90.248062
1759224940.906614, 1.673996, 1.571494, 3.343952, -1.068782, -1.686396, -0.236903, -25.902298, -12.662186, -90.650787
1759224940.926629, 13.070994, 12.448652, 7.055413, -0.113232, -2.839141, 1.958997, -24.541306, -13.569946, -92.049530
1759224940.946607, 13.810354, 15.267225, 8.555231, -0.164062, -1.386208, 1.811289, -23.306198, -14.776367, -93.388535
1759224940.966444, 5.498134, 10.256610, 7.288848, -1.489095, 1.123987, 1.141805, -23.089294, -16.146729, -92.817154
1759224940.986601, 16.257527, 19.420567, -0.888398, -1.114157, 1.264495, 1.899454, -23.729889, -17.871613, -92.312531
1759224941.006609, 5.882853, 18.735376, -0.224007, -1.206639, 2.748317, 1.450169, -24.412003, -19.503036, -90.650757
1759224941.026677, 7.272537, 14.461577, 4.052186, -1.623195, 4.437878, 1.645541, -26.721405, -21.253922, -87.961304
1759224941.046602, 5.633856, 14.324658, 0.001646, -2.135454, 3.548406, 2.678961, -29.322891, -23.613556, -85.572662
1759224941.066600, 7.169138, 17.704822, -3.193416, -3.003191, 2.718473, 2.390033, -31.444595, -26.658890, -84.337692
1759224941.085662, 3.169324, 24.528746, -5.650466, -3.212650, 0.023337, 1.531422, -32.285965, -29.746506, -83.621674
1759224941.106358, -0.233135, 15.263484, -12.235119, -1.754875, -0.655832, 1.569628, -32.435028, -32.208160, -84.358093
1759224941.126598, -0.963965, 7.908497, -12.149526, -0.203642, 0.888375, 1.260714, -32.517792, -33.720886, -84.835617
1759224941.146608, -3.798551, 3.236063, -6.336704, -0.333176, 1.175451, 0.755907, -33.491425, -33.904617, -84.111969
1759224941.166577, -3.311480, 3.929483, -2.277185, -0.329738, 1.164071, 0.045984, -34.257401, -34.606171, -83.777374
1759224941.186592, -1.548300, 3.775955, -1.041029, 0.306919, -1.760750, -0.239173, -34.754578, -34.341843, -83.469482
1759224941.206601, -7.317129, 0.993743, -3.656544, 0.734888, -3.687060, -0.830473, -32.842346, -33.966492, -84.818024
1759224941.226608, -7.827842, 1.423203, -2.920926, 0.922253, -1.554544, -1.884684, -30.691376, -32.792053, -85.654266
1759224941.246599, 3.121291, 2.876783, -12.588563, 2.968348, -0.049386, -1.823644, -29.874954, -30.696304, -85.332809
1759224941.266603, 7.391200, 6.788908, -5.192724, 4.281565, 0.959390, -2.479607, -29.665070, -27.519958, -84.817749
1759224941.286471, 7.793875, 17.491140, 1.754950, 4.087087, 0.960974, -2.893398, -30.438065, -23.549393, -83.719208
1759224941.306601, 15.658528, 30.120404, 2.399589, 2.463806, -1.360035, -1.170344, -30.996063, -19.825470, -83.820465
1759224941.326586, 18.659061, 31.852459, 5.408801, 0.428902, -5.847719, -0.758716, -28.977966, -18.410034, -85.958862
1759224941.346433, 10.781240, 22.150406, 1.898303, -0.106864, -7.381187, -1.427366, -24.779190, -17.759628, -89.641632
1759224941.366075, 9.895086, 16.084546, -3.799598, -0.327905, -5.739721, -2.160796, -21.571320, -16.817291, -93.805603
1759224941.386575, 4.943877, 14.820707, -2.979285, 0.658994, -0.927849, -2.417507, -21.186417, -14.938538, -94.535400
1759224941.406593, 0.922067, 14.102895, 0.515352, 1.379887, 0.741282, -2.278119, -22.146774, -12.769943, -94.179062
1759224941.426609, 1.998859, 11.385327, 2.065597, 1.303672, 0.549499, -1.429002, -22.653152, -11.253403, -94.286194
1759224941.446537, 2.660257, 5.721843, 1.978059, 1.273529, 1.507279, -0.433864, -23.083054, -10.069061, -93.622726
1759224941.466578, 3.950732, 0.179116, 3.554492, 0.903550, 1.702874, 0.225630, -23.930283, -9.795425, -92.778976
1759224941.486515, 1.253215, -3.994875, 5.151424, -0.285224, 1.325322, 0.062516, -24.708252, -9.756897, -91.790100
1759224941.506545, 0.014365, -4.892850, 5.151275, -1.041508, 2.727066, 0.115557, -26.340607, -10.173553, -89.857834
1759224941.526596, -0.030825, -4.632631, 3.930681, -1.096558, 3.672681, 0.433726, -28.179337, -11.070541, -88.365967
1759224941.546583, 0.041450, -5.071967, -2.653823, -0.375491, 1.566620, 0.404926, -29.070709, -11.508270, -86.981766
1759224941.566142, -4.073734, -2.274641, -18.601301, 3.448597, -3.337605, -0.491266, -28.310181, -10.102417, -88.274826
1759224941.585689, -0.650924, 13.710845, -5.142596, -0.101817, -0.815766, -0.913301, -28.155624, -8.657181, -88.664505
1759224941.606581, 2.695572, 1.791012, 8.495076, -2.999746, -2.534468, -0.245432, -26.095703, -10.616119, -89.483078
1759224941.626589, 5.053860, 8.135946, -3.732560, -1.258018, -4.445951, 0.162218, -23.285843, -11.448303, -92.409393
1759224941.646598, 23.186047, 20.177284, 9.245210, -0.377841, -4.741347, 2.861230, -21.045685, -13.746384, -94.326187
1759224941.666570, 8.005163, 9.637260, 4.013430, -0.198402, 0.214870, 1.867256, -20.999313, -14.904114, -94.049408
1759224941.686069, 2.353800, 4.812345, 7.606528, -1.735382, 1.674371, 0.112347, -21.841003, -15.642563, -92.627213
1759224941.706572, 11.776031, 15.407436, -2.851494, -2.436134, 0.522931, 1.716606, -21.606323, -18.586700, -92.154251
1759224941.726578, 12.604574, 18.609830, 3.509301, -2.280405, 0.711388, 3.427204, -22.023529, -21.762817, -91.013443
1759224941.746593, 8.469937, 19.900754, 4.788254, -1.985656, 3.808577, 3.179122, -24.266418, -24.976715, -88.274673
1759224941.766571, 1.173458, 19.816358, -0.734721, -1.496714, 3.767261, 2.618717, -26.271210, -27.238174, -86.308289
1759224941.786482, 1.534085, 22.936452, -4.441094, -1.275369, 0.564497, 2.880247, -27.185822, -29.754745, -85.805130
1759224941.806620, 0.317531, 21.660193, -7.328502, -2.808497, 4.062422, 2.208793, -30.004318, -32.578522, -83.878479
1759224941.826606, 2.639607, 10.451588, -14.658949, -1.149016, 1.585453, 1.613621, -31.622635, -33.906784, -83.630890
1759224941.846571, 4.151845, 4.317344, -7.876026, -0.174961, 1.845785, 1.403677, -33.246094, -34.872101, -82.931686
1759224941.866577, 2.000655, 3.166781, -2.034922, -0.352308, 1.504520, 1.699033, -34.618530, -35.523651, -81.940292
1759224941.886573, -2.644246, 2.411560, 0.137667, -0.893933, -0.588244, 1.213624, -34.268829, -36.313232, -82.591751
1759224941.906578, -3.817106, 1.190816, -1.188422, -0.421980, -2.030640, 0.806443, -33.240768, -36.647995, -83.463074
1759224941.926572, -10.040384, 2.305915, -2.134580, -0.332936, -4.084987, 0.053002, -30.610489, -37.206161, -85.622208
1759224941.946587, -10.581324, 3.517980, -1.764078, -0.375707, -3.327830, -1.330139, -27.593536, -36.384979, -87.808212
1759224941.966574, -8.078635, 2.054824, -7.936180, 0.651229, -2.543051, -2.474348, -25.596924, -34.605927, -88.525848
1759224941.986569, 2.066495, 4.845565, -8.402151, 3.064817, -1.002554, -3.140635, -24.654434, -31.194595, -89.301788
1759224942.006575, 4.100819, 17.391182, -4.027795, 4.346516, 2.781509, -4.786036, -25.731552, -25.207001, -87.243500
1759224942.026569, 9.641151, 26.705374, 1.685219, 4.060334, 2.559901, -4.998649, -27.909134, -20.036499, -85.183517
1759224942.046570, 24.405744, 36.827760, 5.610213, 2.594746, -0.303145, -1.207144, -27.726837, -16.931305, -85.818375
1759224942.066553, 18.110639, 30.947750, 7.086687, -0.105335, -5.788631, -0.108553, -24.806763, -16.472397, -88.718658
1759224942.085685, 14.685135, 26.085575, -0.294936, -0.800235, -6.336008, -2.605818, -21.497345, -15.842178, -93.501709
1759224942.106569, 6.987627, 16.021698, -4.433463, -0.080397, -2.365053, -3.233090, -20.819550, -13.413208, -95.008926
1759224942.126643, 4.715679, 16.171336, -2.643049, 1.084829, 0.548518, -2.815478, -21.213898, -11.063828, -95.357193
1759224942.146227, 0.613365, 15.480609, 1.349133, 1.190115, 0.723609, -1.815279, -22.526520, -9.404266, -95.031570
1759224942.166555, 2.720711, 10.120440, 2.842067, 1.049450, 0.976702, -0.494910, -22.957535, -8.490463, -94.966187
1759224942.186699, 3.122787, 3.494038, 1.698536, 0.887399, 1.389016, 0.399084, -23.565430, -8.197021, -94.569031
1759224942.206564, 5.067777, -1.197849, 3.026570, 0.408883, 1.270065, 0.646729, -24.224091, -8.009995, -94.302246
1759224942.226691, 3.707870, -4.173393, 2.854786, 0.104619, 1.378488, 0.577674, -24.570786, -8.973312, -93.821625
1759224942.245932, 2.529324, -5.737106, 2.131288, 0.165807, 2.511725, 0.793414, -25.802689, -9.098740, -92.108826
1759224942.265779, 0.930596, -4.518008, 3.690811, -0.043032, 3.305963, 0.872481, -26.949417, -9.484970, -90.379425
1759224942.286348, -0.158466, -4.536863, 3.923199, 0.133211, 2.935286, 0.797271, -28.703445, -10.240738, -88.478928
1759224942.306564, -5.848436, -9.490765, -22.132898, 3.255495, 2.422897, -0.553530, -29.910217, -7.933777, -88.691986
1759224942.326357, 2.078317, 11.155783, -8.035090, -0.935987, -1.643074, -0.371334, -30.468033, -7.852966, -88.484726
1759224942.346537, -0.957980, 6.772299, 7.498041, -3.477901, -5.014637, 0.058436, -27.944427, -9.419449, -89.910309
1759224942.365941, 2.089539, 0.404321, 4.403386, -2.796305, -3.592630, 0.605232, -25.530701, -11.174103, -91.868103
1759224942.386539, 8.912116, 8.349928, 7.949797, -1.951808, -3.437987, 2.129940, -23.557907, -13.278442, -93.423264
1759224942.405654, 22.785318, 26.079590, 4.826411, 0.329441, -0.723609, 1.983531, -22.332138, -14.976624, -93.887085
1759224942.426553, 4.237737, 10.153211, 0.997185, 0.362756, 1.064529, 0.311341, -22.795685, -15.312592, -94.486221
1759224942.446534, 11.097723, 12.369493, 6.766612, -1.169147, 1.808642, 2.334161, -23.328873, -16.100418, -92.838638
1759224942.466607, 13.939790, 19.523667, -0.231040, -1.325675, 2.231572, 2.869234, -23.844681, -19.120071, -91.365585
1759224942.486597, 4.120720, 18.485481, 2.179921, -1.492975, 2.995691, 1.915517, -25.387604, -21.202927, -89.630081
1759224942.505977, 4.209306, 18.105402, 0.203058, -1.619825, 3.426530, 2.297248, -27.220352, -23.022598, -87.899750
1759224942.526609, 5.804443, 14.784046, -2.128894, -1.760713, 4.115594, 2.650819, -29.706848, -25.630997, -85.671890
1759224942.546596, 4.507833, 17.059884, -4.057723, -2.526177, 3.003415, 2.031092, -32.260284, -27.899994, -83.967133
1759224942.566543, 1.400458, 18.598757, -8.836998, -2.451098, 0.610103, 1.377855, -33.898849, -30.954361, -82.967865
1759224942.586531, -0.899322, 11.562498, -10.815207, -1.208525, 0.421206, 1.096133, -34.171814, -32.600998, -83.305771
1759224942.606349, -0.139762, 4.784662, -8.955661, -0.291218, 0.495146, 1.063009, -34.808167, -33.382385, -83.621475
1759224942.625641, -2.541146, 3.338565, -2.733879, -0.462641, 0.416552, 0.319564, -35.553146, -34.151413, -83.339645
1759224942.646525, -2.529324, 2.026392, -3.355773, 0.014514, -1.189136, -0.160876, -35.093903, -34.372971, -83.522339
1759224942.666525, -5.810727, 0.151433, -3.697695, 0.491863, -3.626668, -0.834579, -33.565811, -33.826523, -84.611237
1759224942.686604, -10.395624, 2.102259, -2.834585, 0.154490, -2.747480, -2.164113, -30.919693, -32.996536, -86.146515
1759224942.705621, -3.421165, 6.384139, -5.409848, 1.483244, -1.065252, -2.466612, -29.054276, -31.403748, -87.654724
1759224942.726574, 2.531868, 3.428646, -11.479598, 3.915112, 0.648480, -2.418656, -28.779205, -28.954544, -86.975616
1759224942.746550, 4.645799, 10.573992, -2.559850, 5.205830, 2.427405, -3.326521, -29.183884, -24.539673, -85.486877
1759224942.766662, 8.678981, 25.932197, 1.724723, 4.455316, 1.948745, -2.601372, -30.922424, -19.351273, -84.927948
1759224942.786640, 19.794062, 36.405782, 5.246594, 2.159305, -1.955440, -0.132013, -31.480774, -16.294250, -84.783127
1759224942.806727, 12.007071, 26.781091, 9.010877, -0.529856, -7.031452, -1.591864, -29.605545, -15.430237, -87.171722
1759224942.826022, 9.030480, 20.240132, 1.082927, -1.297534, -7.892592, -2.642018, -25.143875, -14.859787, -91.400208
1759224942.846567, 10.979659, 18.415900, -9.076119, 0.688145, -0.570190, -2.934952, -23.470963, -13.199860, -93.506653
1759224942.866639, 3.897311, 16.265608, -3.559729, 2.151268, 1.452801, -2.596887, -24.508118, -11.066971, -93.564148
1759224942.886600, 1.679981, 14.880562, 1.832013, 2.264944, 1.120089, -2.140591, -25.498199, -8.531769, -93.718918
1759224942.906567, 2.992154, 9.974244, 2.696320, 1.576154, 0.688926, -0.806916, -26.460571, -7.130920, -93.433334
1759224942.926624, 4.352509, 3.180248, 2.584541, 0.766531, 1.280601, 0.251140, -26.723145, -6.914062, -93.661255
1759224942.946596, 5.907244, -2.694375, 3.209278, -0.073517, 1.314702, 0.537755, -27.233307, -7.662201, -92.473694
1759224942.966552, 4.692336, -6.350021, 2.520346, -0.637427, 1.034087, 0.439816, -27.407089, -7.828903, -91.958618
1759224942.986659, 1.612345, -6.892458, 2.434753, -0.874275, 1.756601, 0.866153, -29.068054, -9.084274, -89.927170
1759224943.006720, -0.661847, -6.795642, 1.432481, -0.437099, 3.231291, 1.274756, -29.878174, -9.658676, -88.262589
1759224943.026326, -2.851195, -6.317400, -4.273949, 0.468199, 2.385396, 0.926124, -30.655945, -9.807617, -87.886276
1759224943.046521, -10.185532, 3.407847, -18.598607, 2.704469, -0.074224, -0.881651, -30.967834, -8.364426, -88.556641
1759224943.066577, 1.763928, 19.972879, -1.304541, -1.943468, -2.124035, -0.724622, -29.679688, -9.167633, -89.360931
1759224943.086557, 0.883760, 1.827823, 6.909965, -4.034788, -3.364003, -0.438342, -28.302811, -11.159668, -89.837830
1759224943.106712, 5.295376, 3.525312, 4.334852, -2.028478, -1.090749, 0.443924, -27.365875, -12.694031, -89.749573
1759224943.126606, 19.244743, 18.032229, 7.044489, -0.398301, -3.020469, 2.337077, -25.433838, -14.536636, -92.062515
1759224943.146647, 13.042414, 13.495516, -0.486472, 1.281796, -2.445918, 2.317680, -23.643570, -15.003693, -93.671844
1759224943.166582, 6.456713, 6.454468, 2.880524, 0.355007, 0.755487, 0.808149, -23.925400, -15.715210, -92.972214
1759224943.186592, 16.966660, 15.258546, 5.652112, -2.083500, 3.347199, 2.381472, -25.577408, -18.338226, -90.232788
1759224943.206578, 10.643274, 19.751116, 2.756774, -2.352441, 3.591071, 2.818154, -27.561264, -21.181885, -88.173950
1759224943.225545, 3.834164, 20.687548, 0.553210, -1.842682, 2.215482, 1.681772, -28.400787, -23.161621, -86.544083
1759224943.246545, 1.925088, 19.886538, -1.209072, -1.544344, 0.285275, 1.843849, -28.618271, -25.355453, -86.734833
1759224943.266652, 1.001973, 18.303971, -4.827758, -1.950062, 1.821483, 2.485487, -30.161072, -27.443802, -85.959991
1759224943.286609, 0.355838, 16.426618, -9.004144, -1.648989, 3.266448, 1.759409, -32.341003, -29.697891, -84.653534
1759224943.306526, 2.924218, 9.208399, -8.913762, -0.999885, 1.804750, 1.228283, -33.646240, -30.603424, -84.070251
1759224943.325958, 2.262820, 5.383811, -5.117756, -0.799147, 0.636385, 1.175948, -34.054443, -31.974823, -84.373871
1759224943.346527, -1.785027, 4.859332, -1.427243, -1.204759, 0.226125, 0.946577, -34.471878, -33.169693, -84.013794
1759224943.366515, -2.420239, 4.928913, -0.987907, -1.190602, -0.328544, 0.515161, -34.416687, -34.221817, -84.707886
1759224943.386516, -4.711639, 2.705298, -2.089988, -0.791700, -1.795581, 0.147259, -33.114700, -35.175827, -85.533615
1759224943.405798, -10.377667, 1.412429, -4.192846, -0.646593, -5.478992, -0.738092, -30.004791, -34.972305, -88.266052
1759224943.426356, -10.799496, 0.802955, -7.477690, -1.008514, -3.561130, -1.975112, -27.446518, -34.673645, -90.761002
1759224943.446518, 1.324143, 2.631826, -18.062007, 1.750546, -1.252362, -2.796955, -26.086868, -32.505432, -91.818817
1759224943.466522, 5.585074, 5.010017, -6.129904, 4.217460, 0.637152, -2.571913, -25.724991, -28.651382, -90.451355
1759224943.486515, 4.181324, 13.565547, 1.146972, 4.974296, 2.500459, -3.927204, -27.102081, -23.942307, -88.399887
1759224943.506518, 14.148684, 32.127642, 3.372233, 4.426551, 2.158866, -3.849787, -28.483292, -19.405991, -87.444504
1759224943.526511, 25.702353, 43.423187, 7.518242, 1.391126, -1.601436, -0.418997, -27.982880, -17.859314, -88.142944
1759224943.546510, 4.320187, 25.191191, 6.042366, -2.099765, -8.310584, -2.234263, -24.013474, -17.647751, -92.161453
1759224943.566489, 6.103867, 18.319533, -8.615535, -2.768143, -7.555637, -3.902141, -20.719971, -16.754684, -97.902832
1759224943.586510, 5.642684, 15.819687, -8.112004, 0.660410, 1.076672, -2.899865, -20.801773, -14.238922, -98.635239
1759224943.606101, 3.165135, 14.583232, -3.541623, 2.470701, 2.986212, -1.767106, -22.413681, -12.195709, -96.355957
1759224943.625968, 2.470966, 12.877214, 3.990835, 1.749388, 1.613777, -0.513643, -23.514709, -11.178696, -95.435394
1759224943.645901, 3.772065, 7.295132, 5.259014, 0.943129, 1.066095, 0.299890, -24.097351, -10.815582, -94.929123
1759224943.666592, 4.864120, 1.343746, 3.396474, 0.425656, 1.040765, 0.623361, -23.889145, -10.976517, -94.814423
1759224943.686376, 6.391621, -3.228132, 2.378490, -0.434236, 0.954351, 0.518386, -24.245941, -11.262390, -94.005997
1759224943.706514, 3.937265, -5.016601, 2.197877, -1.230297, 1.538708, 0.712538, -24.822250, -11.974930, -92.925430
1759224943.726499, 2.149245, -4.522198, 2.934393, -1.198250, 2.834044, 1.061289, -25.711838, -13.546799, -91.265472
1759224943.746302, 0.620398, -4.815188, 1.946935, -0.619596, 3.536723, 1.161558, -27.751740, -15.070282, -89.126984
1759224943.766484, -3.629460, -7.662194, -15.777490, 4.209649, 0.538591, -0.619234, -28.281448, -13.563873, -88.149338
1759224943.786525, -4.279785, 11.448474, -15.096339, 0.466800, 1.267588, -0.392972, -29.460373, -11.584625, -88.277252
1759224943.806607, -2.113482, 13.357101, 3.431340, -3.350118, -3.297782, -0.484449, -28.565384, -12.739410, -89.102295
1759224943.826536, 1.383998, 0.984915, 6.094590, -3.278721, -4.220316, -0.034549, -25.993835, -14.544708, -90.527695
1759224943.846569, 5.535993, 6.763320, 2.010980, -1.172770, -4.807585, 0.877276, -23.081436, -16.224075, -92.993210
1759224943.866491, 20.993258, 21.469554, 2.434753, 1.146504, -0.638854, 1.743130, -22.068298, -17.256348, -94.775208
1759224943.886496, 6.468983, 9.066393, 6.125715, 0.126876, 1.758271, 0.623137, -22.516739, -17.486298, -94.184433
1759224943.906563, 10.186430, 11.685799, 9.251345, -1.593933, 2.262057, 2.343158, -23.672501, -18.877350, -92.405197
1759224943.925979, 14.712369, 19.400815, -5.513846, -0.778527, 1.226452, 2.414675, -23.647797, -21.629944, -91.912750
1759224943.946551, 6.367679, 14.345607, 2.387618, -0.808274, 2.241593, 1.651217, -24.930695, -22.864182, -90.400192
1759224943.966543, 8.519916, 14.333936, 4.051737, -1.305348, 3.118910, 1.737603, -26.176010, -24.410385, -89.158203
1759224943.985599, 6.639271, 12.650513, 1.257554, -2.229763, 3.333575, 2.517227, -28.746246, -26.680038, -87.202118
1759224944.006497, 5.664531, 17.399412, -4.429273, -3.224740, 1.436688, 2.369540, -30.382858, -29.858353, -86.540665
1759224944.026483, -0.442029, 26.327539, -5.524620, -2.990586, -0.654295, 1.412045, -30.687286, -32.777054, -86.319855
1759224944.046478, -1.809867, 16.147693, -12.855217, -1.390998, -0.301238, 1.234563, -30.521286, -34.918701, -87.631485
1759224944.066484, -1.640327, 7.997382, -11.463886, -0.102395, 1.139469, 1.106413, -30.729828, -35.636414, -87.773087
1759224944.086511, -3.703980, 3.355923, -5.647622, -0.413454, 0.919810, 0.655767, -31.878693, -36.500015, -86.542435
1759224944.106490, -4.276044, 3.310882, -0.770484, -0.473873, 0.816384, 0.024571, -32.271835, -37.002258, -86.647293
1759224944.126476, -2.540398, 3.163040, -1.992275, 0.372807, -1.643971, -0.327020, -32.618286, -36.651672, -86.304352
1759224944.145798, -7.790583, 1.085322, -3.627066, 0.649626, -3.791876, -1.131648, -30.361374, -36.272217, -87.782349
1759224944.166510, -8.646210, 3.189376, -3.112462, 0.633915, -1.819363, -2.405235, -27.724518, -35.522781, -89.061249
1759224944.186472, 3.686173, 5.412392, -11.546636, 2.950037, -0.340789, -2.190840, -26.597900, -33.603882, -89.530182
1759224944.206486, 6.921787, 5.300762, -5.706580, 4.609764, 0.758218, -2.599370, -25.923920, -30.042099, -89.117828
1759224944.226497, 7.139060, 16.253038, -0.128688, 5.062889, 1.734154, -3.391517, -26.915634, -25.510574, -87.461243
1759224944.246207, 11.609334, 25.693076, 2.439093, 3.374780, -0.108353, -1.585291, -27.016312, -20.754807, -86.370193
1759224944.266557, 18.078766, 33.966988, 6.650494, -0.174487, -5.230942, -0.428518, -26.219208, -19.405823, -87.529800
1759224944.285848, 4.424934, 26.978164, 5.078850, -1.925243, -8.252228, -3.036114, -22.382858, -18.969177, -91.764297
1759224944.306593, 7.920767, 22.726810, -11.889605, 0.664173, -1.809247, -3.253147, -19.215073, -17.005234, -96.461868
1759224944.326501, 5.768380, 17.429489, -6.484546, 2.808414, 2.110599, -2.444537, -19.437103, -14.151352, -96.412872
1759224944.346634, 1.657536, 14.028376, 0.783203, 2.906096, 1.833223, -1.396783, -21.735352, -10.111099, -95.944427
1759224944.366495, 2.939182, 9.982025, 3.960758, 1.553946, 1.127956, -0.206429, -22.200546, -8.676468, -94.736465
1759224944.386488, 3.552846, 4.219032, 3.129820, 0.690716, 1.939056, 0.435473, -23.155121, -8.500809, -94.216507
1759224944.406493, 5.239112, -0.913687, 3.843891, 0.305657, 1.727579, 0.571988, -23.433014, -8.495712, -93.292038
1759224944.426530, 4.962581, -4.870704, 2.714276, -0.469036, 0.902744, 0.339664, -23.535751, -8.957352, -92.572998
1759224944.446609, 3.361758, -5.784092, 2.369362, -1.107477, 1.261833, 0.360655, -24.489090, -9.580017, -91.638519
1759224944.466521, 1.500416, -5.453692, 2.498499, -1.124500, 2.472746, 1.052862, -25.855606, -10.651962, -89.465805
1759224944.486680, -0.358083, -4.680215, 1.553837, -0.981558, 2.517676, 1.086088, -26.549103, -11.436676, -88.275070
1759224944.506567, -13.602058, -4.371663, -24.495077, 2.976309, -0.787772, -1.016083, -27.131332, -9.179367, -89.044037
1759224944.526678, -0.058059, 13.942783, -6.393566, -0.443188, -0.188751, -0.984022, -26.884109, -9.635788, -89.282608
1759224944.546592, 1.544260, 3.012953, 11.401188, -4.363352, -4.049182, 0.010466, -24.644318, -12.067337, -90.290176
1759224944.566239, 3.516933, 0.119411, 1.838747, -2.590232, -2.340826, 0.805940, -23.328537, -13.356277, -91.152390
1759224944.586577, 13.033136, 17.292421, -5.512500, 0.500900, -4.398116, 1.489142, -21.067642, -14.432877, -94.299072
1759224944.605655, 19.971233, 28.957719, 4.098125, 0.529587, -1.646828, 2.710050, -20.300507, -15.550629, -95.562775
1759224944.626484, 2.884714, 7.053917, 6.203975, -0.439139, 1.973522, -0.092945, -20.832626, -16.105301, -93.579849
1759224944.646479, 11.464335, 11.744158, 8.458266, -2.111344, 2.284912, 0.985595, -22.322861, -18.105835, -91.638199
1759224944.666467, 9.921721, 14.987852, 2.980332, -2.302966, 2.330989, 2.362979, -23.875168, -20.740372, -89.937668
1759224944.686552, 6.399102, 16.942718, -0.692672, -1.123103, 1.943032, 2.393441, -24.830627, -22.740646, -88.740723
1759224944.705928, 6.007501, 15.902287, 2.943072, -0.876551, 2.964260, 2.102928, -26.594162, -24.047058, -86.975861
1759224944.726491, 1.871218, 13.915399, -2.742708, -1.287985, 3.455398, 1.970583, -29.200577, -26.319214, -85.430054
1759224944.746472, 4.338144, 17.528699, -5.700744, -1.790626, 2.757696, 2.008568, -31.042999, -28.407608, -84.012741
1759224944.765463, 1.871966, 16.741754, -7.388656, -2.228618, 1.487904, 1.454291, -32.107422, -30.411484, -83.631012
1759224944.786474, 1.522563, 11.159075, -9.685743, -1.741364, 0.742087, 1.071356, -32.734695, -32.311066, -83.772278
1759224944.806530, 0.445770, 5.838261, -7.617153, -0.701165, -0.168493, 0.841111, -32.807053, -33.348907, -83.392609
1759224944.826515, -2.259977, 1.985092, -4.640561, -0.493634, -0.706920, 0.676825, -32.665527, -33.863937, -84.072052
1759224944.846459, -5.132570, 2.538452, -2.799121, -0.716365, -1.076930, 0.215446, -32.181808, -34.502518, -84.420807
1759224944.866549, -4.908712, 3.349039, -2.330905, -0.455623, -1.548352, -0.567356, -30.921478, -34.274704, -84.831940
1759224944.886480, -7.957578, 1.700781, -4.813393, 0.423447, -2.942568, -1.353164, -28.759430, -33.887299, -86.704773
1759224944.906473, -4.497957, 3.973776, -6.905626, 0.893693, -1.869592, -1.880656, -27.154526, -31.921112, -87.574692
1759224944.926470, 1.085172, 3.970783, -10.217854, 2.238833, 0.413845, -1.823234, -27.236801, -29.821869, -87.292862
1759224944.946467, 3.992780, 9.697714, -1.329979, 3.713686, 1.016296, -2.067243, -27.329132, -26.838318, -86.209900
1759224944.965801, 8.255507, 24.234259, 2.094029, 4.489589, 2.064681, -2.750449, -29.157013, -22.204498, -85.256638
1759224944.986467, 17.725622, 34.340783, 4.039168, 3.385481, 0.494226, -1.220596, -29.740829, -18.997894, -84.622223
1759224945.006470, 13.093889, 30.054264, 3.909881, 0.980017, -5.006034, -0.954432, -27.256516, -17.876328, -86.937668
1759224945.026468, 11.097574, 20.778827, -1.177648, -1.371751, -8.712932, -2.797255, -22.808167, -16.798447, -92.083328
1759224945.046536, 11.196035, 16.345364, -9.356839, -0.279458, -2.848905, -3.008444, -20.791718, -14.663177, -94.783356
1759224945.066211, 3.417573, 15.250466, -3.645771, 2.218896, 0.750457, -2.705075, -21.491531, -12.331497, -95.242218
1759224945.086495, 0.281169, 14.005182, 2.004396, 2.253625, 0.711992, -2.046424, -22.579666, -9.999161, -95.412582
1759224945.106466, 2.911499, 9.529072, 1.918055, 1.168750, 0.798756, -0.429407, -22.751526, -8.684402, -95.704636
1759224945.125785, 3.502418, 6.967426, 1.834108, 0.680741, 1.875125, 0.624754, -23.329086, -8.944733, -94.464539
1759224945.146477, 4.374057, 1.916409, 3.043928, 0.228940, 1.341748, 0.890831, -23.992844, -8.892548, -93.711273
1759224945.166458, 4.783465, -2.663250, 4.333655, -0.441927, 0.658889, 0.579135, -24.409927, -9.809097, -93.155151
1759224945.186451, 2.136077, -5.419575, 3.632752, -0.931323, 1.026626, 0.694857, -24.618958, -10.558929, -92.700348
1759224945.206387, 1.042376, -4.378696, 4.180875, -0.939065, 2.277938, 0.787808, -25.478760, -11.219635, -91.091614
1759224945.226563, 0.115969, -3.525312, 4.211550, -1.122712, 2.700330, 0.572570, -26.849487, -12.263779, -89.366165
1759224945.246479, -1.228525, -2.975244, -1.774403, 2.865320, -1.342275, -0.604149, -27.072006, -11.924896, -88.798386
1759224945.266448, -3.343503, 7.217770, -30.470107, 0.448759, 0.555475, -0.645826, -27.569366, -10.138885, -89.603531
1759224945.285826, -0.306308, 10.170269, 10.163835, -4.070817, -2.208723, 0.012820, -26.934784, -11.446777, -89.798004
1759224945.306482, 1.881244, 0.183456, 4.548085, -3.201855, -2.084176, 0.662085, -25.431824, -13.883408, -90.536331
1759224945.326654, 4.666598, 4.551377, 4.132392, -1.209496, -3.057137, 1.295577, -24.221909, -15.335220, -90.899796
1759224945.346480, 19.119346, 19.214815, 6.104616, 0.808220, -2.549743, 2.372341, -22.563126, -16.398041, -92.835785
1759224945.366629, 9.165303, 13.226468, 3.368193, 0.828101, -0.601838, 0.713970, -20.968430, -17.149170, -94.457581
1759224945.386481, 5.673061, 7.407959, 3.719542, -0.678300, 0.866921, 1.377680, -21.574158, -17.884918, -93.899673
1759224945.406509, 14.750976, 17.932421, -1.104774, -2.262847, 1.987295, 2.668720, -21.847397, -19.998184, -92.909180
1759224945.426659, 6.598569, 21.026926, 4.889409, -2.526616, 3.181780, 1.613799, -23.402328, -22.772415, -90.979630
1759224945.446464, 3.432238, 18.417546, -1.010802, -1.942398, 1.389671, 1.713900, -25.447235, -24.536606, -88.906967
1759224945.466620, 4.960636, 13.622409, -2.240524, -1.696430, 2.104859, 2.583044, -25.921631, -26.807968, -89.159668
1759224945.486460, 6.723816, 14.610017, -2.915838, -2.944321, 3.994065, 2.686999, -28.278824, -29.788086, -87.487823
1759224945.506522, 4.443040, 23.728783, -6.088754, -3.006690, 0.269078, 1.966671, -30.484802, -33.087326, -86.243912
1759224945.526444, -2.064400, 18.005594, -11.492467, -1.860048, -1.901221, 1.496111, -29.878311, -35.553589, -87.934647
1759224945.545518, -4.844218, 8.290821, -9.616311, -0.967397, 0.546835, 1.158184, -29.925842, -36.292313, -88.514160
1759224945.566427, -5.381866, 3.123386, -7.913585, -0.262202, 0.959206, 0.667370, -30.402817, -37.842422, -88.792480
1759224945.586489, -3.032705, 3.662829, -3.206135, 0.353506, 0.651517, 0.044291, -31.355087, -37.947693, -87.167099
1759224945.606443, -3.732111, 1.284938, -3.016096, 0.679267, -1.262748, -0.102053, -31.285645, -37.287369, -87.163010
1759224945.626441, -6.839486, 0.462380, -3.051859, 1.022743, -1.794637, -0.954702, -30.191971, -36.741577, -88.354538
1759224945.646449, -7.951742, 3.447052, -2.625392, 1.672469, -1.185690, -2.232622, -29.113052, -34.980820, -88.586060
1759224945.666455, 0.972944, 8.076390, -2.920776, 3.397281, 0.565441, -2.906636, -28.205856, -32.411621, -87.979950
1759224945.686446, 5.670517, 21.067628, -2.944419, 4.161161, 2.087002, -3.481919, -28.200226, -28.164215, -87.023193
1759224945.706450, 12.747328, 25.864860, -2.338387, 3.646409, 0.367052, -2.427979, -29.144318, -23.758316, -86.151703
1759224945.726492, 18.271649, 25.517252, 4.454861, 1.923387, -2.856229, -1.001080, -28.899200, -20.789078, -86.511215
1759224945.745631, 19.074455, 23.993043, 7.327155, 0.169815, -6.825239, -1.194794, -26.241623, -19.404526, -88.784088
1759224945.766478, 15.627403, 19.539080, 1.203835, -0.195597, -4.494795, -2.409373, -22.782349, -18.467606, -92.978012
1759224945.785808, 8.233809, 15.635035, -4.858434, 1.392412, -0.790457, -2.847518, -21.875565, -16.439850, -94.894760
1759224945.806484, 3.662530, 15.367632, -1.019930, 1.830304, -0.122200, -2.484401, -22.230957, -12.468826, -95.965073
1759224945.826442, 1.442656, 12.096554, 2.511518, 1.232000, 0.451066, -1.643587, -22.511520, -10.935944, -95.814758
1759224945.846441, 1.956961, 6.975656, 2.598307, 1.006699, 1.845473, -0.807920, -23.448715, -9.934448, -95.070663
1759224945.866431, 1.853711, 1.356465, 2.684948, 0.604935, 1.463060, -0.024851, -24.670776, -9.436234, -94.068100
1759224945.886215, 1.160889, -3.511396, 4.800823, 0.085927, 1.243430, 0.189108, -24.986526, -9.882843, -93.308517
1759224945.906438, -0.005088, -5.396231, 6.627150, -0.818957, 2.446648, 0.454327, -26.429291, -10.274124, -92.032227
1759224945.926443, 0.239121, -5.679495, 5.323208, -0.826572, 3.755774, 0.738262, -28.409195, -11.364517, -89.390320
1759224945.946455, 0.322619, -5.444564, 0.394594, -0.354785, 2.362734, 0.611182, -29.432495, -11.670471, -89.206665
1759224945.966415, 3.023727, -5.904401, -14.702493, 2.349821, -0.310182, 0.821646, -29.265182, -10.370667, -88.685883
1759224945.986439, 1.135450, 10.224438, -14.935180, 1.094227, 1.235102, -0.047518, -29.522079, -10.179550, -89.086823
1759224946.006440, -2.100164, 7.486669, 5.885546, -2.570076, -3.099993, -0.962574, -28.640289, -11.423386, -89.209076
1759224946.026373, 1.424101, 0.086191, 5.379322, -3.476618, -1.729959, -0.464500, -27.529053, -13.031677, -88.691513
1759224946.046493, 5.570709, 6.069301, 6.257994, -2.568325, -2.580267, 0.354707, -25.665833, -14.803101, -91.069199
1759224946.066459, 22.128409, 25.167100, 4.953154, -0.325069, -5.740476, 2.837436, -23.351105, -16.284592, -94.612961
1759224946.086631, 7.568071, 11.617714, 0.314538, 1.942752, -1.626544, 1.113913, -22.249557, -16.198120, -96.038879
1759224946.105884, 4.888960, 8.136994, 9.630975, -0.570690, 2.067332, 0.194753, -23.495605, -16.862564, -93.842026
1759224946.126631, 14.570513, 15.130008, -1.834707, -2.265685, 3.160635, 2.247351, -24.543137, -19.295624, -91.636841
