SamplingTime, AccelerationX, AccelerationY, AccelerationZ, GyroX, GyroY, GyroZ, MagneticFieldX, MagneticFieldY, MagneticFieldZ, Latitude, Longitude
1759224924.652561, 1.179144, -4.242076, -8.462904, -0.083283, -0.949638, 0.849644, -20.525085, -67.599319, -210.942429, , 
1759224924.672231, 1.002722, -4.252102, -8.044218, 0.134539, -1.298564, 0.940765, -20.502655, -67.030121, -210.330551, , 
1759224924.692569, 0.521637, -4.085256, -7.751228, 0.551088, -1.400343, 0.994481, -20.671722, -66.859726, -209.199432, , 
1759224924.711957, 0.015712, -4.174440, -7.594707, 0.930365, -1.313611, 1.018149, -20.561707, -66.865494, -209.494843, 13.724687, 100.771837
1759224924.732327, -0.241515, -4.441843, -8.373870, 0.993397, -1.332057, 1.043409, -20.749359, -66.595383, -209.354523, 13.724715, 100.771717
1759224924.752597, -0.513107, -4.462642, -8.694843, 0.868177, -1.402103, 1.113626, -20.650864, -66.540466, -209.941269, 13.724715, 100.771717
1759224924.772821, -0.830489, -4.430769, -8.632294, 0.745373, -1.317525, 1.273276, -20.570923, -66.226135, -208.596649, 13.724715, 100.771717
1759224924.792826, -1.591546, -4.523694, -8.419509, 0.831201, -1.072609, 1.316238, -20.490341, -65.831924, -208.767532, 13.724715, 100.771717
1759224924.812798, -1.986290, -4.781071, -8.870517, 0.961114, -1.235793, 1.146996, -20.545639, -65.679306, -208.761490, 13.724715, 100.771717
1759224924.832834, -2.647538, -5.592556, -8.122030, 1.079018, -1.238279, 1.057172, -20.389923, -65.858231, -208.055649, 13.724715, 100.771717
1759224924.852606, -2.874239, -5.210531, -7.982418, 1.030595, -1.303499, 0.943434, -20.224243, -65.482544, -208.678253, 13.724715, 100.771717
1759224924.872843, -3.056947, -5.531953, -7.620445, 0.916477, -1.280432, 0.830599, -20.902512, -65.515427, -208.426651, 13.724715, 100.771717
1759224924.892845, -3.421015, -5.273678, -7.134871, 0.772310, -1.189269, 0.878974, -20.388336, -65.122437, -207.771423, 13.724715, 100.771717
1759224924.912099, -3.261651, -4.776283, -6.961890, 0.463124, -1.080065, 0.862988, -20.364487, -64.894287, -208.036148, 13.724715, 100.771717
1759224924.932857, -3.558681, -5.060594, -6.748656, 0.020272, -0.798888, 0.714104, -20.311493, -64.791748, -207.392197, 13.724715, 100.771717
1759224924.952596, -4.772242, -5.656152, -7.340622, -0.226284, -0.925553, 0.571847, -20.284470, -64.500229, -206.847244, 13.724715, 100.771717
1759224924.972833, -4.774786, -5.484069, -7.586627, 0.033939, -1.205160, 0.436335, -20.654556, -63.915588, -206.221344, 13.724715, 100.771717
1759224924.992869, -4.437952, -5.109526, -6.489184, 0.262628, -1.190109, 0.366826, -20.934860, -64.171722, -205.639008, 13.724715, 100.771717
1759224925.011961, -4.603002, -4.598513, -6.615778, 0.541667, -1.190722, 0.296625, -21.014572, -64.302582, -205.702957, 13.724715, 100.771717
1759224925.032858, -5.075109, -4.678569, -6.727707, 0.542926, -1.096645, 0.221531, -21.202225, -64.295074, -205.061432, 13.724715, 100.771717
1759224925.052612, -5.366902, -4.637419, -7.234679, 0.429834, -1.206290, 0.292285, -21.168335, -64.197067, -204.160721, 13.724715, 100.771717
1759224925.072831, -5.649268, -4.559308, -7.241861, 0.370753, -1.298296, 0.277587, -21.784744, -63.895615, -204.200516, 13.724715, 100.771717
1759224925.092841, -5.935076, -4.876091, -7.013365, 0.225119, -1.197016, 0.248027, -22.052002, -64.530716, -203.535141, 13.724715, 100.771717
1759224925.111964, -5.855319, -4.675427, -6.688801, 0.047451, -1.102938, 0.213009, -21.968231, -64.141754, -203.242996, 13.724715, 100.771717
1759224925.132842, -6.073641, -4.349367, -6.011840, -0.124038, -0.863877, 0.228151, -22.428894, -63.724258, -202.403931, 13.724715, 100.771717
1759224925.152585, -6.475418, -4.375104, -6.336704, -0.421065, -0.771920, 0.331789, -22.354492, -63.677719, -201.902664, 13.724715, 100.771717
1759224925.172838, -6.512677, -4.485088, -6.589890, -0.646735, -0.833422, 0.451439, -22.435715, -62.806595, -201.446625, 13.724715, 100.771717
1759224925.192855, -6.180781, -4.273351, -4.784513, -0.557968, -0.632231, 0.426401, -22.059952, -62.637253, -200.379974, 13.724792, 100.771989
1759224925.211998, -6.321141, -4.035577, -3.880851, -0.372547, -0.146685, 0.322855, -22.049255, -62.797424, -200.510254, 13.724792, 100.771989
1759224925.232928, -6.506093, -3.703082, -3.751265, -0.249909, 0.390697, 0.268785, -21.808563, -62.246246, -200.344604, 13.724792, 100.771989
1759224925.252653, -6.740875, -3.717746, -5.261258, -0.166330, 0.522013, 0.262175, -21.750549, -62.052551, -199.842102, 13.724792, 100.771989
1759224925.272842, -6.930466, -4.090643, -6.371120, -0.218122, 0.366626, 0.349960, -21.319534, -62.013214, -200.007492, 13.724792, 100.771989
1759224925.292854, -6.996605, -4.203171, -6.305130, -0.291691, 0.162644, 0.458609, -20.897552, -61.561218, -200.343369, 13.724792, 100.771989
1759224925.311957, -6.847566, -4.127155, -5.743540, -0.267194, -0.044081, 0.428195, -21.022583, -61.261703, -200.016922, 13.724792, 100.771989
1759224925.332851, -6.875549, -4.021960, -5.795315, -0.208909, -0.257894, 0.459286, -20.350357, -61.030609, -199.884918, 13.724792, 100.771989
1759224925.352615, -7.348703, -4.456657, -5.780501, -0.225471, -0.364090, 0.551914, -20.119858, -61.200897, -199.856339, 13.724792, 100.771989
1759224925.372819, -6.983437, -4.573973, -5.468806, -0.303937, -0.296970, 0.632580, -19.654938, -60.822205, -199.212021, 13.724792, 100.771989
1759224925.392896, -6.810007, -4.158579, -5.602881, -0.319484, -0.381864, 0.617485, -19.512344, -60.317474, -198.678925, 13.724792, 100.771989
1759224925.411977, -6.526145, -3.691709, -5.227889, -0.339733, -0.168520, 0.345615, -19.462799, -59.939911, -199.065689, 13.724792, 100.771989
1759224925.432853, -6.422745, -3.371934, -5.018845, -0.349368, 0.060845, 0.041314, -19.510437, -59.738464, -198.113083, 13.724792, 100.771989
1759224925.452636, -6.745214, -3.001730, -4.702960, -0.268048, 0.250267, -0.041411, -19.301361, -59.512451, -197.931305, 13.724792, 100.771989
1759224925.472827, -6.912210, -3.759346, -4.687548, -0.062261, 0.368555, -0.070694, -19.325302, -59.511581, -198.479050, 13.724792, 100.771989
1759224925.492867, -6.490980, -4.895544, -5.049820, 0.076514, 0.357832, 0.177199, -19.243759, -59.469788, -198.941376, 13.724792, 100.771989
1759224925.511971, -5.999570, -4.655824, -6.086210, 0.015389, 0.139940, 0.377064, -19.147018, -59.489853, -198.547745, 13.724792, 100.771989
1759224925.532850, -5.135114, -3.348141, -6.321291, -0.272049, 0.094495, 0.260896, -18.883759, -59.184937, -198.799805, 13.724792, 100.771989
1759224925.552639, -4.471471, -2.577807, -5.584326, -0.591788, 0.199768, 0.063404, -18.899185, -59.025909, -198.638885, 13.724792, 100.771989
1759224925.572274, -5.207389, -2.201618, -4.992060, -0.804841, 0.229789, 0.066922, -18.722824, -59.105545, -198.074661, 13.724792, 100.771989
1759224925.592174, -5.664681, -0.807445, -4.670788, -1.087447, 0.153350, 0.006844, -18.545090, -58.587997, -197.452103, 13.724792, 100.771989
1759224925.611985, -4.993556, 0.483928, -5.074810, -1.355874, 0.039644, -0.518114, -18.490051, -58.719254, -196.793289, 13.724792, 100.771989
1759224925.632879, -4.422539, 1.893664, -6.703016, -1.776150, -0.326081, -1.066042, -19.628937, -58.757599, -195.186752, 13.724792, 100.771989
1759224925.652575, -5.258415, 0.844106, -7.811382, -2.332354, -0.538457, -0.985644, -20.110001, -58.834030, -193.870422, 13.724792, 100.771989
1759224925.672879, -5.389797, -0.765546, -8.221838, -3.062057, -0.712294, -0.481535, -20.741867, -58.726303, -190.320236, 13.724792, 100.771989
1759224925.692889, -6.011242, -1.105223, -7.081450, -3.428340, -1.062002, 0.106947, -20.838013, -58.897491, -189.602600, 13.724792, 100.771989
1759224925.711999, -5.493945, -0.111031, -5.846192, -3.315353, -1.370891, 0.550810, -20.508865, -58.786072, -186.281876, 13.724792, 100.771989
1759224925.732628, -5.241207, 1.508197, -6.154595, -3.123899, -1.753488, 1.001649, -19.423172, -58.558105, -183.889557, 13.724792, 100.771989
1759224925.752582, -4.917241, 2.331055, -5.734263, -3.164285, -1.597400, 1.223219, -18.799133, -58.082397, -180.453110, 13.724792, 100.771989
1759224925.772882, -4.629339, 3.556587, -5.817461, -3.112308, -1.343927, 1.117535, -17.879730, -58.016266, -177.971466, 13.724792, 100.771989
1759224925.792937, -5.442619, 3.291728, -4.929063, -2.778977, -0.722805, 1.053138, -17.028397, -58.520813, -175.624344, 13.724792, 100.771989
1759224925.811970, -6.178986, 2.791639, -4.814291, -2.259974, -0.298672, 1.182248, -16.181656, -58.795975, -173.858856, 13.724792, 100.771989
1759224925.832910, -7.317578, 2.558055, -4.808455, -1.596206, -0.194242, 1.404406, -15.181763, -58.848969, -172.292831, 13.724792, 100.771989
1759224925.852624, -9.463082, 3.331232, -5.511153, -1.134722, -0.149369, 1.723516, -14.195068, -58.363373, -171.427628, 13.724792, 100.771989
1759224925.872887, -11.298387, 3.648314, -6.686407, -1.255784, -0.134331, 2.026434, -11.967133, -57.935867, -169.679520, 13.724792, 100.771989
1759224925.892912, -12.252626, 3.337816, -6.949170, -1.431315, -0.092752, 2.364100, -10.702164, -57.737961, -170.362259, 13.724792, 100.771989
1759224925.912843, -11.844415, 3.158551, -7.497442, -1.331577, -0.609356, 2.478097, -9.321136, -57.453369, -168.456207, 13.724792, 100.771989
1759224925.931913, -12.085780, 3.072958, -6.456563, -1.333216, -0.673272, 2.459555, -7.201019, -57.404617, -167.764679, 13.724792, 100.771989
1759224925.952620, -11.796830, 3.410540, -6.512079, -1.451251, -0.687286, 2.269634, -5.273453, -57.134964, -166.714645, 13.724792, 100.771989
1759224925.972352, -11.293749, 4.027346, -6.166715, -1.621856, -0.585208, 1.847946, -3.244766, -57.359238, -165.046188, 13.724792, 100.771989
1759224925.992188, -10.596138, 4.125808, -5.773767, -1.646166, -0.355712, 1.516061, -2.394974, -58.252533, -164.328461, 13.724792, 100.771989
1759224926.011984, -10.296264, 4.165612, -5.347150, -1.427382, 0.039552, 1.195224, -1.189926, -58.654404, -163.335922, 13.724792, 100.771989
1759224926.032956, -10.030209, 4.127454, -6.612037, -1.216770, 0.031795, 0.957728, -0.629837, -59.090393, -162.367462, 13.724792, 100.771989
1759224926.052602, -10.131813, 3.976021, -8.085967, -1.079387, -0.202786, 0.793404, 0.154968, -59.652863, -161.779922, 13.724792, 100.771989
1759224926.072396, -9.608979, 4.147057, -7.799561, -1.399143, 0.305263, 0.625285, 0.344513, -60.319946, -161.553864, 13.724792, 100.771989
1759224926.092893, -8.372374, 3.796007, -8.868721, -1.442696, 0.229027, 0.125331, 0.736374, -61.248672, -160.411301, 13.724792, 100.771989
1759224926.111980, -8.762329, 2.575712, -8.504504, -1.041456, 0.050407, -0.268329, 0.724503, -61.678726, -159.173325, 13.724792, 100.771989
1759224926.132892, -9.204059, 1.522413, -8.058434, -0.705971, -0.005561, -0.378709, 0.399872, -62.065308, -159.052719, 13.724792, 100.771989
1759224926.152573, -8.913912, 0.104148, -8.330176, -0.133442, -0.450791, -0.122459, 0.293030, -62.273102, -158.618591, 13.724792, 100.771989
1759224926.172840, -7.690325, 1.305289, -6.863129, -0.252590, -0.001556, -0.155016, 0.423477, -62.115204, -158.822189, 13.724792, 100.771989
1759224926.192175, -6.417658, 1.312471, -7.110480, -0.021174, 0.052087, -0.161396, 0.142868, -62.385513, -158.528229, 13.724792, 100.771989
1759224926.211993, -6.176891, 1.354370, -6.542306, 0.276578, -0.035998, -0.264906, -0.028885, -62.402191, -159.062134, 13.724792, 100.771989
1759224926.232201, -5.901408, 2.310405, -5.957971, 0.501077, -0.246960, -0.765207, -0.392792, -61.870270, -159.021408, 13.724792, 100.771989
1759224926.252553, -5.316923, 2.719514, -6.053589, 0.538795, -0.567554, -1.099276, -0.985672, -62.000259, -158.693481, 13.724792, 100.771989
1759224926.272875, -4.498106, 4.134786, -4.611232, 0.170547, -0.330293, -1.282023, -1.045990, -61.935516, -159.050186, 13.724792, 100.771989
1759224926.292831, -5.408502, 3.836559, -4.355651, -0.354624, 0.260325, -1.167101, -1.444168, -62.170517, -158.740875, 13.724792, 100.771989
1759224926.311981, -5.794118, 4.124461, -4.338293, -0.889302, 0.776438, -0.986502, -2.913284, -62.948990, -158.152481, 13.724793, 100.771981
1759224926.332195, -5.401917, 4.175937, -4.566191, -1.120220, 0.888860, -0.989713, -3.717361, -63.617905, -158.105377, 13.724793, 100.771981
1759224926.352556, -4.967520, 4.621857, -4.039467, -1.142128, 1.195580, -1.197398, -5.222336, -64.318771, -157.795197, 13.724793, 100.771981
1759224926.372836, -3.829675, 7.004985, -3.867384, -1.086828, 1.385042, -1.752530, -6.292679, -65.264862, -157.947998, 13.724793, 100.771981
1759224926.392907, -6.444892, 5.217265, -3.627814, -0.698979, 1.107391, -1.569676, -8.010910, -66.056107, -157.967453, 13.724793, 100.771981
1759224926.411983, -10.047267, 3.252074, -4.429722, 0.107953, 0.129107, -0.691422, -9.305344, -66.631622, -156.900635, 13.724793, 100.771981
1759224926.432354, -10.342053, 4.932205, -4.614824, 0.623527, -0.903337, -0.521545, -9.006775, -66.369980, -157.645004, 13.724793, 100.771981
1759224926.452554, -10.035147, 6.970120, -4.008791, 0.841654, -1.575135, -0.887127, -8.702255, -66.018433, -157.481216, 13.724793, 100.771981
1759224926.472832, -9.902418, 6.363339, -2.654122, 0.975967, -1.095168, -0.763356, -7.853409, -65.932159, -157.726807, 13.724793, 100.771981
1759224926.492912, -9.657761, 4.992359, -2.472312, 0.789266, -0.389015, -0.108317, -7.912445, -65.248154, -158.011215, 13.724793, 100.771981
1759224926.512852, -9.479243, 5.871929, -3.623624, 0.472574, -0.153462, 0.312921, -7.728439, -65.064835, -158.465851, 13.724793, 100.771981
1759224926.532339, -8.492533, 6.350770, -4.556016, 0.384542, -0.182157, 0.488050, -7.777954, -64.954330, -158.680878, 13.724793, 100.771981
1759224926.552558, -7.161656, 4.608838, -4.658219, 0.469372, 0.050136, 0.812286, -7.378159, -64.303650, -158.995483, 13.724793, 100.771981
1759224926.572507, -6.156540, 4.960786, -4.896442, 0.285480, -0.024270, 0.936995, -6.653290, -64.022171, -158.975662, 13.724793, 100.771981
1759224926.592298, -6.385635, 6.596624, -3.283199, 0.031835, -0.212319, 0.540033, -6.169006, -63.621704, -158.914719, 13.724793, 100.771981
1759224926.612851, -6.788011, 6.908319, -1.437269, -0.009953, -0.404661, 0.313484, -5.588089, -63.474670, -158.518494, 13.724793, 100.771981
1759224926.632349, -6.950816, 6.063465, -0.350152, 0.345199, -0.737867, 0.561557, -5.101685, -63.405502, -158.985870, 13.724793, 100.771981
1759224926.652543, -9.697265, 2.221969, 0.933140, 0.510065, -0.711919, 1.747791, -4.118607, -62.873810, -158.541138, 13.724793, 100.771981
1759224926.672338, -10.726772, 0.976834, -0.072125, 0.641763, 0.434859, 3.170877, -2.424713, -62.456833, -159.860733, 13.724793, 100.771981
1759224926.692891, -8.968380, 2.567183, -5.801151, 1.166221, 0.434479, 3.004595, -1.123734, -61.426666, -160.209320, 13.724793, 100.771981
1759224926.711979, -2.366968, 6.620117, -15.868320, 1.029396, -2.721755, 1.327288, 1.217865, -60.484467, -160.523132, 13.724793, 100.771981
1759224926.732358, -6.443694, 9.065645, -3.218555, 0.503552, -2.465813, 0.752353, 3.434982, -60.015991, -160.917770, 13.724793, 100.771981
1759224926.752545, -3.766378, 9.702353, 0.711676, 0.032309, -1.359118, 0.341824, 4.504913, -59.664398, -160.656830, 13.724793, 100.771981
1759224926.772008, -4.734384, 7.142053, -1.620875, -0.238959, -1.332550, 0.609958, 5.724976, -59.927658, -161.851105, 13.724793, 100.771981
1759224926.792988, -6.142624, 5.311836, -2.448670, -0.374633, -1.415867, 1.258528, 7.048965, -60.191483, -161.063110, 13.724793, 100.771981
1759224926.811987, -7.186047, 3.560477, -2.403330, -0.424190, -1.753458, 1.866367, 8.699371, -60.353058, -160.545868, 13.724793, 100.771981
1759224926.832358, -7.412299, 3.538480, -2.244414, -0.537416, -1.791535, 2.547938, 11.205673, -61.013123, -160.448807, 13.724793, 100.771981
1759224926.852526, -6.506692, 4.009689, -2.208052, -0.766646, -1.424292, 3.034165, 13.705521, -61.854080, -159.813477, 13.724793, 100.771981
1759224926.872162, -5.963956, 5.908590, -2.390610, -0.956072, -0.719370, 2.819111, 16.131378, -62.880280, -159.562668, 13.724793, 100.771981
1759224926.891969, -5.270685, 7.208792, -2.481440, -0.860857, -0.538760, 2.303076, 17.793594, -64.012848, -159.954910, 13.724793, 100.771981
1759224926.911978, -5.806238, 7.140856, -1.981950, -0.648427, -0.601388, 2.114179, 19.616455, -64.804352, -159.281906, 13.724793, 100.771981
1759224926.932282, -5.192126, 8.205977, -2.354398, -0.574565, -0.779893, 1.796252, 21.175049, -65.609756, -159.145554, 13.724793, 100.771981
1759224926.952521, -5.173122, 8.548497, -1.209371, -0.577382, -0.949873, 1.560363, 22.164429, -66.790512, -158.834061, 13.724793, 100.771981
1759224926.972833, -6.357204, 7.349002, -0.465672, -0.589183, -0.848859, 1.676675, 24.085556, -67.590744, -159.427597, 13.724793, 100.771981
1759224926.992156, -3.170222, 10.092907, 3.319261, -0.247890, 0.005665, 0.844967, 24.656326, -68.007568, -158.748337, 13.724793, 100.771981
1759224927.012853, -4.911106, 9.563190, 0.206500, -0.372985, 0.093271, 0.541672, 24.464691, -68.134720, -158.644852, 13.724793, 100.771981
1759224927.032353, -6.042965, 7.744644, -1.511190, -0.565892, -0.158734, 0.890053, 24.664841, -68.794159, -158.752975, 13.724793, 100.771981
1759224927.052528, -5.588216, 7.290494, -1.618929, -0.671663, -0.360398, 1.138195, 25.156982, -69.621231, -157.724472, 13.724793, 100.771981
1759224927.072846, -6.261137, 6.410475, -1.377863, -0.830397, -0.445342, 1.330774, 26.186081, -70.662827, -158.694992, 13.724793, 100.771981
1759224927.092888, -0.231340, 11.956194, 1.451335, -0.376537, 0.661303, -0.180159, 26.137802, -70.894012, -158.182373, 13.724793, 100.771981
1759224927.111965, -5.899014, 11.568034, -1.022923, -0.278083, 1.225896, -0.179213, 25.102768, -71.115707, -156.745972, 13.724793, 100.771981
1759224927.132262, -4.949713, 10.887482, -3.310283, -0.375005, -0.061942, -0.061328, 25.287918, -71.424637, -156.991119, 13.724793, 100.771981
1759224927.152564, -5.833173, 8.746318, -1.512387, -0.090970, -0.600432, 0.109077, 25.769485, -71.370651, -156.571930, 13.724793, 100.771981
1759224927.172830, -5.477784, 7.432949, -1.501913, 0.046667, -0.685950, 0.134440, 26.315109, -71.208099, -157.293335, 13.724793, 100.771981
1759224927.192874, -4.886266, 7.671920, -2.029684, 0.020136, -0.908762, 0.087482, 26.508499, -71.279633, -157.465271, 13.724793, 100.771981
1759224927.211967, -5.290737, 7.475146, -2.018761, 0.041945, -1.108604, 0.249644, 27.430557, -71.478363, -157.935837, 13.724793, 100.771981
1759224927.232277, -6.059425, 7.619547, -2.387767, 0.152309, -1.385175, 0.552169, 28.099655, -71.934021, -159.107574, 13.724793, 100.771981
1759224927.252547, -5.654057, 7.819313, -2.421286, 0.344514, -0.964702, 0.724382, 28.381470, -71.923096, -158.759628, 13.724793, 100.771981
1759224927.272896, -5.918317, 8.101978, -1.199794, 0.809739, 0.320357, 0.538132, 29.217773, -71.750656, -159.762299, 13.724793, 100.771981
1759224927.292860, -5.782446, 9.463980, 0.093524, 1.034833, 1.711091, 0.042684, 28.702835, -71.317703, -159.451691, 13.724793, 100.771981
1759224927.311964, -4.871602, 10.882395, -0.121805, 0.918033, 2.581534, -0.729832, 26.794983, -70.240356, -158.940689, 13.724793, 100.771981
1759224927.332264, -2.946065, 12.750321, 0.270994, 1.170662, 2.211579, -1.632719, 24.970276, -69.369492, -158.462097, 13.724793, 100.771981
1759224927.352499, -2.342726, 12.290485, -0.214730, 1.408555, 1.333633, -2.011255, 22.631317, -68.049332, -157.923126, 13.724793, 100.771981
1759224927.372856, -1.657087, 11.820024, -0.400131, 1.565362, 0.951647, -1.980493, 21.379501, -66.278854, -159.428482, 13.724793, 100.771981
1759224927.392840, -3.355623, 12.298415, -2.403030, 1.863010, -0.597020, -1.111601, 20.623978, -64.851501, -160.298325, 13.724793, 100.771981
1759224927.411935, -4.068347, 11.301081, -2.829797, 1.893946, -1.158126, -0.445692, 20.550690, -63.741043, -160.636246, 13.724793, 100.771981
1759224927.432246, -5.536142, 11.318738, -4.334852, 1.614869, -0.904674, -0.205450, 20.619354, -62.642380, -162.545959, 13.724749, 100.771924
1759224927.452522, -5.239860, 10.901548, -5.074211, 1.687608, -1.106947, -0.155473, 20.981293, -61.644226, -163.345169, 13.724749, 100.771924
1759224927.472809, -3.407548, 10.565762, -3.216311, 1.508931, -1.318640, -0.301934, 22.009644, -60.961227, -164.595871, 13.724749, 100.771924
1759224927.492857, -2.642899, 8.485500, -1.077540, 1.175249, -1.025032, -0.500702, 22.013687, -60.426498, -166.283173, 13.724749, 100.771924
1759224927.511959, -2.757821, 6.536320, 0.132130, 0.989422, -0.723828, -0.650455, 22.139526, -60.069382, -166.176849, 13.724749, 100.771924
1759224927.532825, -3.481319, 6.458209, -0.195277, 0.752183, -0.605244, -0.636278, 22.079391, -59.363632, -166.960434, 13.724749, 100.771924
1759224927.552503, -4.962282, 7.111377, -1.558176, 0.530655, -0.586645, -0.531587, 21.760193, -59.124649, -167.870956, 13.724749, 100.771924
1759224927.572925, -4.534468, 7.459734, -2.621501, 0.377910, -0.429299, -0.634376, 21.754150, -58.649292, -168.943588, 13.724749, 100.771924
1759224927.592943, -3.775656, 7.013365, -2.523937, 0.096199, 0.062369, -0.669344, 21.184738, -58.254959, -169.016403, 13.724749, 100.771924
1759224927.611979, -2.879776, 6.334309, -1.350180, -0.081220, 0.060361, -0.481948, 20.710403, -58.331146, -168.231659, 13.724749, 100.771924
1759224927.632342, -2.471265, 4.245368, -1.052551, -0.297010, -0.125170, -0.114423, 21.007553, -58.304749, -168.657654, 13.724749, 100.771924
1759224927.652507, -2.578705, 4.359392, -1.548600, -0.535613, 0.141348, 0.324464, 20.886597, -58.427994, -168.176682, 13.724749, 100.771924
1759224927.672828, -3.930830, 2.806902, -1.905785, -0.519493, 0.100192, 0.973230, 21.299774, -59.212036, -167.839020, 13.724749, 100.771924
1759224927.692087, -3.465308, 2.818125, -2.418742, -0.480850, -0.389429, 1.114185, 22.112503, -59.904007, -167.783585, 13.724749, 100.771924
1759224927.712846, -4.494365, 5.610363, -3.063381, -0.505072, -1.002368, 0.731698, 23.036484, -60.016296, -167.580887, 13.724749, 100.771924
1759224927.732278, -5.866243, 4.222773, -3.656544, -0.260087, -2.063524, 0.761290, 24.095795, -60.702682, -168.457977, 13.724749, 100.771924
1759224927.752476, -7.311742, 4.314950, -4.335899, 0.146193, -2.144068, 1.033229, 25.695663, -60.883408, -169.025208, 13.724749, 100.771924
1759224927.772858, -7.789086, 7.504924, -6.280889, 0.681697, -1.849222, 1.251553, 27.079559, -61.496490, -170.761917, 13.724749, 100.771924
1759224927.792951, -6.233903, 9.223961, -4.891055, 0.507020, -1.759833, 1.286487, 28.893860, -61.538452, -171.811783, 13.724749, 100.771924
1759224927.811938, -5.461623, 6.743568, -0.907702, 0.505244, -0.862080, 2.322695, 29.839996, -62.138565, -172.698868, 13.724749, 100.771924
1759224927.832361, -3.997419, 2.323423, -2.176329, 0.498741, -0.832622, 3.243361, 31.564743, -64.073959, -173.071854, 13.724749, 100.771924
1759224927.852502, -2.484283, 3.648015, -2.435053, -0.054473, -1.046971, 2.619450, 33.396347, -65.372055, -173.210724, 13.724749, 100.771924
1759224927.872903, -8.408885, 6.573580, -1.510741, -1.115382, 0.518767, 2.845831, 35.042465, -67.231567, -172.903107, 13.724749, 100.771924
1759224927.892045, -6.478111, 6.179135, 0.338780, -2.067500, 2.184917, 2.974008, 35.689438, -69.272049, -170.768845, 13.724749, 100.771924
1759224927.911983, -2.477251, 4.869657, -0.303315, -2.999356, 1.118086, 2.449369, 36.386032, -72.053467, -169.028305, 13.724749, 100.771924
1759224927.932245, -3.027767, 7.644985, 1.545158, -2.978923, -0.066414, 1.528344, 36.479767, -74.129303, -168.269928, 13.724749, 100.771924
1759224927.952485, -2.613720, 8.571990, 3.439271, -1.614370, -2.410375, 0.888080, 37.718536, -75.383148, -167.678543, 13.724749, 100.771924
1759224927.972862, -3.088071, 17.474979, 11.193491, -0.809261, 2.416110, -0.003944, 37.425751, -75.579727, -167.301895, 13.724749, 100.771924
1759224927.992846, -4.678270, 30.834025, 14.078504, -0.340125, 8.268712, 0.458564, 34.174179, -75.961670, -162.275391, 13.724749, 100.771924
1759224928.011983, -3.553145, 20.269012, 2.324022, -1.897157, 9.070929, 2.211173, 29.263519, -77.680359, -156.414383, 13.724749, 100.771924
1759224928.032370, 0.929100, 9.808745, 1.874510, -2.851940, 9.305952, 2.446022, 23.423309, -80.896439, -152.962540, 13.724749, 100.771924
1759224928.052480, 3.678990, 7.414543, 1.989582, -3.038699, 8.237704, 1.845036, 17.500488, -83.598755, -149.238571, 13.724749, 100.771924
1759224928.072834, 4.393210, 8.324190, 3.500472, -1.626882, 3.574649, 1.415705, 14.346893, -85.492493, -148.413864, 13.724749, 100.771924
1759224928.092831, 4.537760, 9.019407, 3.976320, 0.065881, -1.414039, 0.833656, 14.673523, -85.671356, -148.397568, 13.724749, 100.771924
1759224928.112848, 4.619612, 7.576451, 2.740762, 0.409165, -3.609567, 0.459985, 17.360413, -85.533035, -148.655975, 13.724749, 100.771924
1759224928.132359, 4.631733, 7.174674, 2.708890, 0.191895, -4.050893, 0.629143, 20.461990, -85.552902, -150.030823, 13.724749, 100.771924
1759224928.152474, 5.424213, 8.314464, 3.840599, 0.017969, -2.864480, 0.751986, 22.648087, -85.788818, -151.179062, 13.724749, 100.771924
1759224928.172822, 4.328567, 8.028506, 2.917933, -0.208419, -1.503431, 0.806158, 24.446396, -85.984406, -152.033600, 13.724749, 100.771924
1759224928.192892, 2.853589, 7.766192, 1.581669, -0.576821, -0.641756, 0.631264, 24.767822, -86.511597, -152.182571, 13.724749, 100.771924
1759224928.211947, 0.767491, 9.213337, -4.270657, -2.585230, 0.711304, 0.475017, 24.388168, -88.251526, -151.804077, 13.724749, 100.771924
1759224928.232296, 0.591817, 9.673921, -1.685518, -3.570665, 1.505917, -0.086384, 23.315445, -90.419510, -151.463440, 13.724749, 100.771924
1759224928.252469, -0.114323, 8.582764, -1.636736, -2.859531, 1.369725, -0.717558, 21.726974, -92.664932, -150.469681, 13.724749, 100.771924
1759224928.272831, -1.952621, 7.138911, -2.584840, -0.494465, -0.484242, -0.765606, 22.553528, -92.972961, -151.224915, 13.724749, 100.771924
1759224928.292892, -1.258901, 8.752303, 1.243788, 0.000323, -1.217363, -0.556054, 23.124268, -92.943832, -151.573807, 13.724749, 100.771924
1759224928.311977, -1.093252, 10.269928, 1.537227, -0.209324, -1.176182, -0.848361, 24.155991, -92.865417, -152.191116, 13.724749, 100.771924
1759224928.332338, -1.959654, 11.827805, 0.919373, -0.416313, -1.286068, -1.277418, 25.079910, -92.470947, -152.713074, 13.724749, 100.771924
1759224928.352478, -5.043835, 12.169128, -8.816797, 0.134189, -3.935789, -1.449181, 27.009888, -92.005310, -153.888504, 13.724749, 100.771924
1759224928.372819, -4.673033, 10.862942, -3.909432, 1.866403, -4.125891, -1.456850, 29.928680, -90.667343, -156.154922, 13.724749, 100.771924
1759224928.392890, -4.053832, 8.836998, -0.301071, 2.526234, -1.472322, -1.253270, 30.860825, -88.300812, -157.025925, 13.724737, 100.771905
1759224928.411974, -2.488922, 7.627029, -0.537947, 2.780156, 1.546566, -0.625391, 30.238510, -86.334793, -156.110931, 13.724737, 100.771905
1759224928.432284, 0.653767, 13.013683, -5.701193, 2.845093, 1.613474, -0.827328, 29.130554, -83.915558, -156.457809, 13.724737, 100.771905
1759224928.452472, -0.791583, 14.589666, -1.940052, 1.986688, 1.855425, -0.690920, 27.492798, -82.902634, -155.201508, 13.724737, 100.771905
1759224928.472833, -2.266710, 15.611841, 2.268656, 2.093057, 2.153269, -0.358410, 26.214767, -81.488876, -155.657486, 13.724737, 100.771905
1759224928.492906, -2.229451, 17.941848, 2.448969, 2.999014, 0.200347, -0.115626, 26.340134, -79.544479, -155.785339, 13.724737, 100.771905
1759224928.511974, -1.586757, 19.728521, 2.494309, 4.021407, -3.567526, 0.415841, 28.365631, -77.017181, -157.278351, 13.724737, 100.771905
1759224928.532003, 0.983867, 21.665729, 1.472434, 5.393737, -5.568439, 0.876325, 31.613190, -74.588562, -161.519089, 13.724737, 100.771905
1759224928.552483, 3.163189, 19.242049, -1.554286, 5.063002, -2.716515, 0.779421, 33.234573, -72.664246, -165.071899, 13.724737, 100.771905
1759224928.572828, 3.332579, 16.031425, -4.543596, 2.208742, 1.197359, 0.421603, 33.323212, -71.889435, -165.809525, 13.724737, 100.771905
1759224928.592883, -0.036212, 13.494618, -3.831022, 1.822590, 1.896594, -0.196340, 32.508087, -71.215408, -165.962097, 13.724737, 100.771905
1759224928.611973, -1.879598, 14.729877, -3.878158, 1.633654, 0.859150, -0.465184, 31.631470, -70.175903, -165.175522, 13.724737, 100.771905
1759224928.632868, -2.167201, 11.160571, -1.398513, 0.105107, 1.602641, -1.219961, 31.029633, -69.511032, -164.966095, 13.724737, 100.771905
1759224928.652524, -1.976563, 8.532187, 0.433949, -0.250098, 1.951323, -1.115069, 29.262787, -68.909866, -163.611832, 13.724737, 100.771905
1759224928.672818, -0.232986, 0.666336, 1.846827, -1.046802, 1.206267, -0.607862, 28.146011, -68.692368, -162.098969, 13.724737, 100.771905
1759224928.692832, 0.566378, -3.482516, 0.018555, -1.688655, -0.068554, -0.072965, 28.120895, -69.116089, -161.614456, 13.724737, 100.771905
1759224928.711954, 1.383699, -4.631882, -1.540220, -2.289127, -0.424701, 0.222634, 28.033569, -70.737640, -160.575699, 13.724737, 100.771905
1759224928.732354, 2.546533, -5.375731, 0.481983, -3.028024, -0.102671, 0.541478, 28.347641, -72.630859, -159.973404, 13.724737, 100.771905
1759224928.752465, 2.550274, -4.660463, 1.591546, -2.600251, -0.307579, 0.518407, 28.882095, -74.079147, -158.531158, 13.724737, 100.771905
1759224928.772831, 1.687463, -3.007417, -1.072004, -2.372123, -0.606467, 0.124752, 29.311050, -75.508591, -158.738617, 13.724737, 100.771905
1759224928.792844, 0.067935, -0.743250, -2.214637, -1.449150, 1.693769, -0.090892, 29.123383, -76.966400, -158.168289, 13.724737, 100.771905
1759224928.811973, -0.197821, 1.427992, -1.688810, -0.336316, 2.724994, -0.294639, 27.128876, -77.385559, -156.418289, 13.724737, 100.771905
1759224928.832308, -1.363498, 3.126678, -5.621885, 1.612845, 2.528419, -0.671378, 26.131287, -75.774536, -155.679108, 13.724737, 100.771905
1759224928.852482, -4.633977, 7.840711, -18.608483, -0.880744, -3.005654, -0.421562, 27.868881, -76.029922, -155.772644, 13.724737, 100.771905
1759224928.872809, 2.519748, 10.987740, 1.564312, -2.690434, -6.535012, 3.200781, 31.746094, -78.029968, -158.083710, 13.724737, 100.771905
1759224928.892838, 11.640758, 33.676691, 23.583335, 0.604992, -2.265770, 2.900005, 35.669815, -81.394867, -161.043854, 13.724737, 100.771905
1759224928.911974, 17.758093, 36.089897, 23.794923, 0.901759, 0.897674, 0.174912, 35.906235, -81.342102, -159.887863, 13.724737, 100.771905
1759224928.932279, 4.583998, 16.992697, 8.017882, -1.700175, 3.886102, -2.056645, 33.305649, -81.216919, -158.033249, 13.724737, 100.771905
1759224928.952446, -2.116474, 10.519224, 2.514061, -3.785467, 3.645909, -0.922728, 30.804733, -82.483994, -155.182724, 13.724737, 100.771905
1759224928.972845, -2.613570, 19.310882, 4.655375, -3.409483, 1.578973, 1.492154, 29.644424, -85.876419, -153.817291, 13.724737, 100.771905
1759224928.991845, -0.303166, 23.085192, 5.727230, -3.038152, 1.604054, 0.950745, 28.408051, -88.543060, -153.047012, 13.724737, 100.771905
1759224929.011967, -3.027917, 25.739164, -16.790387, -3.533139, -5.268968, -0.321944, 30.452896, -90.776260, -154.367813, 13.724737, 100.771905
1759224929.032053, -0.865354, 20.830452, -12.358121, -1.000495, -7.214762, -0.988725, 35.582870, -90.983154, -158.935349, 13.724737, 100.771905
1759224929.052454, -6.496816, 11.849353, -0.924311, -0.303732, 0.813446, -1.018567, 36.499237, -89.786072, -159.328934, 13.724737, 100.771905
1759224929.072394, -8.254609, 5.513697, -1.478868, 0.083081, 1.783093, 0.774065, 36.250748, -90.213013, -158.774994, 13.724737, 100.771905
1759224929.092846, -3.919907, 2.033425, -4.800973, 0.060882, 0.445844, 1.343762, 35.704025, -90.567856, -157.682907, 13.724737, 100.771905
1759224929.112845, -1.708712, -0.189591, -2.930353, 0.121420, -0.238258, 1.306809, 35.710297, -91.030106, -157.795120, 13.724737, 100.771905
1759224929.132329, -0.737115, 0.238672, 2.753033, 0.499702, 0.794021, 0.884665, 35.856628, -91.307312, -158.089447, 13.724737, 100.771905
1759224929.152432, -0.414496, -0.238373, 2.695422, 0.461683, 2.210869, 0.659514, 34.947601, -91.579178, -156.701691, 13.724737, 100.771905
1759224929.172190, -1.410783, -0.446968, -1.757643, 3.144320, -3.627111, -0.272277, 35.171402, -90.810074, -157.096954, 13.724737, 100.771905
1759224929.192855, -0.454150, -1.465401, -1.722778, 3.428945, -4.230760, -1.009814, 38.030243, -88.556213, -160.112381, 13.724737, 100.771905
1759224929.211969, 1.105074, -0.301220, -1.727416, 3.172283, -3.201769, -1.494187, 39.722092, -85.891739, -161.793701, 13.724737, 100.771905
1759224929.232240, 0.439935, 12.028918, -1.304840, 2.890239, 0.312769, -2.669722, 40.158188, -82.934341, -163.452850, 13.724737, 100.771905
1759224929.252411, -2.405125, 25.438692, -3.627216, 2.657196, 2.473892, -2.009161, 38.465790, -79.701721, -162.913361, 13.724737, 100.771905
1759224929.272843, -4.321833, 32.696565, -2.991106, 3.379040, 1.859501, -0.079447, 37.227615, -77.608093, -161.833389, 13.724737, 100.771905
1759224929.292800, -1.814805, 38.192455, -4.914548, 2.951248, -3.642641, 1.990978, 38.158203, -76.618301, -163.223312, 13.724737, 100.771905
1759224929.311893, 3.288735, 36.225767, -2.691980, 3.125655, -4.416121, 1.120816, 40.264450, -75.830002, -167.066864, 13.724737, 100.771905
1759224929.332821, 4.047548, 20.146160, -4.413561, 1.056962, 1.199942, -1.600408, 40.159668, -74.121521, -168.494904, 13.724749, 100.771891
1759224929.352430, -0.694917, 18.593520, -3.991134, 0.417558, 3.238817, -1.286272, 38.845047, -72.885117, -166.607178, 13.724749, 100.771891
1759224929.372842, -1.063325, 17.685668, 0.733075, 0.195866, 4.203355, -1.006229, 36.885544, -72.118317, -165.379318, 13.724749, 100.771891
1759224929.392826, 0.868347, 9.965415, 8.389283, 1.221734, 3.877572, 0.245991, 34.856308, -70.983719, -163.086014, 13.724749, 100.771891
1759224929.411970, 2.781314, 4.674529, 6.464195, 1.503819, 1.055264, 0.135055, 33.428528, -70.148666, -161.752319, 13.724749, 100.771891
1759224929.431918, 7.204452, -6.510134, 3.375226, 0.148944, 2.689242, -0.362552, 32.877228, -69.952545, -162.189651, 13.724749, 100.771891
1759224929.452434, 5.200206, -9.554810, 1.792658, -1.016273, 2.971222, -0.835846, 31.052643, -69.749390, -159.823120, 13.724749, 100.771891
1759224929.472845, 2.888155, -11.784111, 1.209820, -1.185612, 1.986787, -0.817837, 29.241196, -70.265717, -158.926880, 13.724749, 100.771891
1759224929.492864, 1.987636, -10.460117, -2.179472, -1.786186, 0.305562, -0.638966, 28.096680, -70.877655, -157.765915, 13.724749, 100.771891
1759224929.511962, 2.297685, -5.806238, -4.573673, -2.672659, 0.361492, -0.216333, 27.532410, -71.790405, -156.981171, 13.724749, 100.771891
1759224929.532246, 0.369006, 0.319476, -5.213075, -1.716327, 2.641873, 0.575064, 26.423126, -73.384338, -155.164474, 13.724749, 100.771891
1759224929.552427, -1.147571, 5.591209, -13.987674, 0.944060, 0.351417, 0.449689, 24.968033, -73.777481, -153.711731, 13.724749, 100.771891
1759224929.572826, -2.377442, 4.859780, -15.091551, -0.263842, -5.425609, -0.110775, 27.281403, -73.436325, -155.720871, 13.724749, 100.771891
1759224929.592871, 0.509217, 1.466748, -1.732355, -2.246241, -8.690875, -0.561122, 32.040771, -73.505234, -159.044327, 13.724749, 100.771891
1759224929.612841, 6.507590, 3.093757, 7.343914, -3.084227, -7.364187, -0.690134, 36.146881, -74.409821, -162.782959, 13.724749, 100.771891
1759224929.632830, 12.156858, 25.962274, 23.421727, -1.697956, -2.996102, 1.864353, 38.856033, -75.843964, -165.611282, 13.724749, 100.771891
1759224929.652412, 15.299697, 35.655199, 26.666319, -0.798053, 2.807183, 1.338555, 39.698807, -77.734497, -165.219696, 13.724749, 100.771891
1759224929.672826, 3.213916, 18.397794, 14.142699, -3.384211, 6.221726, 1.032768, 37.919235, -79.400970, -161.491547, 13.724749, 100.771891
1759224929.692861, -1.052252, 17.422755, 5.990741, -3.911731, 3.693807, 1.274809, 34.862473, -82.436142, -157.409714, 13.724749, 100.771891
1759224929.712842, -1.502661, 24.477869, 7.096414, -3.091442, 2.172482, 0.851252, 33.170197, -85.007019, -154.969986, 13.724749, 100.771891
1759224929.732228, -2.617461, 32.328456, -4.610634, -5.231112, -7.580027, -0.608438, 32.836731, -87.500229, -154.842346, 13.724749, 100.771891
1759224929.752423, -1.149666, 22.095489, -30.193576, -0.750145, -17.414282, -0.528651, 40.072052, -89.715820, -164.580353, 13.724749, 100.771891
1759224929.772807, -2.482937, 18.457798, 8.808866, 1.223930, 1.614533, -1.930360, 43.856216, -88.222244, -171.135559, 13.724749, 100.771891
1759224929.792828, -5.351340, 8.440608, 0.273238, 0.087834, 5.345463, -1.385461, 42.488861, -86.456573, -166.852463, 13.724749, 100.771891
1759224929.811969, -4.962133, 2.414552, -7.368754, -0.040013, 1.897586, -0.627076, 40.754440, -85.974884, -164.466248, 13.724749, 100.771891
1759224929.832253, -2.769792, -0.284760, -3.661483, 0.138880, -0.350650, -0.306720, 40.976212, -85.393356, -164.620316, 13.724749, 100.771891
1759224929.852419, -1.036989, -0.185251, 1.972074, 0.350803, -0.175638, -0.420922, 40.770905, -84.766571, -164.327271, 13.724749, 100.771891
1759224929.872892, -0.616208, -0.896928, 1.057190, 0.489063, 0.018395, -0.277727, 40.888718, -84.730423, -164.126694, 13.724749, 100.771891
1759224929.892594, -0.673220, -0.919673, 1.997662, 0.443353, 0.472404, -0.094253, 41.071457, -84.287659, -164.209076, 13.724749, 100.771891
1759224929.911976, -0.993743, -1.632247, -1.693898, 2.401193, -3.034822, -0.016932, 40.461838, -83.872101, -164.535706, 13.724749, 100.771891
1759224929.932833, -0.275034, -0.877924, -1.326088, 3.305551, -4.838314, -0.294284, 42.757599, -82.437927, -168.834778, 13.724749, 100.771891
1759224929.952438, -0.042048, 0.092775, 3.120094, 2.916606, -2.895092, -0.750879, 43.932419, -80.703094, -171.825989, 13.724749, 100.771891
1759224929.972826, -2.135029, 5.543325, 3.327192, 2.979662, -0.971579, -2.647158, 44.083755, -78.812897, -174.611359, 13.724749, 100.771891
1759224929.992821, -6.330120, 22.058528, 2.156876, 5.570179, -1.459934, -5.859464, 42.938416, -74.427536, -177.070816, 13.724749, 100.771891
1759224930.011983, -8.447791, 30.186693, -7.604433, 5.115500, -3.893102, -7.386888, 40.519913, -68.494415, -180.542023, 13.724749, 100.771891
1759224930.032214, -9.955390, 38.221634, -16.457443, 0.380843, -4.176225, -6.208488, 37.270218, -63.807938, -185.468613, 13.724749, 100.771891
1759224930.052418, -15.908871, 34.734180, -3.881450, -0.952124, 1.128923, -2.086279, 34.526550, -61.457718, -185.304840, 13.724749, 100.771891
1759224930.072808, -14.496293, 22.506543, -2.036568, -1.580322, 2.952340, -1.112071, 34.548325, -60.700653, -183.114090, 13.724749, 100.771891
1759224930.092807, -11.723957, 15.790508, -0.543783, -2.021413, 2.847109, -2.973433, 32.714951, -60.020126, -180.363647, 13.724749, 100.771891
1759224930.111969, -11.143961, 9.802759, 7.779958, -1.133446, 4.696371, -2.210670, 30.192657, -58.970764, -176.943909, 13.724749, 100.771891
1759224930.132242, -5.397129, 1.414075, 6.984934, -0.217954, 4.923914, 0.318743, 28.551666, -58.631683, -174.814423, 13.724749, 100.771891
1759224930.152435, 1.264138, -1.327734, 6.016928, -0.515131, 3.328112, 1.901042, 28.124649, -59.197281, -172.864532, 13.724749, 100.771891
1759224930.172844, 6.847267, -3.888034, 1.605761, -1.221429, -0.162521, 1.933708, 29.303223, -60.345718, -171.619827, 13.724749, 100.771891
1759224930.192823, 8.593987, -6.768109, -1.972972, -1.232890, -1.197424, 1.992958, 30.892334, -61.929443, -171.217072, 13.724749, 100.771891
1759224930.212840, 11.391163, -8.791359, 0.371251, -1.026486, 0.961999, 1.974597, 31.678680, -62.995392, -170.183899, 13.724749, 100.771891
1759224930.232361, 15.553482, -7.320122, 0.007332, -0.322151, 2.501565, 0.509129, 31.477036, -63.875366, -169.989288, 13.724749, 100.771891
1759224930.252373, 8.930522, -5.239411, -3.116802, 0.295983, 3.630953, 0.374080, 30.732117, -64.475021, -167.732880, 13.724749, 100.771891
1759224930.272826, -0.074819, 0.509666, -8.060828, 0.158996, 0.706205, 0.633173, 29.827377, -64.501572, -166.614395, 13.724749, 100.771891
1759224930.292848, -1.786972, 1.891719, -5.795015, 0.099859, -2.415314, 0.513949, 31.014725, -64.503372, -167.837784, 13.724749, 100.771891
1759224930.312801, -1.175703, 1.964592, -1.347038, -0.725118, -4.414486, -0.193087, 32.288086, -64.611160, -168.698761, 13.724747, 100.771867
1759224930.332227, -0.597204, 1.997961, -0.073173, -2.139093, -5.525544, -0.191318, 33.990387, -64.841827, -171.208160, 13.724747, 100.771867
1759224930.352398, -2.507926, 12.596194, 5.640739, -3.848635, -4.424313, 1.267964, 35.833542, -65.770477, -172.234039, 13.724747, 100.771867
1759224930.372842, -6.159682, 44.104487, 39.076663, -0.094018, 3.260279, 3.849916, 37.719254, -68.700562, -171.624588, 13.724747, 100.771867
1759224930.392829, -5.763891, 37.988947, 16.660950, -1.275764, 6.098496, 3.952073, 37.921707, -71.072159, -168.373169, 13.724747, 100.771867
1759224930.412840, -6.707506, 26.043377, 4.085107, -5.170726, 5.577529, 1.910387, 35.958023, -74.594589, -162.567429, 13.724747, 100.771867
1759224930.432286, -8.508843, 17.588703, 2.615665, -5.936129, 4.292756, 0.637518, 33.612900, -78.119904, -158.513885, 13.724747, 100.771867
1759224930.452399, -8.553136, 16.243760, 1.203685, -5.248565, 1.633088, 0.045450, 30.615555, -82.262650, -155.378845, 13.724747, 100.771867
1759224930.472806, -0.756418, 17.840843, -26.554839, 1.177843, -10.033626, 0.967356, 34.833771, -83.516479, -159.543457, 13.724747, 100.771867
1759224930.492842, 3.649212, 20.310162, -9.355642, 1.856943, -2.483114, -0.015022, 38.884308, -82.793655, -164.528397, 13.724747, 100.771867
1759224930.511966, -3.590704, 11.000010, -2.799869, 0.169406, 1.761039, -0.010937, 38.560486, -81.867538, -163.627823, 13.724747, 100.771867
1759224930.532258, -4.058022, 2.941127, -5.314978, 0.230903, 1.678678, 0.550779, 37.958313, -82.195633, -162.919006, 13.724747, 100.771867
1759224930.552429, -1.940500, 0.558298, -1.387141, 0.399078, 1.868180, 0.283342, 36.996475, -82.323654, -161.304001, 13.724747, 100.771867
1759224930.572825, -0.440383, -0.317980, 2.639458, 0.177515, 2.457495, 0.035549, 35.835815, -82.561813, -160.456360, 13.724747, 100.771867
1759224930.592846, -0.578349, -0.991349, 1.641225, 0.360097, 2.471586, 0.164028, 34.337372, -82.207886, -158.959427, 13.724747, 100.771867
1759224930.611965, -0.596904, -1.164779, 1.498770, 0.316130, 2.383103, 0.458586, 32.789520, -82.446838, -156.938126, 13.724747, 100.771867
1759224930.632365, -1.650802, -2.684798, -9.150639, 2.598531, -3.709795, 0.647945, 33.987610, -81.552399, -158.790100, 13.724747, 100.771867
1759224930.652365, -0.070030, -0.921169, -0.357035, 2.990107, -4.604486, 0.460166, 36.166916, -80.168427, -161.633286, 13.724747, 100.771867
1759224930.672830, -0.066289, -0.071377, 0.484227, 3.140620, -4.241440, -0.083947, 38.770767, -78.758408, -165.307953, 13.724747, 100.771867
1759224930.692852, -0.222361, 1.722030, 2.899378, 2.796576, -2.138374, -1.168808, 39.602295, -77.185257, -168.385162, 13.724747, 100.771867
1759224930.711966, -5.709572, 15.630097, 3.491345, 3.907458, -1.063344, -4.276808, 38.653122, -74.150391, -169.753265, 13.724747, 100.771867
1759224930.732256, -9.231593, 33.493235, -0.654814, 5.979403, -1.880027, -7.149270, 36.266922, -68.815567, -172.887131, 13.724747, 100.771867
1759224930.752369, -10.579379, 40.217201, -21.072416, 3.023753, -4.854242, -6.676511, 33.159363, -63.874130, -177.523346, 13.724747, 100.771867
1759224930.772821, -10.877457, 33.287783, -8.552238, -0.006115, -0.187366, -2.932347, 31.292648, -61.180420, -178.879395, 13.724747, 100.771867
1759224930.792792, -14.829236, 21.832276, -2.482338, -1.521175, 2.792455, 0.065575, 30.828629, -61.077484, -177.753479, 13.724747, 100.771867
1759224930.811966, -9.460389, 14.307001, -1.356914, -1.922500, 3.738700, -0.451271, 29.704697, -61.610092, -175.037811, 13.724747, 100.771867
1759224930.832249, -9.053823, 12.077700, 1.979107, -2.194607, 3.641169, -1.790955, 28.073318, -61.555222, -171.731689, 13.724747, 100.771867
1759224930.852391, -7.131130, 6.593482, 4.477756, -1.856966, 1.843123, -1.258199, 26.037567, -61.590897, -168.550522, 13.724747, 100.771867
1759224930.872842, -1.391031, -0.475249, 5.296124, -1.445872, -0.157763, 0.349971, 25.743988, -62.150436, -167.948776, 13.724747, 100.771867
1759224930.892907, 2.109292, -3.472790, 4.827459, -1.720346, -0.688160, 1.809515, 27.089310, -63.619644, -167.495560, 13.724747, 100.771867
1759224930.911968, 2.997989, -4.252401, 3.212869, -1.675934, 0.398748, 3.300403, 28.414612, -65.293884, -166.794540, 13.724747, 100.771867
1759224930.932253, 5.640739, -4.756680, 2.705897, -0.839292, 3.038286, 3.690798, 29.305984, -68.065247, -165.562103, 13.724747, 100.771867
1759224930.952373, 9.850643, -4.949862, 1.329680, -0.131679, 5.749296, 2.086027, 28.454407, -69.494308, -162.827698, 13.724747, 100.771867
1759224930.972840, 10.133459, -3.681384, -3.686622, -0.054946, 4.341036, -0.348686, 26.364044, -69.640778, -160.455750, 13.724747, 100.771867
1759224930.992506, 4.583549, -0.820762, -8.554483, -0.280869, 1.767939, -1.502369, 23.673279, -69.760529, -159.494858, 13.724747, 100.771867
1759224931.012302, -1.398663, 3.508852, -12.634202, 0.440957, -0.494090, -1.925765, 22.437088, -69.092239, -158.760513, 13.724747, 100.771867
1759224931.032318, -1.192163, 1.502511, -6.681768, -0.024061, -3.491795, -1.965517, 23.295822, -68.525742, -160.643173, 13.724747, 100.771867
1759224931.052361, 0.784700, 0.758214, 0.166996, -1.608643, -4.193799, -1.636246, 25.017227, -68.186890, -161.480972, 13.724747, 100.771867
1759224931.072568, 2.510021, 6.329521, 6.968324, -4.882030, -2.720332, -1.214315, 26.396484, -69.680740, -161.316879, 13.724747, 100.771867
1759224931.092578, -1.022025, 11.411663, 18.084153, -3.393834, -1.899789, 0.540623, 26.928619, -72.333740, -159.986145, 13.724747, 100.771867
1759224931.111966, -4.843021, 28.327296, 34.408120, 2.132466, 2.032374, 2.773562, 27.760132, -72.987106, -160.330963, 13.724747, 100.771867
1759224931.132238, -2.516456, 37.919964, 15.542708, -0.468516, 4.683361, 2.097553, 27.058823, -73.512283, -158.909317, 13.724747, 100.771867
1759224931.152364, -4.929362, 29.656228, 4.796633, -3.744027, 4.868319, -0.360878, 24.077728, -75.575836, -156.176468, 13.724747, 100.771867
1759224931.172828, -8.115595, 21.181801, -0.559495, -5.132030, 0.683931, -1.909941, 22.332153, -78.082123, -154.041504, 13.724747, 100.771867
1759224931.192825, -9.479393, 11.656470, -30.157813, -7.413280, -15.225435, -1.301325, 26.129776, -83.877625, -157.300629, 13.724747, 100.771867
1759224931.211964, -6.174646, 19.023429, 17.764976, 6.509518, -2.964509, -2.759442, 32.083725, -80.045486, -161.216721, 13.724747, 100.771867
1759224931.232836, -13.048998, 10.831219, -20.160525, 2.876148, -4.057527, -3.877097, 34.072205, -75.433411, -164.812637, 13.724754, 100.771853
1759224931.252336, -13.307571, 1.309329, -0.817171, 0.713718, -0.804348, -1.189086, 33.322708, -74.133347, -166.121185, 13.724754, 100.771853
1759224931.272826, -4.012383, -2.598008, -5.172373, 0.971874, 0.048940, 0.953363, 34.139511, -74.165268, -166.336121, 13.724754, 100.771853
1759224931.292830, -2.432509, -1.868076, 1.305139, 0.183333, 1.600870, 0.890802, 34.078690, -74.789490, -166.486435, 13.724754, 100.771853
1759224931.312013, -1.291373, -3.404555, 1.340304, -0.520084, 2.310072, 0.301449, 33.550339, -74.597763, -164.593216, 13.724754, 100.771853
1759224931.332281, -2.407669, -6.809110, -7.242610, -0.505873, -1.183684, -0.064691, 33.346268, -75.546951, -165.362534, 13.724754, 100.771853
1759224931.352350, -3.452140, -7.296180, -1.944092, 2.204530, -0.071341, -1.831958, 33.573792, -74.475159, -165.647842, 13.724754, 100.771853
1759224931.372843, -2.552369, -2.187702, 0.804452, 3.107521, 2.277485, -2.294304, 32.331207, -71.882034, -166.007889, 13.724754, 100.771853
1759224931.392883, -2.795979, 2.917335, -3.462614, 2.964204, 2.422868, -2.124851, 30.802139, -69.614502, -166.600952, 13.724754, 100.771853
1759224931.411964, -5.632210, 10.819397, -2.195034, 1.821958, 3.211195, -3.288333, 28.772156, -67.573822, -165.469803, 13.724754, 100.771853
1759224931.432604, -13.324780, 23.547123, -7.238121, 0.986276, 2.832600, -6.173359, 24.927582, -65.168121, -165.034607, 13.724754, 100.771853
1759224931.452366, -28.724434, 30.820109, -1.698686, 3.709260, -0.014885, -2.868283, 21.602142, -62.079346, -165.803192, 13.724754, 100.771853
1759224931.472803, -24.571692, 39.397037, 0.192733, 6.170185, -1.147093, 0.473368, 23.039703, -59.524933, -170.077240, 13.724754, 100.771853
1759224931.492842, -3.442413, 26.848129, -12.044929, 1.651632, -0.554802, -0.459124, 23.352615, -58.331055, -172.610428, 13.724754, 100.771853
1759224931.511964, -8.776994, 9.943718, -4.166210, -1.397852, 1.086684, -0.734118, 22.580948, -58.108139, -171.238403, 13.724754, 100.771853
1759224931.531947, -13.225869, 7.672668, -2.309956, -1.789345, 2.372674, -1.574905, 21.218109, -58.212357, -169.819107, 13.724754, 100.771853
1759224931.552331, -17.110013, 6.126313, 1.037138, -1.954433, 2.788365, -0.496062, 19.643890, -58.546432, -167.317032, 13.724754, 100.771853
1759224931.572913, -7.327753, 2.637812, 3.651457, -1.774482, 1.438810, 1.095462, 19.390045, -59.254272, -166.093430, 13.724754, 100.771853
1759224931.592840, 0.660949, 2.861221, 5.549161, -1.788632, -0.107876, 2.270540, 20.819183, -60.661880, -165.138321, 13.724754, 100.771853
1759224931.611963, 4.926519, 1.144877, 7.871836, -1.937018, -0.071145, 2.503925, 21.667084, -61.686920, -163.011963, 13.724754, 100.771853
1759224931.632883, 6.336853, -2.251298, 3.057994, -1.185971, -0.908184, 3.021284, 23.795822, -63.263763, -163.462204, 13.724754, 100.771853
1759224931.652352, 11.181221, -5.929839, -0.371251, -0.069642, 0.384034, 2.804295, 25.132248, -64.539337, -163.010544, 13.724754, 100.771853
1759224931.672805, 12.568661, -5.374235, -7.153575, -0.871277, 1.280158, 0.989187, 26.024460, -65.232971, -162.249008, 13.724754, 100.771853
1759224931.692980, 4.409521, -5.989694, -5.591209, -0.242624, 0.795522, 0.109532, 25.483917, -65.754898, -161.526474, 13.724754, 100.771853
1759224931.712838, -2.019509, -0.741454, -4.599411, 0.641566, -0.319303, 0.052241, 25.673813, -65.461182, -161.727707, 13.724754, 100.771853
1759224931.732866, -1.668759, 0.218172, -1.515081, 0.663138, -1.597471, 0.191237, 26.897614, -65.121231, -162.988113, 13.724754, 100.771853
1759224931.752330, -1.237653, 0.443975, 1.546205, -0.198670, -1.957267, 0.424972, 27.947037, -65.035324, -163.664230, 13.724754, 100.771853
1759224931.772849, -0.724845, 1.501314, 0.373495, -1.808292, -2.927261, 0.939771, 29.658493, -66.071503, -164.496368, 13.724754, 100.771853
1759224931.792847, -5.688773, 22.998402, 8.009203, -3.169426, -1.502671, 2.424420, 32.188004, -67.981888, -164.204254, 13.724754, 100.771853
1759224931.811964, -8.951621, 50.709042, 28.038196, -1.342376, 2.953296, 1.600753, 31.831039, -69.689758, -161.849304, 13.724754, 100.771853
1759224931.832844, -8.685266, 25.947310, 9.024345, -2.848930, 2.177765, 1.115487, 30.823410, -71.790207, -159.913193, 13.724754, 100.771853
1759224931.852360, -6.266972, 10.868478, 2.490868, -4.355648, 0.435716, 1.743381, 31.117294, -74.410294, -157.599792, 13.724754, 100.771853
1759224931.872804, -5.514445, 18.248755, 2.461090, -4.979356, 0.031404, 0.395218, 31.510574, -77.762253, -155.917145, 13.724754, 100.771853
1759224931.892827, -9.218724, 21.570111, -0.113276, -5.628818, -4.183636, -0.663907, 33.223038, -80.689331, -156.643387, 13.724754, 100.771853
1759224931.911938, -1.952172, 19.446304, -24.308778, 3.636461, -4.758593, 0.650779, 36.923553, -81.735916, -161.823395, 13.724754, 100.771853
1759224931.932917, -5.510255, 18.373104, -10.615890, 3.400125, -2.284673, -1.313024, 38.634109, -78.873734, -163.766266, 13.724754, 100.771853
1759224931.952336, -8.843133, 8.638130, 3.317166, 1.223218, -0.016810, -1.826236, 38.633423, -76.819031, -164.255188, 13.724754, 100.771853
1759224931.972825, -8.495525, -0.568773, -0.997634, 0.372440, -0.338178, -0.733523, 38.142731, -75.768539, -164.531204, 13.724754, 100.771853
1759224931.992907, -5.252579, -5.885995, -3.712659, 0.576321, -1.964153, 0.226598, 38.876938, -75.472946, -166.191345, 13.724754, 100.771853
1759224932.012838, -2.910152, -3.800197, 1.429488, 0.721530, -0.683988, 0.416925, 39.468887, -75.337280, -167.045654, 13.724754, 100.771853
1759224932.032910, -1.507150, -4.040664, 0.453701, 0.683221, 0.550883, 0.549191, 39.617996, -74.898270, -167.327637, 13.724754, 100.771853
1759224932.052345, -4.492271, -7.216273, -5.678897, 2.422617, -0.361901, 0.693873, 39.628586, -74.911270, -167.463562, 13.724754, 100.771853
1759224932.072806, -2.792088, -3.043330, -1.575235, 2.886219, 0.130720, 0.278833, 39.962677, -73.735596, -168.735687, 13.724754, 100.771853
1759224932.092888, -2.149095, 0.405668, 0.722001, 2.757008, 2.159165, -0.643149, 38.997925, -72.527359, -168.652817, 13.724754, 100.771853
1759224932.111963, -5.550358, 6.810157, 0.480486, 2.720843, 3.790417, -2.067115, 37.082947, -69.955872, -166.695526, 13.724754, 100.771853
1759224932.132907, -12.869582, 22.514324, -6.368128, 2.259592, 2.691504, -4.287596, 33.957535, -66.984207, -166.032410, 13.724754, 100.771853
1759224932.152345, -16.712725, 25.796775, -4.590133, 1.688585, 1.478898, -2.779706, 31.003616, -64.036972, -165.885498, 13.724754, 100.771853
1759224932.172888, -15.829713, 31.110556, 0.980426, 3.837773, -0.023407, -0.060301, 30.801285, -62.017441, -167.311325, 13.724754, 100.771853
1759224932.192856, -7.012617, 33.207427, -2.429815, 2.903312, 0.460427, 1.699952, 31.323151, -61.526230, -169.632736, 13.724792, 100.771838
1759224932.211964, -0.240617, 25.141811, -4.181174, 0.397766, 2.677361, 0.377488, 30.645874, -61.905243, -168.961853, 13.724792, 100.771838
1759224932.232877, -2.906411, 17.436671, -6.666206, -0.407671, 2.998660, -2.021541, 28.617371, -60.710251, -167.533539, 13.724792, 100.771838
1759224932.252300, -7.165097, 15.982194, -3.697844, -1.060614, 3.245139, -3.106038, 25.239853, -59.989487, -164.757675, 13.724792, 100.771838
1759224932.272802, -8.619874, 9.863812, 0.787243, -0.921467, 2.628377, -1.927709, 22.152939, -59.795044, -163.409424, 13.724792, 100.771838
1759224932.292908, -3.513192, 0.158167, 2.359186, -0.672699, 0.833308, 0.107038, 21.611450, -59.635040, -162.460648, 13.724792, 100.771838
1759224932.312032, 2.339734, -3.383007, 0.895731, -1.542314, -1.320235, 1.316548, 22.438187, -60.554657, -162.145004, 13.724792, 100.771838
1759224932.332871, 4.731541, -5.046678, 5.429900, -1.669688, -2.320383, 1.916393, 24.629028, -61.983276, -162.436829, 13.724792, 100.771838
1759224932.352309, 7.225701, -6.064962, 2.573168, -1.078754, -2.917911, 2.002978, 26.867218, -63.098343, -162.051254, 13.724792, 100.771838
1759224932.372882, 8.063222, -7.135619, -0.400131, -0.262329, 0.611539, 2.149047, 28.147598, -64.669617, -162.271439, 13.724792, 100.771838
1759224932.392821, 8.416367, -5.276820, -2.072032, -0.145110, 3.803747, 1.378651, 27.148514, -65.211624, -160.884811, 13.724792, 100.771838
1759224932.411956, 2.529474, -2.627936, -5.571307, -0.255507, 2.580965, 0.683182, 26.059601, -65.402710, -159.639130, 13.724792, 100.771838
1759224932.432940, -1.627459, 0.958878, -4.893898, 0.018642, -0.163005, 0.460781, 25.734436, -65.792923, -159.536285, 13.724792, 100.771838
1759224932.452303, -2.356942, 1.949778, -4.558710, -0.444528, -3.594554, -0.038906, 27.478485, -65.725052, -160.220718, 13.724792, 100.771838
1759224932.472792, -1.114651, 2.012326, -0.370503, -1.944143, -5.061159, -0.340920, 30.066864, -66.857162, -161.890060, 13.724792, 100.771838
1759224932.492965, -2.122909, 8.573038, 2.230199, -3.514479, -6.041893, 0.176637, 33.106918, -67.840057, -163.214661, 13.724792, 100.771838
1759224932.511947, -7.203255, 39.630771, 28.861203, 0.096991, -0.600576, 3.533502, 35.374985, -70.326584, -163.395508, 13.724792, 100.771838
1759224932.532864, 0.049380, 33.142634, 17.602470, -0.069884, 4.360471, 2.097078, 35.031860, -71.347519, -161.781067, 13.724792, 100.771838
1759224932.552287, -4.230405, 26.756850, 3.884143, -4.020285, 4.805928, 0.631664, 32.222229, -73.661194, -157.251740, 13.724792, 100.771838
1759224932.572822, -7.414693, 19.782839, 0.860416, -5.170617, 2.934594, 1.059134, 30.016464, -77.466064, -154.424271, 13.724792, 100.771838
1759224932.592398, -8.217499, 20.625898, -5.820903, -3.754166, -3.761302, 1.199801, 30.665527, -80.983276, -154.626678, 13.724792, 100.771838
1759224932.612005, -2.100164, 20.141820, -13.792397, -0.408180, -7.073893, 0.485500, 35.163361, -81.443832, -157.918716, 13.724792, 100.771838
1759224932.632929, 0.701651, 13.127408, -5.933430, -0.272057, -1.656277, 0.087235, 37.040680, -81.495392, -160.031784, 13.724792, 100.771838
1759224932.652279, -4.916792, 8.827870, 1.266084, -0.706143, 1.679925, 0.839991, 36.475800, -82.267929, -158.906860, 13.724792, 100.771838
1759224932.672783, -3.438223, 2.311901, -3.897611, -0.275377, 1.610527, 1.387358, 35.447128, -83.654678, -157.992416, 13.724792, 100.771838
1759224932.692831, -2.185756, -0.830788, -4.235193, 0.260724, 0.437760, 1.392950, 35.132797, -84.352386, -158.007843, 13.724792, 100.771838
1759224932.711937, -1.276708, -0.845901, 0.471508, 0.281085, 0.648612, 1.167578, 35.177841, -84.313599, -157.528580, 13.724792, 100.771838
1759224932.732885, -0.745345, -0.877774, 2.172888, 0.208663, 1.283808, 1.016856, 34.587723, -85.121460, -156.992905, 13.724792, 100.771838
1759224932.752293, -2.562843, -1.896956, -6.262034, 1.673852, -3.240871, 0.532958, 36.193542, -84.562897, -157.979813, 13.724792, 100.771838
1759224932.772786, -1.072153, -0.269647, 0.390554, 2.352820, -4.044590, -0.436779, 38.490570, -83.338013, -161.168839, 13.724792, 100.771838
1759224932.792829, -0.773327, -0.340575, 0.448763, 2.576420, -3.364412, -1.399738, 39.462891, -80.928543, -164.386948, 13.724792, 100.771838
1759224932.811933, -0.984017, -1.410484, -1.371129, 3.513195, -3.615027, -2.096946, 40.448212, -77.733139, -167.069656, 13.724792, 100.771838
1759224932.832852, -1.036091, 1.656638, 2.836979, 2.778092, -0.737399, -3.269093, 40.320267, -74.863297, -168.752457, 13.724792, 100.771838
1759224932.852264, -3.944597, 11.824812, 1.316512, 3.131748, 1.548188, -5.531973, 37.391663, -70.206604, -168.541779, 13.724792, 100.771838
1759224932.872796, -13.050644, 33.132758, -2.495806, 3.440619, 2.346822, -7.884298, 32.938278, -64.508820, -168.847198, 13.724792, 100.771838
1759224932.892792, -21.451748, 40.947133, -15.377808, 2.073839, -0.963441, -4.731359, 29.442154, -61.036499, -170.410324, 13.724792, 100.771838
1759224932.911931, -13.070396, 31.989826, -3.164087, 2.616878, -0.914291, -1.198467, 28.677338, -59.573776, -171.794388, 13.724792, 100.771838
1759224932.932782, -8.227524, 26.200497, -5.446510, 0.364377, 0.179230, 0.743046, 29.352295, -59.642792, -172.920090, 13.724792, 100.771838
1759224932.952252, -6.260837, 17.600375, -2.429366, -1.280993, 1.958741, -0.451296, 28.780975, -59.774841, -171.338242, 13.724792, 100.771838
1759224932.972879, -8.060230, 13.188460, 0.185850, -2.122746, 2.813727, -1.873471, 26.824295, -59.316864, -169.070496, 13.724792, 100.771838
1759224932.992575, -8.182932, 6.462698, 4.902726, -1.803880, 2.091457, -1.758428, 24.896835, -60.070694, -167.289566, 13.724792, 100.771838
1759224933.011924, -2.907908, -0.415993, 6.975656, -1.071752, -0.062685, 0.023091, 24.553726, -60.232819, -165.959793, 13.724792, 100.771838
1759224933.032913, 1.810465, -2.826205, 5.406107, -1.067401, -1.267947, 1.536288, 26.197830, -61.341278, -166.463379, 13.724792, 100.771838
1759224933.052273, 4.563348, -4.297592, 2.857929, -1.492780, -0.780059, 2.484588, 27.910675, -62.740784, -165.095276, 13.724792, 100.771838
1759224933.072782, 8.012196, -6.398205, -2.269554, -1.339594, 1.129705, 2.893734, 28.557190, -64.543091, -164.488510, 13.724792, 100.771838
1759224933.092843, 7.430554, -5.249138, -2.527828, -1.184404, 3.821125, 2.542000, 28.148468, -66.296890, -162.298340, 13.724792, 100.771838
1759224933.111916, 6.626402, -4.281281, -2.853739, -0.798958, 5.430249, 1.540777, 26.064270, -67.246078, -159.432175, 13.724792, 100.771838
1759224933.132908, 2.734029, -0.126144, -3.238607, 0.377527, 4.697669, 0.495363, 23.304733, -67.640594, -157.748749, 13.724792, 100.771838
1759224933.152233, -1.191415, 3.141492, -9.777920, 1.496934, 0.939157, -0.050311, 22.472794, -66.670822, -158.208710, 13.724792, 100.771838
1759224933.172794, -2.103905, 2.472612, -7.463175, 0.578307, -3.491172, -0.503258, 24.400589, -66.358810, -159.035400, 13.724811, 100.771816
1759224933.192944, -0.373944, 1.721132, 0.995539, -1.329058, -4.148358, -1.154916, 26.164047, -66.694305, -160.852539, 13.724811, 100.771816
1759224933.211913, -0.263362, 4.269759, 5.577442, -2.977158, -4.079542, -1.386543, 27.511749, -67.259995, -160.795776, 13.724811, 100.771816
1759224933.232835, -2.906112, 12.321908, 18.323274, -2.137915, -0.704507, -0.800968, 27.769730, -68.233231, -160.797546, 13.724811, 100.771816
1759224933.252256, -7.507468, 34.633324, 27.572524, 0.970625, 3.061047, 2.080405, 27.380524, -68.187073, -158.887924, 13.724811, 100.771816
1759224933.272495, -6.400000, 38.525099, 7.141904, -2.040979, 1.510115, 3.605451, 27.420258, -70.420746, -158.214752, 13.724811, 100.771816
1759224933.292770, -0.977134, 22.475568, 2.367267, -4.889517, 0.810758, 2.938838, 28.363663, -74.772415, -156.311111, 13.724811, 100.771816
1759224933.312793, -0.283114, 21.860408, 3.068469, -5.664734, 0.213762, 0.959424, 27.503067, -79.490051, -154.522964, 13.724811, 100.771816
1759224933.332768, -5.509058, 19.794362, -15.530737, 1.298629, -3.773342, -0.442171, 29.821442, -79.303879, -156.453522, 13.724811, 100.771816
1759224933.352235, -6.765116, 15.933262, -24.534582, -1.039333, -7.933604, -0.393941, 34.690491, -78.986969, -159.928009, 13.724811, 100.771816
1759224933.372827, -2.034922, 13.213150, 6.616526, -0.610025, -1.733426, -1.249018, 35.160355, -79.294968, -161.718201, 13.724811, 100.771816
1759224933.392774, -5.225345, 8.114548, 4.644602, 0.419277, 2.008451, -1.401967, 34.163406, -78.275940, -161.106293, 13.724811, 100.771816
1759224933.411903, -5.987001, 1.978957, -7.483676, 0.640102, -0.315960, -0.941127, 33.817154, -77.273544, -160.467697, 13.724811, 100.771816
1759224933.432885, -4.587590, -2.079364, -8.391228, -0.003609, -2.081178, -0.143639, 34.906631, -77.321121, -162.429459, 13.724811, 100.771816
1759224933.452218, -4.815637, -1.450886, 4.965425, -0.144688, 0.295741, -0.057765, 34.816223, -77.062973, -162.351761, 13.724811, 100.771816
1759224933.472739, -3.676147, -3.573645, 3.968389, -0.640326, 2.598812, 0.509476, 33.538055, -77.432541, -160.751358, 13.724811, 100.771816
1759224933.492766, -6.367529, -6.245724, -9.035717, 2.422398, -1.492043, 0.699275, 34.586105, -77.163940, -162.015381, 13.724811, 100.771816
1759224933.512780, -2.766799, -2.153135, -0.407314, 2.858374, -1.271170, 0.234970, 34.819489, -75.922928, -163.375046, 13.724811, 100.771816
1759224933.532021, -1.096095, -1.044321, -2.720711, 3.607929, -1.275285, -0.545420, 35.214172, -74.192596, -165.566147, 13.724811, 100.771816
1759224933.552202, 0.292691, 3.482965, -0.228197, 3.763680, 0.362673, -1.838299, 34.535019, -71.681198, -166.686478, 13.724811, 100.771816
1759224933.572751, -4.940734, 11.902474, -2.141314, 3.028822, 1.112600, -3.188069, 32.870682, -69.229996, -167.512939, 13.724811, 100.771816
1759224933.592770, -18.060361, 33.346291, -7.935581, 1.879758, 2.139522, -3.633320, 30.037415, -66.573456, -167.839844, 13.724811, 100.771816
1759224933.611891, -19.640534, 40.566605, -4.963928, 2.002161, 2.751844, -1.007539, 28.651443, -65.832062, -166.307846, 13.724811, 100.771816
1759224933.632758, -9.643994, 29.845070, -3.275866, 2.026092, 0.581317, 0.994760, 28.963165, -65.319794, -167.767624, 13.724811, 100.771816
1759224933.652185, -4.871153, 25.591622, -3.394978, 0.868617, 0.126819, 1.912382, 29.961380, -66.341309, -167.613113, 13.724811, 100.771816
1759224933.671974, -2.024447, 20.143616, -3.110667, -0.489670, 1.276452, -0.347759, 29.862518, -66.012207, -166.930206, 13.724811, 100.771816
1759224933.692751, -3.348441, 16.844256, 0.022895, -1.458257, 2.828996, -2.277230, 28.316345, -65.607117, -165.085571, 13.724811, 100.771816
1759224933.711884, -5.191228, 10.475231, 3.487005, -1.681175, 2.660628, -1.845975, 25.879272, -65.563644, -162.753952, 13.724811, 100.771816
1759224933.732747, -2.592172, 1.428740, 6.481553, -1.028963, 0.701963, -0.120708, 25.330566, -65.917755, -161.774918, 13.724811, 100.771816
1759224933.752165, 2.033425, -2.337788, 7.633613, -0.885590, -0.450948, 1.247486, 26.160309, -66.875473, -161.131836, 13.724811, 100.771816
1759224933.772723, 4.103662, -4.832846, 7.081300, -1.033752, -0.790703, 2.031925, 27.715591, -68.395874, -160.734695, 13.724811, 100.771816
1759224933.792791, 7.748085, -7.377732, -0.228497, -0.913510, 0.003494, 1.721683, 28.321259, -69.777496, -160.781082, 13.724811, 100.771816
1759224933.811878, 11.730990, -8.289175, -2.562544, -0.917313, 2.545306, -0.174868, 26.992859, -69.921051, -159.064545, 13.724811, 100.771816
1759224933.832757, 8.892065, -7.886201, -3.753210, -0.729317, 4.327790, -1.179398, 24.349228, -69.994354, -157.450592, 13.724811, 100.771816
1759224933.852223, 0.751929, -2.269853, -9.440936, -0.760344, 3.550829, -0.534335, 21.469070, -70.243164, -155.361130, 13.724811, 100.771816
1759224933.872715, -1.898901, 3.302502, -12.395231, -0.002070, 1.578172, -0.293881, 20.434769, -70.042389, -154.853577, 13.724811, 100.771816
1759224933.892774, -3.537882, 3.308637, -11.111340, 1.129710, -1.461707, -0.274194, 21.682663, -69.358200, -155.817139, 13.724811, 100.771816
1759224933.912747, -1.136647, 1.626561, -1.415422, -0.057442, -4.176143, -0.469823, 24.321609, -69.000732, -156.755676, 13.724811, 100.771816
1759224933.932292, 0.764798, 4.918887, 2.961927, -3.595707, -5.059215, -0.567223, 27.309586, -70.440155, -158.264236, 13.724811, 100.771816
1759224933.952167, -1.534683, 20.473417, 22.274754, -1.093998, -4.660942, 0.887856, 29.690002, -71.928955, -159.119553, 13.724811, 100.771816
1759224933.972708, -0.864307, 38.307675, 33.475728, 2.254037, 1.234563, 2.067816, 30.428329, -71.425919, -158.721649, 13.724811, 100.771816
1759224933.992725, -1.335965, 23.062297, 6.786065, -1.441480, 2.001709, 1.515184, 30.432709, -72.960922, -157.925003, 13.724811, 100.771816
1759224934.011862, -4.696825, 18.468572, 4.206612, -4.095190, 1.815002, 1.930289, 29.934402, -76.211395, -155.356781, 13.724811, 100.771816
1759224934.032721, -4.272752, 24.142681, 6.026654, -4.307843, 1.592980, 1.417051, 28.855652, -79.893127, -154.431290, 13.724811, 100.771816
1759224934.052154, -6.003461, 25.790939, -1.280599, -1.480422, -3.920033, -0.168218, 29.981979, -81.216187, -154.746445, 13.724811, 100.771816
1759224934.072734, -6.827216, 19.310284, -20.779276, 0.009717, -9.662170, -0.763342, 35.987350, -80.619583, -160.409561, 13.724811, 100.771816
1759224934.092726, -3.152715, 13.354707, 1.459116, 0.223006, -3.735511, -1.632189, 37.807755, -79.115555, -163.180527, 13.724811, 100.771816
1759224934.111846, -6.123470, 7.711724, 1.460762, -0.099103, 1.114499, -2.144733, 37.000336, -77.891220, -162.110046, 13.724811, 100.771816
1759224934.132721, -9.628731, 2.933795, -5.657947, -0.867349, 1.111775, -1.277771, 36.186722, -77.637756, -161.706955, 13.724811, 100.771816
1759224934.152134, -9.693524, -4.443040, -9.864859, 0.056997, -0.649327, 1.113546, 36.812408, -77.986786, -161.076614, 13.724811, 100.771816
1759224934.172711, -6.516568, -1.984943, 2.494309, 0.162590, 1.405827, 1.125240, 36.488434, -78.104706, -161.062607, 13.724832, 100.771817
1759224934.191764, -3.395427, -2.367117, 3.555240, 0.039859, 2.696265, 0.799965, 35.198639, -78.761230, -159.497253, 13.724832, 100.771817
1759224934.212723, -0.953341, -3.214964, 0.512060, -0.567279, 2.559869, 0.863810, 33.970093, -79.949142, -157.572311, 13.724832, 100.771817
1759224934.232708, -2.077269, -4.633678, -11.545888, -0.436220, -2.864873, 1.026075, 35.821198, -80.513489, -159.452652, 13.724832, 100.771817
1759224934.252144, -0.424971, -1.309928, -1.504905, 1.722540, -3.619599, 0.492082, 37.397720, -79.290115, -161.599106, 13.724832, 100.771817
1759224934.272876, 0.307206, 1.238700, 3.183839, 2.257980, -0.872640, -0.500465, 38.170792, -78.410385, -162.908783, 13.724832, 100.771817
1759224934.292784, -1.909077, 6.186318, 4.571578, 2.169608, 2.712224, -2.485932, 36.158401, -75.480301, -161.958801, 13.724832, 100.771817
1759224934.311856, -10.001329, 23.580642, 5.491700, 4.347006, 6.151453, -5.443601, 30.908997, -70.438538, -160.033768, 13.724832, 100.771817
1759224934.332894, -14.788684, 31.361348, -7.982717, 4.973031, 2.117610, -4.681083, 28.302124, -65.689758, -161.433853, 13.724832, 100.771817
1759224934.352111, -17.989283, 41.046493, -13.501352, 2.914120, -5.385107, -1.179492, 29.667618, -64.005081, -165.432480, 13.724832, 100.771817
1759224934.372856, -9.434501, 39.232137, -0.504877, 2.920543, -1.401249, 2.244242, 31.561996, -63.344437, -167.876053, 13.724832, 100.771817
1759224934.392764, 0.154725, 24.694544, -1.066916, 0.261370, 3.786661, 0.912277, 30.538513, -63.760925, -166.539825, 13.724832, 100.771817
1759224934.411974, -2.196381, 16.392500, -4.687398, -0.324185, 3.477794, -1.916196, 28.257523, -62.921814, -163.846649, 13.724832, 100.771817
1759224934.432884, -5.303905, 15.675437, -2.063503, -1.056300, 2.057777, -3.460440, 24.952621, -62.244354, -163.131027, 13.724832, 100.771817
1759224934.452122, -6.308572, 7.175273, 4.600458, -0.999080, 2.179539, -2.817020, 22.333771, -61.610641, -161.667740, 13.724832, 100.771817
1759224934.472861, -4.011186, -2.213290, 7.733122, -0.546377, 2.112277, -0.273477, 21.484360, -62.158508, -160.798889, 13.724832, 100.771817
1759224934.492777, 0.236577, -4.831349, 7.688530, -0.529122, 2.050168, 1.907884, 21.519928, -62.975861, -160.397995, 13.724832, 100.771817
1759224934.512015, 4.034379, -5.011962, 3.982754, -0.756661, 0.324307, 2.594852, 22.956497, -64.013641, -159.556213, 13.724832, 100.771817
1759224934.532883, 6.568941, -7.091176, -1.416769, -1.037114, -3.258501, 2.472956, 25.591324, -65.508957, -160.410187, 13.724832, 100.771817
1759224934.552119, 11.505785, -8.435670, -2.467973, -0.480836, -0.396433, 0.871914, 26.247421, -66.111572, -159.805115, 13.724832, 100.771817
1759224934.572846, 9.813084, -8.665663, -1.368436, -0.502179, 3.717862, -0.555539, 23.787827, -66.311966, -158.305130, 13.724832, 100.771817
1759224934.592807, 0.162058, -3.503465, -6.831705, -0.886489, 2.158575, -0.682198, 22.863907, -66.465775, -157.434937, 13.724832, 100.771817
1759224934.611877, -1.492785, 0.762703, -5.820005, -1.336619, 0.258065, -0.500759, 22.088654, -67.215942, -156.234421, 13.724832, 100.771817
1759224934.632869, -2.817826, 1.221043, -8.368333, -1.566414, -2.520882, -0.328959, 23.877792, -67.917465, -157.252731, 13.724832, 100.771817
1759224934.652072, -1.313818, 0.574908, 0.551863, -1.629476, -3.597207, -0.146901, 26.220291, -68.782700, -157.095047, 13.724832, 100.771817
1759224934.672712, -0.372897, 1.535132, 0.801758, -2.999799, -4.236900, 0.003717, 28.722031, -70.180176, -157.534973, 13.724832, 100.771817
1759224934.692725, -0.581492, 15.169362, 11.940931, -2.944847, -3.454818, 1.522990, 30.555267, -72.273041, -158.434555, 13.724832, 100.771817
1759224934.711874, -2.904616, 43.975499, 39.997832, 2.661764, 1.442382, 4.627694, 32.175110, -73.416763, -158.646301, 13.724832, 100.771817
1759224934.732669, 1.016339, 32.359431, 10.004471, 0.178108, 3.164504, 4.576480, 31.790878, -75.957275, -157.528137, 13.724832, 100.771817
1759224934.752035, 3.060388, 22.499809, 4.646397, -4.332489, 4.296427, 1.674456, 29.548950, -79.511276, -153.703674, 13.724832, 100.771817
1759224934.772701, -1.508048, 22.252907, 4.513220, -5.541079, 4.081028, -0.160886, 26.233292, -82.973434, -151.185181, 13.724832, 100.771817
1759224934.792736, -6.552780, 21.426160, 3.008763, -4.949348, 1.631570, -0.476868, 26.969070, -86.012665, -151.662323, 13.724832, 100.771817
1759224934.811906, -4.040515, 22.164023, -36.704907, 1.283422, -14.286812, -0.422093, 35.592514, -85.040176, -159.103348, 13.724832, 100.771817
1759224934.832876, 2.897732, 19.888783, -6.605004, 1.509700, -6.890780, -2.163258, 39.384262, -82.920364, -163.207092, 13.724832, 100.771817
1759224934.852067, -4.422539, 11.504289, 6.296301, 0.271254, 2.109241, -2.344115, 38.064987, -80.959808, -162.226303, 13.724832, 100.771817
1759224934.872765, -5.372738, 2.716371, -4.129549, 0.008400, 2.206038, -1.977097, 36.814026, -79.556595, -160.944138, 13.724832, 100.771817
1759224934.892754, -4.043208, -1.658134, -9.969755, 0.542142, -1.535643, -1.165486, 37.672165, -79.118820, -162.736282, 13.724832, 100.771817
1759224934.911866, -3.464410, -1.598878, 4.449175, 0.769076, -0.522955, -0.619130, 37.436752, -77.851105, -162.401489, 13.724832, 100.771817
1759224934.932847, -5.376030, -3.880702, 4.040814, 0.738037, 1.403748, 0.396823, 36.882217, -77.665955, -162.149841, 13.724832, 100.771817
1759224934.952071, -3.805733, -3.693954, 2.158074, 0.179664, 2.579272, 1.197782, 35.797028, -78.525375, -160.772537, 13.724832, 100.771817
1759224934.972842, -6.834249, -4.773589, -11.791742, 2.695507, -4.572649, 1.189672, 38.164810, -77.896011, -164.447968, 13.724832, 100.771817
1759224934.992867, -2.120215, 0.125546, 0.774375, 2.783592, -4.641146, -0.258534, 40.794769, -76.354813, -168.656479, 13.724832, 100.771817
1759224935.011977, -2.247258, -0.414795, -1.096993, 3.429252, -4.495677, -1.566892, 41.612717, -74.057617, -172.263138, 13.724832, 100.771817
1759224935.032859, -1.615488, 2.205509, 2.473061, 3.275808, -2.412431, -3.041560, 40.816589, -70.588333, -175.503967, 13.724832, 100.771817
1759224935.052034, -5.734861, 10.958860, 3.955969, 4.650512, 1.450750, -4.483506, 38.029388, -66.814163, -176.361694, 13.724832, 100.771817
1759224935.072622, -16.767791, 32.583588, -2.197877, 4.621965, 2.376123, -5.756078, 34.687241, -62.345947, -176.779480, 13.724832, 100.771817
1759224935.092700, -19.483863, 46.429705, -18.407670, 0.581539, 0.366608, -4.014707, 32.312988, -60.384186, -176.933273, 13.724832, 100.771817
1759224935.111789, -13.172149, 35.637243, -3.648015, 0.023846, 1.758849, -0.665769, 31.526840, -59.954178, -176.008392, 13.724832, 100.771817
1759224935.132634, -7.213131, 22.403892, 0.033818, -0.522821, 3.030213, -0.407111, 30.373047, -59.704742, -174.024918, 13.724832, 100.771817
1759224935.151996, -7.442376, 15.819089, 0.121057, -0.936011, 3.986697, -2.490003, 27.700241, -58.905548, -171.328430, 13.724832, 100.771817
1759224935.172631, -10.599879, 13.351714, 0.101903, -1.189781, 3.245583, -1.984969, 25.638443, -58.343277, -169.329697, 13.724856, 100.771821
1759224935.192628, -7.439383, 7.150433, 3.272425, -1.427238, 2.270483, -0.630501, 24.405396, -59.107727, -167.758621, 13.724856, 100.771821
1759224935.212642, -1.615039, 1.549797, 5.118504, -1.212656, 0.353263, 0.900105, 24.717926, -59.578766, -166.661819, 13.724856, 100.771821
1759224935.232633, 4.309413, -2.058864, 5.567566, -1.666036, -1.441781, 1.523417, 26.711349, -60.892624, -166.716400, 13.724856, 100.771821
1759224935.252019, 6.909067, -5.232977, 4.899883, -1.624393, -1.107032, 2.200970, 28.166351, -62.668991, -165.899689, 13.724856, 100.771821
1759224935.272607, 9.425673, -8.375666, -0.339228, -1.476899, 1.504681, 2.515428, 28.212189, -64.504745, -164.316544, 13.724856, 100.771821
1759224935.292391, 14.196419, -8.405743, -3.708319, -1.381202, 2.561306, 0.648777, 27.548752, -65.370026, -162.841675, 13.724856, 100.771821
1759224935.311755, 11.219079, -9.425822, -4.034679, -1.357759, 4.091315, -0.129076, 25.165741, -65.997192, -159.436279, 13.724856, 100.771821
1759224935.332633, 1.435324, -1.483358, -8.246079, -1.266003, 3.658555, 0.202535, 22.955750, -66.821213, -158.605087, 13.724856, 100.771821
1759224935.352003, -1.414824, 1.807323, -7.912836, -1.088521, 2.436836, 0.300040, 21.692413, -67.433243, -157.113586, 13.724856, 100.771821
1759224935.372594, -3.822044, 3.533243, -13.956250, 0.208462, -1.552972, -0.033460, 23.850906, -66.950668, -157.179794, 13.724856, 100.771821
1759224935.392668, -0.934038, 0.507870, -0.638953, -1.280150, -4.063573, 0.120566, 26.410721, -67.994919, -158.874130, 13.724856, 100.771821
1759224935.411748, 0.730830, 0.696264, 4.039916, -4.204438, -2.884013, 0.737022, 28.330246, -70.527206, -157.221039, 13.724856, 100.771821
1759224935.432656, -0.178817, 8.143877, 21.549760, -2.521081, -2.796902, 1.087507, 29.883560, -72.710114, -158.623993, 13.724856, 100.771821
1759224935.451958, -4.452766, 31.181634, 33.861493, 0.829522, 2.613950, 1.973289, 29.510284, -72.997269, -157.103973, 13.724856, 100.771821
1759224935.472586, -7.401525, 47.067012, 13.140875, -1.122570, 3.091392, 1.732584, 27.976486, -74.854141, -154.825699, 13.724856, 100.771821
1759224935.492601, -7.313388, 33.261746, 0.451906, -4.020703, 0.525630, 0.795638, 27.809235, -77.783447, -154.201523, 13.724856, 100.771821
1759224935.511737, -6.732645, 23.054067, 0.254534, -4.895756, -0.765735, 0.150101, 28.695053, -81.092682, -153.799026, 13.724856, 100.771821
1759224935.532631, -9.229198, 17.369933, -42.006867, -1.277540, -14.518660, 0.466477, 35.626297, -81.813843, -161.210388, 13.724856, 100.771821
1759224935.552031, -1.142184, 19.284247, 1.995268, 3.428975, -5.479700, -1.654378, 38.665848, -79.186737, -164.439163, 13.724856, 100.771821
1759224935.572578, -5.668572, 10.607810, 0.679205, -0.367781, 1.822255, -1.605256, 37.173462, -78.271225, -162.498779, 13.724856, 100.771821
1759224935.592628, -6.261286, 5.311686, -0.948403, -1.052859, 2.587469, -1.108448, 35.566254, -78.069168, -161.762466, 13.724856, 100.771821
1759224935.611765, -5.059846, -0.822558, -7.738808, -0.177552, -0.456945, -0.095208, 35.837112, -78.368393, -161.339096, 13.724856, 100.771821
1759224935.632611, -3.109619, -1.181239, -0.493654, 0.161886, -0.408145, 0.076275, 35.933807, -78.585403, -162.342224, 13.724856, 100.771821
1759224935.651973, -3.111714, -1.764826, 2.343774, 0.246478, 0.903206, 0.060441, 35.769302, -78.084717, -161.370316, 13.724856, 100.771821
1759224935.672576, -3.119944, -3.303100, -0.183605, 0.904877, 0.187485, 0.395615, 35.240570, -78.037750, -161.825745, 13.724856, 100.771821
1759224935.692601, -3.733009, -3.450194, -3.972729, 3.309118, -2.613255, 0.133886, 36.860443, -76.324921, -164.679886, 13.724856, 100.771821
1759224935.711774, -1.166425, -1.088913, 0.186598, 4.283018, -2.361766, -0.664912, 37.299072, -74.094528, -166.809006, 13.724856, 100.771821
1759224935.731761, -0.322918, -0.308253, -1.105373, 5.091495, -1.946766, -1.588952, 37.408966, -72.890106, -169.365189, 13.724856, 100.771821
1759224935.751941, 0.358382, 2.966565, -1.180641, 4.526895, -0.858009, -3.024574, 36.112823, -68.059128, -173.055527, 13.724856, 100.771821
1759224935.771687, -3.175909, 9.699509, -2.715474, 3.754354, -0.364655, -4.653998, 34.979675, -66.349564, -174.349121, 13.724856, 100.771821
1759224935.792598, -19.360412, 32.558748, -9.084649, 2.367771, 0.237921, -5.605085, 30.914719, -61.433273, -176.373947, 13.724856, 100.771821
1759224935.811752, -27.411813, 43.296444, -7.239767, 1.492539, 0.818832, -3.098451, 30.069107, -60.409149, -175.946533, 13.724856, 100.771821
1759224935.832570, -14.992042, 29.013834, -3.228431, 0.939605, 0.920354, -1.148872, 28.606079, -59.045303, -176.321091, 13.724856, 100.771821
1759224935.851935, -9.068488, 19.117700, -2.252944, -0.303243, 1.829286, -1.922348, 26.810715, -58.132599, -175.321030, 13.724856, 100.771821
1759224935.872608, -12.746580, 13.765762, -0.486472, -1.210616, 3.790041, -3.036764, 23.325562, -57.411499, -171.891159, 13.724856, 100.771821
1759224935.892598, -15.172355, 10.470293, 0.796671, -1.608968, 5.048037, -1.483088, 21.471771, -57.542664, -169.974380, 13.724856, 100.771821
1759224935.912584, -11.807005, 6.602310, 0.203507, -2.366755, 4.198718, 0.607271, 20.477142, -58.570953, -166.840607, 13.724856, 100.771821
1759224935.932588, -4.130746, 2.387618, 4.182371, -2.259916, 0.975570, 2.233764, 22.286652, -59.977127, -165.306534, 13.724856, 100.771821
1759224935.951924, 3.458275, -1.105972, 6.265177, -2.015260, -2.406264, 2.427106, 23.385345, -60.958511, -164.590515, 13.724856, 100.771821
1759224935.972578, 7.020847, -4.461296, 1.878401, -3.007436, -2.647329, 2.739737, 26.823639, -64.242538, -164.615372, 13.724856, 100.771821
1759224935.992581, 9.574712, -8.672098, 2.849699, -1.603879, 1.375446, 3.011225, 27.344940, -66.245850, -162.533356, 13.724856, 100.771821
1759224936.011697, 13.813197, -6.934207, -1.027711, -1.027894, 4.028879, 1.013961, 26.677399, -66.530228, -161.365616, 13.724856, 100.771821
1759224936.032603, 12.922554, -7.376086, -3.074903, -0.868789, 5.147715, -0.813577, 22.304245, -67.110672, -158.408981, 13.724856, 100.771821
1759224936.051894, 2.314146, -0.668730, -7.552958, -0.838622, 4.673783, -0.871068, 20.412048, -67.405121, -156.546661, 13.724856, 100.771821
1759224936.072626, -1.469741, 1.716792, -8.639327, -0.140030, 3.050062, -0.691264, 17.143829, -66.993835, -155.124435, 13.724856, 100.771821
1759224936.092610, -4.091990, 2.394651, -13.089998, -0.001766, -1.828655, -0.663147, 18.850266, -67.025986, -156.266235, 13.724856, 100.771821
1759224936.111665, -0.100856, 0.150685, -1.102530, -2.940287, -4.704213, -0.017307, 20.432083, -67.728134, -155.713409, 13.724856, 100.771821
1759224936.132611, 2.484433, 4.331410, 5.544821, -5.206485, -5.108059, 0.516700, 25.897568, -72.412903, -155.742813, 13.724856, 100.771821
1759224936.151872, 0.545429, 8.611794, 21.126735, -2.686661, -5.398597, 1.021784, 27.737091, -73.454269, -155.757202, 13.724888, 100.771820
1759224936.172543, -0.878373, 27.702858, 35.862896, 1.566770, 0.453262, 1.346819, 29.202377, -73.457397, -156.010681, 13.724888, 100.771820
1759224936.192625, -5.807884, 42.632501, 18.862718, -0.024086, 2.893929, 2.191502, 28.100815, -75.033813, -155.314728, 13.724888, 100.771820
1759224936.211639, -7.273435, 38.781578, 3.008913, -3.997171, 2.096339, 0.939732, 27.198883, -76.351624, -153.714706, 13.724888, 100.771820
1759224936.232541, -8.767566, 26.440067, 1.719037, -4.763277, 0.926874, -0.698106, 28.433441, -81.368240, -152.244919, 13.724888, 100.771820
1759224936.251875, -14.348301, 14.049325, -53.011066, -4.514274, -18.831404, -0.296562, 30.149017, -84.305969, -156.359421, 13.724888, 100.771820
1759224936.272579, -4.040066, 21.337424, 22.766912, 6.552157, -3.827272, -2.853957, 38.196869, -77.414688, -163.499268, 13.724888, 100.771820
1759224936.292565, -13.315652, 9.460239, -16.033071, 0.433594, -0.542569, -2.596750, 37.523285, -76.156067, -163.638077, 13.724888, 100.771820
1759224936.311687, -15.761628, -0.115520, -0.861613, -0.079438, 1.796485, 0.350261, 37.144669, -76.131622, -162.524231, 13.724888, 100.771820
1759224936.332749, -4.986524, -4.651635, -6.568492, 0.992476, 0.031425, 1.566579, 37.445251, -77.020615, -163.564621, 13.724888, 100.771820
1759224936.351877, -3.357718, -3.197307, 3.888632, 0.433877, 1.798308, 1.601730, 36.993256, -77.179749, -163.033356, 13.724888, 100.771820
1759224936.372558, -1.427094, -2.812888, 2.031031, -0.774813, 3.010993, 1.386734, 35.884567, -78.878082, -160.040176, 13.724888, 100.771820
1759224936.392566, -1.537526, -4.016124, -4.974253, -2.650535, 0.522039, 1.526650, 36.615433, -81.082397, -160.872604, 13.724888, 100.771820
1759224936.411834, -2.113482, -3.784185, -9.986065, 0.964370, -6.051924, 1.208226, 38.480499, -81.417419, -162.700424, 13.724888, 100.771820
1759224936.432547, 0.134973, -0.792032, 3.559130, 3.001046, -3.320747, 0.430800, 41.453171, -80.083633, -167.262558, 13.724888, 100.771820
1759224936.451876, 0.626533, 0.080056, 4.080917, 4.158061, 0.397612, -0.536270, 41.042572, -78.646729, -166.936172, 13.724888, 100.771820
1759224936.472548, 0.476895, 2.273145, 1.545158, 3.653795, 1.769794, -1.462546, 39.231567, -74.884918, -165.881287, 13.724888, 100.771820
1759224936.492587, -2.518401, 12.162096, 3.620482, 3.929595, 4.203550, -4.136452, 35.197830, -69.919022, -165.410217, 13.724888, 100.771820
1759224936.512593, -14.948048, 42.295667, -0.227300, 5.825744, 3.322145, -7.889811, 30.967300, -63.203018, -167.244537, 13.724888, 100.771820
1759224936.531869, -18.223017, 42.547956, -22.036531, 2.949972, -5.077730, -5.934319, 30.075226, -61.651611, -169.076859, 13.724888, 100.771820
1759224936.551827, -11.862521, 35.718646, -4.922928, 2.161875, -2.081291, -0.229229, 30.056458, -59.910675, -172.694687, 13.724888, 100.771820
1759224936.572572, -4.526687, 24.224083, -4.859332, -0.811698, 2.630194, 0.895142, 29.555252, -60.247772, -170.043564, 13.724888, 100.771820
1759224936.592588, -5.320814, 15.696236, -4.495862, -1.618832, 3.800281, -1.593738, 26.976868, -59.911636, -168.438065, 13.724888, 100.771820
1759224936.611782, -7.952939, 11.314398, 2.175132, -1.625162, 4.748718, -2.996381, 25.228516, -59.810318, -165.929520, 13.724888, 100.771820
1759224936.632577, -9.635315, 4.324377, 7.239916, -0.626825, 3.296357, -1.362172, 21.891968, -59.703979, -164.333450, 13.724888, 100.771820
1759224936.651809, -4.330512, -2.347664, 6.241983, -0.311810, 0.150963, 1.141910, 22.261703, -59.734482, -163.544724, 13.724888, 100.771820
1759224936.672534, 2.877980, -2.752135, 4.290260, -0.897374, -2.660371, 3.374871, 26.026093, -61.834534, -164.799179, 13.724888, 100.771820
1759224936.692588, 5.053112, -3.239205, 3.574244, -1.148175, -2.904349, 3.568101, 28.179932, -62.770370, -164.992569, 13.724888, 100.771820
1759224936.711716, 8.448240, -4.041263, -1.116745, -1.291987, 0.064290, 3.351208, 30.042984, -64.796600, -164.893463, 13.724888, 100.771820
1759224936.732549, 13.101670, -4.424634, 1.115249, -0.735400, 5.219096, 1.416857, 28.759155, -66.467804, -162.745636, 13.724888, 100.771820
1759224936.751816, 11.680113, -5.118055, -2.262072, 0.221560, 6.945345, -1.026965, 25.187943, -65.994232, -159.247864, 13.724888, 100.771820
1759224936.772564, 1.057040, -1.982100, -9.560047, 0.042354, 2.403795, -1.358727, 22.482208, -65.547913, -158.756897, 13.724888, 100.771820
1759224936.792555, -2.441188, -0.001047, -6.508338, -0.439754, -1.394185, -0.880377, 21.849091, -65.387100, -158.180023, 13.724888, 100.771820
1759224936.811817, -1.476774, 0.467618, -0.869394, -1.034829, -2.993874, -0.693086, 23.037827, -65.437180, -158.570068, 13.724888, 100.771820
1759224936.832183, -0.343867, 0.892289, 0.201113, -1.641037, -3.670180, -0.487974, 24.969482, -66.075134, -159.480316, 13.724888, 100.771820
1759224936.851799, 0.559944, 1.799093, 2.111387, -2.352351, -3.313063, -0.114580, 26.839539, -66.984619, -159.859741, 13.724888, 100.771820
1759224936.872472, -5.350592, 26.647315, 32.035765, 0.835915, 4.240000, 1.364718, 28.037094, -68.037964, -159.818558, 13.724888, 100.771820
1759224936.892521, -9.963919, 44.204744, 34.241423, 0.363413, 5.716810, 1.562914, 26.369141, -67.960526, -157.707214, 13.724888, 100.771820
1759224936.911631, -15.415816, 47.877150, 5.493795, -3.775854, 1.156802, 1.952119, 26.008698, -70.179611, -155.282959, 13.724888, 100.771820
1759224936.931815, -8.239795, 25.435998, 1.178246, -5.898493, -0.990553, 1.211982, 26.966034, -74.590805, -154.113205, 13.724888, 100.771820
1759224936.951795, -7.254581, 17.561619, 1.066318, -6.256958, -2.037248, 0.220370, 27.652878, -79.025253, -152.278366, 13.724888, 100.771820
1759224936.972259, -6.591237, 14.842105, -55.031922, 0.741924, -10.884686, 0.757687, 31.977051, -81.613007, -157.934143, 13.724888, 100.771820
1759224936.992204, -5.939416, 18.407670, 0.065990, 3.441643, -1.863358, -0.771223, 35.841568, -78.692276, -159.699478, 13.724888, 100.771820
1759224937.011611, -8.088062, 7.641992, -3.183690, -0.303839, 0.375572, -0.977622, 35.912628, -77.945709, -159.813995, 13.724888, 100.771820
1759224937.032491, -4.102016, -3.187580, -6.779930, 0.439726, -0.520295, -0.374920, 35.034332, -78.113480, -160.133606, 13.724888, 100.771820
1759224937.051806, -4.790199, -3.453337, -2.274791, 0.450074, 0.071862, -0.079711, 35.328735, -77.313309, -160.246628, 13.724888, 100.771820
1759224937.072452, -3.326893, -3.192518, 1.834407, 0.133397, 2.073140, 0.808544, 34.864975, -77.358749, -159.450577, 13.724888, 100.771820
1759224937.092477, -4.029591, -4.202722, -0.632219, -0.074277, 1.010431, 1.584933, 33.631012, -77.885315, -157.835861, 13.724888, 100.771820
1759224937.111602, -6.271761, -5.609914, -10.338911, 0.803839, -2.475401, 1.811665, 34.294174, -78.907181, -158.648071, 13.724888, 100.771820
1759224937.132527, -3.298611, -0.558597, -0.631171, 2.411958, -3.583421, 0.064636, 36.909744, -78.776703, -162.034103, 13.724888, 100.771820
1759224937.151784, -2.095824, 0.760758, 0.646135, 2.762659, -2.587861, -0.926324, 38.269485, -77.056168, -163.662109, 13.724888, 100.771820
1759224937.172484, -1.294365, 7.392846, 3.592799, 3.703656, 2.066783, -3.407572, 37.482376, -74.236801, -164.965408, 13.724888, 100.771820
1759224937.192476, -8.280646, 23.524977, 4.584597, 5.613007, 5.270798, -4.967817, 34.178604, -70.001343, -164.223999, 13.724888, 100.771820
1759224937.211597, -12.407651, 34.808699, -7.039103, 4.563488, 1.988226, -5.354224, 30.399811, -64.880051, -164.897171, 13.724888, 100.771820
1759224937.232453, -15.050251, 44.641985, -2.503587, 1.808156, -0.092610, -0.050499, 28.691620, -62.668610, -165.318024, 13.724916, 100.771818
1759224937.251766, -10.728717, 40.805277, -1.449091, 2.161357, -0.197181, 1.898930, 29.167007, -62.212463, -166.635773, 13.724916, 100.771818
1759224937.272438, -1.880795, 19.678991, -1.608006, 0.589031, 2.926104, -0.379827, 29.548599, -62.511810, -167.060028, 13.724916, 100.771818
1759224937.292470, -3.707721, 14.702942, -0.288202, 0.183375, 3.384027, -2.401617, 27.164383, -61.535446, -165.566895, 13.724916, 100.771818
1759224937.312486, -4.537461, 8.165574, 2.352004, 0.093566, 2.449429, -1.576388, 24.637344, -60.735367, -164.177444, 13.724916, 100.771818
1759224937.332466, -2.049886, 1.041627, 3.565266, -0.040440, 0.551457, -0.278939, 23.297058, -60.227463, -163.716293, 13.724916, 100.771818
1759224937.351741, -0.293888, -1.701679, 3.700538, -0.286046, -0.138996, 0.316129, 23.404617, -60.040207, -162.849014, 13.724916, 100.771818
1759224937.372462, 4.147057, -6.066907, 3.939659, -1.212374, -2.068156, 1.717608, 24.710175, -61.270004, -163.783997, 13.724916, 100.771818
1759224937.392446, 4.819528, -7.369502, 1.422305, -1.240957, -3.046559, 2.329494, 27.116180, -62.697647, -163.499161, 13.724916, 100.771818
1759224937.411588, 4.499004, -7.387160, 0.016909, -1.267180, -3.123620, 2.578296, 29.869370, -64.298584, -164.179993, 13.724916, 100.771818
1759224937.432456, 7.189488, -9.191490, 1.051055, -0.035744, 2.138899, 1.426515, 31.616364, -65.496078, -164.263992, 13.724916, 100.771818
1759224937.451731, 4.401889, -8.034492, -0.621894, -0.218284, 3.422830, 0.764256, 30.806824, -65.783493, -162.738220, 13.724916, 100.771818
1759224937.472411, -0.605883, 0.102801, -5.837513, -0.992698, 2.055870, 0.378711, 29.606750, -66.452698, -161.902588, 13.724916, 100.771818
1759224937.492452, -1.197849, 1.374122, -3.705626, -1.727847, -0.196124, -0.058636, 28.475861, -66.935364, -159.584747, 13.724916, 100.771818
1759224937.511569, -1.205780, 1.378013, -2.798971, -2.270749, -1.476303, -0.304220, 29.583969, -67.752121, -159.533997, 13.724916, 100.771818
1759224937.532449, -1.248127, 1.898602, 0.225055, -3.271320, -4.009825, -0.591668, 30.781387, -69.156433, -159.450043, 13.724916, 100.771818
1759224937.551723, 1.277755, 6.914903, 5.088876, -3.339201, -4.438844, -0.938008, 32.912155, -70.324554, -160.233475, 13.724916, 100.771818
1759224937.572437, -1.580772, 33.027563, 17.053300, -1.132310, -3.461154, 4.141167, 35.493607, -72.111023, -161.839645, 13.724916, 100.771818
1759224937.592172, 2.618508, 47.265132, 34.042704, 2.361758, 3.288573, 7.669683, 37.931946, -75.148727, -162.450485, 13.724916, 100.771818
1759224937.611533, 8.605359, 30.258968, 11.099818, -1.163311, 7.305285, 4.436567, 37.548294, -78.534393, -158.913589, 13.724916, 100.771818
1759224937.632419, 3.244592, 22.602311, 1.639878, -4.050097, 7.558392, 1.314285, 33.279877, -82.189758, -155.118561, 13.724916, 100.771818
1759224937.651704, -8.013992, 18.170943, -46.469958, -4.370077, -8.109718, 0.058853, 31.280914, -85.450867, -152.345886, 13.724916, 100.771818
1759224937.672399, 0.533159, 19.916466, 5.320365, -0.893915, -6.384766, -1.597156, 35.925064, -87.491623, -157.691879, 13.724916, 100.771818
1759224937.692434, -4.562002, 12.273426, -6.984934, -0.328164, -1.643901, -1.567347, 38.529694, -86.605133, -159.934723, 13.724916, 100.771818
1759224937.711548, -4.927566, 7.523479, -2.736124, -0.570994, 1.950893, -0.754853, 38.834000, -85.783020, -160.362381, 13.724916, 100.771818
1759224937.732232, -3.718943, 3.328389, -3.441515, 0.584243, 2.238892, -0.292927, 37.233810, -85.660614, -159.119049, 13.724916, 100.771818
1759224937.751670, -2.507178, 0.113126, -6.145467, 0.881747, 0.159892, 0.133360, 35.929031, -85.266464, -157.665466, 13.724916, 100.771818
1759224937.772409, -1.273865, -0.496198, 1.623867, 0.924798, -0.260220, 0.165984, 36.778656, -84.536362, -158.205032, 13.724916, 100.771818
1759224937.792440, -0.866402, -0.972794, 1.953070, 1.121177, 0.185809, 0.442258, 36.732697, -83.962097, -158.636337, 13.724916, 100.771818
1759224937.811543, -0.355090, -1.008109, 2.784756, 0.314159, 1.935698, 0.842927, 35.593613, -84.138489, -157.654053, 13.724916, 100.771818
1759224937.832408, -0.909198, -0.854880, -3.355025, 1.562927, -1.836650, 0.765596, 34.767899, -84.548172, -158.023026, 13.724916, 100.771818
1759224937.851684, -0.493056, -0.192135, -3.067571, 2.591283, -5.124678, 0.130083, 36.920837, -83.403580, -160.076645, 13.724916, 100.771818
1759224937.872417, -0.270395, 1.098340, 2.207903, 2.262964, -3.710104, -1.038249, 39.048965, -81.852478, -163.993546, 13.724916, 100.771818
1759224937.892415, -1.799243, 5.469703, 4.227861, 1.811419, -0.730024, -3.197708, 39.475464, -79.789078, -166.044205, 13.724916, 100.771818
1759224937.911531, -7.335834, 22.033239, 5.623381, 4.764300, -0.209618, -6.534007, 37.722061, -76.313370, -166.731705, 13.724916, 100.771818
1759224937.932396, -10.851569, 33.460913, -0.911742, 6.118756, -1.802577, -8.476201, 34.911865, -70.009857, -168.736359, 13.724916, 100.771818
1759224937.951677, -13.284527, 38.867619, -23.160310, 1.692843, -5.217578, -6.836635, 32.004623, -64.212021, -172.903656, 13.724916, 100.771818
1759224937.972392, -15.342044, 36.285922, -2.224962, -0.165891, 2.240278, -0.870533, 29.884644, -62.169159, -175.530777, 13.724916, 100.771818
1759224937.992405, -8.387038, 24.563312, -1.673846, -1.045994, 4.517559, 0.319704, 29.192352, -62.195831, -172.910645, 13.724916, 100.771818
1759224938.011523, -6.022914, 16.621745, -0.471957, -0.966594, 3.139468, -1.367633, 28.336258, -62.568237, -170.161758, 13.724916, 100.771818
1759224938.032399, -5.072266, 10.566809, 2.155081, -1.118592, 1.654681, -1.595344, 27.076569, -62.487167, -168.569275, 13.724916, 100.771818
1759224938.051672, -2.598307, 4.359542, 3.662680, -1.007494, 0.820586, -0.599785, 25.949463, -62.653976, -167.447891, 13.724916, 100.771818
1759224938.072136, 1.114351, -0.929399, 3.455581, -1.197338, 0.120977, 0.807829, 25.965027, -63.222778, -166.736450, 13.724916, 100.771818
1759224938.092402, 5.669918, -4.089895, 0.916979, -1.738911, -1.011107, 1.587147, 26.759415, -64.267059, -166.204376, 13.724916, 100.771818
1759224938.111514, 5.247491, -5.947047, 1.361253, -1.907709, -0.469954, 2.397307, 28.089508, -66.192352, -165.266266, 13.724916, 100.771818
1759224938.132373, 8.003816, -7.793426, 1.226729, -0.198647, 0.923793, 2.063943, 29.088028, -68.073486, -165.105453, 13.724916, 100.771818
1759224938.151630, 11.579407, -8.148815, 1.816152, 1.131067, 4.764866, 0.756989, 28.602966, -68.563812, -163.694794, 13.724916, 100.771818
1759224938.172391, 6.097134, -6.380996, -4.234595, 0.362298, 5.448707, 0.212129, 26.563278, -68.231400, -161.896439, 13.724941, 100.771817
1759224938.191626, -0.622642, -0.129736, -8.769063, -0.708636, 2.402384, 0.124675, 24.467209, -68.617493, -160.365082, 13.724941, 100.771817
1759224938.211508, -1.834557, 1.456273, -6.331915, -1.015646, -1.219306, -0.068113, 23.854599, -68.823044, -158.909119, 13.724941, 100.771817
1759224938.231696, -1.612794, 1.082778, -2.313248, -1.509095, -3.595937, -0.262094, 25.425186, -69.481461, -159.833740, 13.724941, 100.771817
1759224938.251657, -0.412701, 0.665438, 0.558747, -1.954129, -4.203514, -0.214349, 27.458725, -70.387054, -160.395264, 13.724941, 100.771817
1759224938.272383, 1.185579, 2.633173, 1.740734, -3.468540, -4.577168, -0.163806, 30.014114, -71.401245, -161.514175, 13.724941, 100.771817
1759224938.292387, -2.501193, 22.853403, 17.203536, -2.510661, -1.943654, 2.674218, 31.681747, -73.600052, -160.642410, 13.724941, 100.771817
1759224938.311494, -2.404826, 50.601602, 38.404790, 0.416785, 4.100965, 5.116506, 33.040176, -75.681046, -160.008270, 13.724941, 100.771817
1759224938.332358, -0.621445, 37.355382, 8.839841, -3.338629, 4.816512, 3.623249, 31.904877, -79.001343, -157.330765, 13.724941, 100.771817
1759224938.351640, -0.906505, 24.960450, 4.974403, -4.954907, 4.947908, 0.980906, 28.865891, -82.793091, -153.241394, 13.724941, 100.771817
1759224938.372339, -6.430676, 20.765360, -0.166397, -4.369942, -4.060348, 0.184901, 25.933777, -86.594391, -152.609421, 13.724941, 100.771817
1759224938.392373, 0.217423, 18.089989, -24.684668, 1.415369, -13.022681, 0.480120, 33.228165, -88.626633, -157.890808, 13.724941, 100.771817
1759224938.411488, 1.248427, 14.550012, -4.110844, 1.088853, -1.024902, -0.959629, 37.785156, -86.958862, -162.344818, 13.724941, 100.771817
1759224938.432373, -4.686650, 8.924536, 2.897134, -0.215763, 3.452798, -1.122877, 37.803360, -86.229599, -162.382202, 13.724941, 100.771817
1759224938.451622, -3.969287, 1.239598, -4.255095, -0.458273, 2.362725, -0.923042, 35.703918, -85.847702, -159.377792, 13.724941, 100.771817
1759224938.471788, -3.237559, -1.706018, -6.567594, 0.010844, -0.551323, -0.660794, 35.352310, -85.428894, -159.357559, 13.724941, 100.771817
1759224938.492377, -1.353322, -0.344166, 2.178424, 0.058052, -0.161772, -0.767706, 35.573502, -84.532578, -159.685196, 13.724941, 100.771817
1759224938.511479, -0.733673, -1.060033, 1.846528, -0.077912, 0.466237, -0.708580, 35.285812, -84.401062, -159.834503, 13.724941, 100.771817
1759224938.532485, -2.295740, -2.738219, -2.491316, 1.668500, -2.941970, -0.487001, 35.583252, -83.532227, -160.597046, 13.724941, 100.771817
1759224938.551661, -1.611148, -1.643619, -0.994342, 2.693002, -4.368042, -0.618814, 37.599792, -81.911148, -162.709213, 13.724941, 100.771817
1759224938.571526, -2.709338, -2.523189, -0.330849, 3.951480, -3.347205, -0.968731, 39.165848, -79.975220, -166.714386, 13.724941, 100.771817
1759224938.592383, -2.091485, -1.403152, 1.813608, 3.543591, -0.453530, -1.722625, 39.993423, -77.854675, -168.708740, 13.724941, 100.771817
1759224938.611544, -3.170821, 3.886837, 0.666037, 3.581679, 0.786432, -2.397736, 38.979294, -75.300568, -168.916794, 13.724941, 100.771817
1759224938.631962, -10.753257, 19.790920, -5.539434, 3.733408, 0.089475, -4.441690, 37.690475, -72.170578, -170.804321, 13.724941, 100.771817
1759224938.651592, -18.827254, 46.684538, -11.861922, 2.182680, 1.135336, -5.497015, 35.139099, -67.706284, -171.895737, 13.724941, 100.771817
1759224938.672138, -15.751303, 35.106179, -4.919336, 1.762906, 1.447016, -2.886480, 32.492645, -64.869766, -172.492325, 13.724941, 100.771817
1759224938.692138, -9.093627, 29.629143, -4.078822, 0.861430, -0.297124, -1.024917, 31.307526, -63.423996, -172.523270, 13.724941, 100.771817
1759224938.711462, -7.306056, 26.821343, -1.580772, 0.042624, 0.492527, -1.322789, 30.921326, -63.208725, -172.915756, 13.724941, 100.771817
1759224938.732094, -9.142109, 17.417518, 0.954538, -0.246860, 3.234787, -2.533748, 29.532410, -62.004395, -172.085892, 13.724941, 100.771817
1759224938.751557, -9.615413, 12.277915, -0.006734, -0.511288, 3.732936, -1.963933, 26.645798, -61.320343, -170.017761, 13.724941, 100.771817
1759224938.772320, -5.656750, 4.676175, 1.272069, -1.047580, 2.833315, -0.498409, 24.807739, -61.119019, -168.762482, 13.724941, 100.771817
1759224938.792412, -1.051055, 0.114323, 4.398148, -1.301558, 1.140038, 0.903813, 24.202393, -61.925858, -167.064850, 13.724941, 100.771817
1759224938.812337, 4.982184, -2.370110, 6.514922, -1.108992, -0.980519, 1.144742, 25.053772, -62.583328, -166.605438, 13.724941, 100.771817
1759224938.832326, 5.345953, -4.898686, 4.878336, -1.669658, -2.411234, 1.952589, 26.853867, -63.745819, -166.464584, 13.724941, 100.771817
1759224938.851568, 8.997859, -9.231144, 0.836474, -1.052048, -0.103775, 2.949969, 28.633423, -65.610092, -165.830780, 13.724941, 100.771817
1759224938.872297, 14.144644, -8.411429, 1.031003, -0.616446, 3.568155, 1.300636, 29.153595, -67.345612, -165.244797, 13.724941, 100.771817
1759224938.892372, 8.796297, -7.017854, -4.717475, -0.650286, 4.635469, -0.416236, 27.191895, -68.127518, -162.581894, 13.724941, 100.771817
1759224938.911445, -0.876876, -2.474557, -10.698041, -1.551875, 2.156552, -0.672982, 25.215271, -68.186569, -161.023666, 13.724941, 100.771817
1759224938.932345, -2.058415, 0.733972, -6.461352, -1.601562, -0.138554, -0.647757, 24.218475, -69.194809, -159.316544, 13.724941, 100.771817
1759224938.951569, -2.871546, 1.577779, -5.555296, -0.512280, -2.825387, -0.709952, 24.548355, -69.578308, -159.442062, 13.724941, 100.771817
1759224938.972199, -1.390283, 0.895731, 1.086519, -0.397296, -3.817813, -0.591276, 26.742462, -69.362946, -161.194260, 13.724941, 100.771817
1759224938.992325, -0.248847, 2.735675, 1.239748, -1.582957, -4.591249, -0.765597, 28.692245, -69.627747, -162.583038, 13.724941, 100.771817
1759224939.011440, -0.536600, 11.409867, 8.656236, -3.021769, -2.894504, -0.250738, 29.921310, -70.589600, -162.463242, 13.724941, 100.771817
1759224939.031933, -7.752724, 35.074456, 28.894722, 1.281684, 0.985442, 3.391278, 31.444305, -72.490448, -163.705261, 13.724941, 100.771817
1759224939.051546, -4.990414, 41.359834, 16.508619, -0.192535, 3.271240, 4.071371, 32.305832, -73.764771, -161.802155, 13.724941, 100.771817
1759224939.072280, -3.606416, 31.203032, 3.455282, -4.192591, 2.330438, 1.977697, 31.752975, -76.748901, -160.388474, 13.724941, 100.771817
1759224939.092317, -5.836914, 21.630415, 2.548927, -5.310944, 0.878190, 1.258721, 30.891037, -80.251587, -158.067078, 13.724941, 100.771817
1759224939.111428, -6.976853, 18.766351, 2.161964, -2.189674, -1.870843, 1.465469, 29.690704, -84.527344, -157.358780, 13.724941, 100.771817
1759224939.131917, -1.994969, 19.737050, -31.026310, 1.664275, -9.631557, 0.620182, 35.170151, -83.449921, -160.728821, 13.724941, 100.771817
1759224939.151524, 1.785326, 15.866524, -2.452261, -0.591448, -2.381966, 0.125973, 37.890839, -84.152054, -165.389557, 13.724941, 100.771817
1759224939.172293, -5.012560, 9.666589, 3.674800, 0.231243, 3.519105, 0.140783, 37.600494, -84.133438, -163.912766, 13.724964, 100.771819
1759224939.192305, -5.574150, 2.820818, -6.230760, 0.486220, 1.552011, 0.363759, 36.732605, -83.973328, -162.761856, 13.724964, 100.771819
1759224939.211421, -2.769343, -0.849642, -1.329979, 0.510093, 0.580285, 0.532221, 36.484039, -83.688751, -161.901642, 13.724964, 100.771819
1759224939.232313, -1.713949, -1.750161, 3.843292, 0.845100, 0.608642, 0.597457, 36.163040, -83.671478, -161.899399, 13.724964, 100.771819
1759224939.251520, -2.679561, -3.030760, 0.679055, 2.068110, -2.004537, 0.677419, 36.293777, -83.618134, -162.076111, 13.724964, 100.771819
1759224939.272264, -2.689287, -1.439214, 0.021398, 2.898073, -3.907287, -0.253562, 38.471603, -82.320557, -165.322861, 13.724964, 100.771819
1759224939.292197, -4.704906, -1.970578, 1.871368, 2.443136, -2.735437, -1.605454, 39.430161, -80.599823, -167.873215, 13.724964, 100.771819
1759224939.311414, -4.008193, -0.959027, -0.908899, 2.585106, -2.635342, -3.250352, 39.742035, -77.985641, -170.079208, 13.724964, 100.771819
1759224939.332303, -9.025242, -2.286463, 1.978059, 2.042793, -0.376353, -2.914231, 39.613083, -75.373962, -172.392502, 13.724964, 100.771819
1759224939.351517, -11.817630, 8.130858, -0.669628, 3.515579, -0.741598, -2.620234, 38.511551, -72.688431, -172.718781, 13.724964, 100.771819
1759224939.372256, -11.959187, 22.261137, -10.999860, 2.687088, -2.769465, -3.927447, 37.755798, -69.851746, -175.575714, 13.724964, 100.771819
1759224939.392297, -13.120075, 31.619772, -10.419865, 1.620201, -1.037762, -3.761899, 36.080811, -66.988495, -177.997208, 13.724964, 100.771819
1759224939.411402, -12.781146, 31.309574, -2.953248, -0.405497, 3.397677, -2.896371, 34.438644, -64.930389, -177.300476, 13.724964, 100.771819
1759224939.432275, -15.219192, 33.148919, -0.463577, -2.288398, 5.360160, -1.393451, 32.623489, -64.163864, -173.216354, 13.724964, 100.771819
1759224939.451496, -12.428002, 23.567174, -0.235380, -1.610263, 3.912119, -0.737323, 30.233398, -64.053146, -169.720657, 13.724964, 100.771819
1759224939.472247, -8.597578, 15.495572, 2.029086, -1.055278, 2.755322, -0.512288, 29.013718, -64.439148, -168.476105, 13.724964, 100.771819
1759224939.492326, -4.714931, 10.155904, 4.308216, -0.891672, 2.434895, 0.354305, 28.221420, -64.429413, -166.604599, 13.724964, 100.771819
1759224939.512279, 0.017059, 3.834763, 4.394856, -0.652441, 0.818697, 1.516830, 28.066727, -64.986755, -165.411072, 13.724964, 100.771819
1759224939.532393, 5.743091, -1.998560, 4.597615, -0.446690, -0.596505, 2.296629, 29.703827, -66.104019, -165.538727, 13.724964, 100.771819
1759224939.551485, 7.443274, -4.815039, 2.803012, -0.638860, 0.419501, 2.959684, 30.722565, -67.439774, -164.201981, 13.724964, 100.771819
1759224939.572259, 9.194034, -6.768857, 0.583138, -0.547671, 1.150727, 2.587101, 31.799210, -69.224915, -164.555740, 13.724964, 100.771819
1759224939.592275, 14.651317, -7.226898, 0.245406, -0.153543, 1.667798, 0.078872, 31.563339, -70.126221, -163.892746, 13.724964, 100.771819
1759224939.611436, 9.396643, -8.841637, -1.099836, -0.477837, 5.142799, -0.872147, 28.862991, -69.946335, -161.167694, 13.724964, 100.771819
1759224939.632338, -0.107589, -1.998410, -8.109161, -0.736945, 4.934558, -0.745437, 25.647446, -70.102127, -159.034348, 13.724964, 100.771819
1759224939.651470, -2.658462, 1.474230, -8.202984, -0.157461, 2.347952, -0.561074, 23.550415, -70.178360, -157.225586, 13.724964, 100.771819
1759224939.672231, -4.670938, 2.743007, -12.762890, 0.394515, -3.238348, -0.952840, 23.746658, -69.498611, -157.473251, 13.724964, 100.771819
1759224939.692319, -2.023549, 1.654693, -0.200065, -1.545724, -5.559154, -1.567941, 26.357727, -69.583588, -158.547150, 13.724964, 100.771819
1759224939.712072, -0.001197, 3.480271, 3.708469, -4.193742, -4.815708, -1.670931, 28.575577, -70.635864, -159.206070, 13.724964, 100.771819
1759224939.731965, -1.398513, 8.753650, 14.910489, -3.532150, -2.965375, -0.844742, 29.572495, -72.721603, -160.166672, 13.724964, 100.771819
1759224939.751475, -6.767959, 21.225346, 22.744168, 1.017980, -2.039553, 2.483303, 31.509125, -73.899170, -160.026001, 13.724964, 100.771819
1759224939.772239, -4.938490, 39.536499, 23.545926, 0.605340, 2.136115, 3.423299, 33.159744, -74.599594, -160.759476, 13.724964, 100.771819
1759224939.792328, -5.109376, 37.009719, 3.271527, -4.078542, 1.688112, 2.639662, 32.799454, -77.458252, -158.562744, 13.724964, 100.771819
1759224939.811370, -4.612878, 23.479187, 0.870292, -5.610307, 0.547744, 2.509509, 32.358856, -81.788818, -157.019852, 13.724964, 100.771819
1759224939.832238, -3.376273, 18.772187, -7.948899, 1.309807, -2.475848, 1.389481, 31.606064, -84.994080, -157.460083, 13.724964, 100.771819
1759224939.851454, -3.820847, 17.785177, -31.464598, -1.957474, -5.412833, 0.681288, 36.048096, -85.034851, -159.722809, 13.724964, 100.771819
1759224939.872234, -2.245911, 14.358327, 7.043592, -1.211252, 1.574054, 0.485599, 36.403152, -86.286957, -160.694702, 13.724964, 100.771819
1759224939.892260, -6.232855, 9.917382, -3.264195, -0.409903, 2.349751, 0.619478, 35.284088, -86.786682, -159.328110, 13.724964, 100.771819
1759224939.912245, -4.854394, 4.082712, -4.170699, -0.482775, 0.577868, 0.182163, 34.166946, -86.922806, -158.168259, 13.724964, 100.771819
1759224939.932358, -2.797774, -1.655142, -4.598812, 0.191877, -1.755928, 0.079160, 34.836304, -86.632294, -159.089279, 13.724964, 100.771819
1759224939.951425, -1.479317, -0.889596, 3.675100, 0.284267, -0.904084, -0.062571, 35.998062, -86.686111, -159.346619, 13.724964, 100.771819
1759224939.971561, -1.780687, -1.958158, 4.924873, 0.035750, 0.968437, 0.058763, 35.676315, -86.326126, -159.358292, 13.724964, 100.771819
1759224939.992255, -4.307767, -3.018340, -6.022016, 3.166122, -4.499746, -0.560992, 36.833954, -85.326767, -161.369568, 13.724964, 100.771819
1759224940.011352, -4.254796, -1.575684, 2.786103, 3.119843, -3.739706, -1.551896, 38.441559, -82.444916, -163.707764, 13.724964, 100.771819
1759224940.032307, -6.846369, -3.878607, -2.142810, 4.465052, -4.228361, -2.101515, 39.442780, -80.088821, -167.741211, 13.724964, 100.771819
1759224940.051413, -5.121048, -2.828600, 2.562843, 4.539804, -1.506455, -2.049994, 40.224945, -76.718521, -169.952698, 13.724964, 100.771819
1759224940.072213, -5.395034, 6.629095, -1.671153, 4.767855, -0.686128, -2.466572, 39.416351, -73.247818, -172.569778, 13.724964, 100.771819
1759224940.091896, -8.661922, 25.459192, -15.404892, 2.263610, -0.928281, -4.800243, 37.981613, -69.920334, -174.510040, 13.724964, 100.771819
1759224940.111344, -12.446557, 36.464290, -4.115633, 1.452909, 4.866347, -5.016654, 34.264343, -66.498520, -173.379974, 13.724964, 100.771819
1759224940.132244, -12.325350, 30.853778, -6.831854, 0.693211, 4.638803, -3.543096, 31.066711, -63.652298, -171.275833, 13.724964, 100.771819
1759224940.151396, -12.196213, 31.939249, -4.094534, -0.726038, 1.346285, -1.705888, 28.747086, -62.825241, -169.919220, 13.724964, 100.771819
1759224940.172189, -10.318261, 28.943654, -1.311873, -0.679001, 0.515576, -0.744522, 27.953079, -62.520416, -169.218369, 13.724986, 100.771817
1759224940.192246, -8.284686, 17.398813, 2.846107, -0.823559, 3.441140, -1.636728, 26.248535, -62.152084, -168.429932, 13.724986, 100.771817
1759224940.212223, -7.809886, 10.700136, 4.676774, -0.424118, 4.204662, -1.288535, 23.504761, -62.389038, -166.530258, 13.724986, 100.771817
1759224940.232329, -3.887136, 3.730017, 4.455609, -0.070797, 1.282876, 0.074263, 22.530212, -61.757614, -165.638199, 13.724986, 100.771817
1759224940.251404, 2.229600, -2.061108, 4.397999, -0.409610, -1.435972, 1.059132, 22.749298, -61.989532, -165.183868, 13.724986, 100.771817
1759224940.271892, 6.970419, -5.630115, -0.921019, -1.864560, -2.137245, 1.937104, 24.737640, -63.284088, -165.184448, 13.724986, 100.771817
1759224940.292229, 6.542006, -7.091925, 0.446818, -1.670896, -1.194957, 2.822535, 26.856537, -65.112427, -165.125122, 13.724986, 100.771817
1759224940.311326, 6.935853, -7.134871, 1.161786, -0.627774, 0.819181, 2.890570, 28.032669, -66.789810, -165.093719, 13.724986, 100.771817
1759224940.332319, 8.851064, -7.160309, -1.772158, -0.152046, 5.165918, 1.704387, 27.186142, -67.880936, -163.730392, 13.724986, 100.771817
1759224940.351411, 5.018845, -5.400122, -8.519916, -0.109131, 5.392851, 0.017666, 24.345657, -68.497284, -160.474152, 13.724986, 100.771817
1759224940.372232, -1.282843, 0.052822, -8.854057, -0.296429, 1.720816, -0.461961, 22.585251, -68.436905, -159.638458, 13.724986, 100.771817
1759224940.392208, -1.851466, 1.417966, -4.903175, -0.866418, -2.039246, -1.014658, 22.633698, -68.176010, -159.809265, 13.724986, 100.771817
1759224940.411316, -1.716044, 1.019780, -0.268300, -2.636566, -3.385180, -1.470689, 23.930298, -68.696045, -159.509720, 13.724986, 100.771817
1759224940.432236, -0.565181, 0.830638, 3.145233, -3.188344, -3.379992, -1.001427, 25.263687, -70.282547, -159.578613, 13.724986, 100.771817
1759224940.451393, -3.011457, 5.017498, 11.390115, -1.634157, -4.234008, -0.194919, 27.120682, -71.714081, -160.092590, 13.724986, 100.771817
1759224940.472161, -5.399224, 20.055928, 22.637925, 0.947917, -1.466524, 1.474945, 29.461624, -72.169113, -160.989594, 13.724986, 100.771817
1759224940.492202, -5.804592, 52.657922, 24.024766, -0.275714, 2.763513, 2.242975, 29.002396, -72.563004, -160.399918, 13.724986, 100.771817
1759224940.511334, -6.676680, 40.309677, 0.927304, -4.350605, -0.432428, 1.946817, 29.573227, -75.330322, -158.752914, 13.724986, 100.771817
1759224940.532196, -4.840627, 21.078402, 2.285714, -5.666600, -1.098234, 1.399653, 30.133148, -79.119110, -157.864471, 13.724986, 100.771817
1759224940.551350, -5.194669, 16.958430, 2.662053, -4.794391, -2.505145, 0.246141, 29.790054, -82.759323, -158.274734, 13.724986, 100.771817
1759224940.572222, -10.088717, 15.741277, -32.037860, 2.459173, -8.497314, -1.299854, 35.204514, -82.001907, -163.323898, 13.724986, 100.771817
1759224940.592162, -6.774244, 12.036849, 0.025289, 0.749485, -1.479054, -1.533306, 37.013489, -80.241882, -165.605988, 13.724986, 100.771817
1759224940.611300, -7.455993, 8.501660, 2.864662, 0.494066, 1.591063, -1.745005, 35.942184, -79.163513, -164.354080, 13.724986, 100.771817
1759224940.632293, -8.748114, 0.575955, -6.124667, 0.348412, 0.622019, -0.165810, 35.410233, -78.575806, -164.245880, 13.724986, 100.771817
1759224940.651357, -5.607968, -3.072659, -3.649212, 0.443203, -0.028959, 0.977495, 36.007416, -78.564697, -163.597504, 13.724986, 100.771817
1759224940.672164, -3.878756, -2.852991, 2.371008, 0.469827, 0.556897, 0.837684, 36.127884, -78.813339, -164.394302, 13.724986, 100.771817
1759224940.691323, -0.841113, -2.203713, 2.379238, 0.071987, 1.751197, 0.827865, 35.513474, -79.319458, -163.217606, 13.724986, 100.771817
1759224940.711290, -2.400187, -4.287716, -5.248389, -0.458279, -1.469444, 1.236007, 35.299561, -80.058304, -162.348434, 13.724986, 100.771817
1759224940.732277, -1.953669, -3.127725, -4.130746, 1.536593, -4.303559, 0.993298, 37.367966, -80.674225, -165.584167, 13.724986, 100.771817
1759224940.751305, -0.680402, -0.621146, 3.214515, 2.552649, -1.649679, 0.012694, 39.047775, -80.111328, -167.055664, 13.724986, 100.771817
1759224940.771978, -0.601693, 2.805107, 4.559458, 2.484421, 1.700339, -1.903204, 38.711594, -78.366669, -167.302429, 13.724986, 100.771817
1759224940.792215, -5.446510, 13.495815, 3.267786, 4.855506, 3.682191, -4.674843, 36.070648, -74.116531, -167.123260, 13.724986, 100.771817
1759224940.812196, -17.882741, 26.900801, -2.250101, 6.079362, 1.822723, -5.078224, 32.766479, -68.746643, -166.634262, 13.724986, 100.771817
1759224940.832233, -13.997850, 32.844107, -17.225982, 2.690386, -2.650656, -3.319435, 31.749146, -65.244537, -169.980560, 13.724986, 100.771817
1759224940.851319, -10.237307, 33.612197, -1.245135, 2.469112, -0.625032, -0.507899, 31.444138, -63.346725, -171.744888, 13.724986, 100.771817
1759224940.872124, -6.742670, 32.421381, 1.781735, 1.234979, 2.824240, 0.390338, 32.080124, -63.083878, -172.449310, 13.724986, 100.771817
1759224940.892152, -5.898415, 22.308423, -3.041085, 0.126533, 3.252460, -1.075693, 30.508713, -62.531235, -170.836212, 13.724986, 100.771817
1759224940.912169, -8.282741, 16.477644, -4.520253, -0.430585, 1.802155, -2.887799, 28.418732, -61.574997, -168.796204, 13.724986, 100.771817
1759224940.931788, -7.972392, 11.280281, -0.123900, -0.998115, 1.321713, -2.810049, 26.611923, -60.400894, -168.898209, 13.724986, 100.771817
1759224940.951282, -6.026954, 1.637185, 3.372233, -0.872985, 1.584117, -0.732675, 24.701904, -60.166519, -166.994659, 13.724986, 100.771817
1759224940.972128, -0.913089, -1.862539, 4.760421, -0.859107, 1.244887, 1.273382, 25.295288, -60.734314, -166.758774, 13.724986, 100.771817
1759224940.992131, 4.627693, -2.665794, 3.081188, -1.582270, -0.478064, 1.545951, 26.089752, -61.488098, -166.227493, 13.724986, 100.771817
1759224941.011239, 7.988852, -5.305850, 2.851644, -1.903812, -1.793926, 0.948064, 27.452103, -62.890533, -165.476944, 13.724986, 100.771817
1759224941.031418, 9.033173, -7.337330, -0.105943, -1.435694, -1.606657, 0.975374, 28.247803, -64.038422, -165.814880, 13.724986, 100.771817
1759224941.051277, 9.223961, -7.088184, -0.100556, -0.383079, 3.982745, 1.145373, 27.990387, -64.933670, -164.387726, 13.724986, 100.771817
1759224941.072110, 7.079804, -5.816264, -6.273557, -0.527224, 3.931970, 0.541116, 26.087296, -65.023773, -162.289719, 13.724986, 100.771817
1759224941.092117, -2.054674, -0.304662, -9.313295, -0.705368, 0.550762, 0.421304, 25.757751, -65.631607, -160.993225, 13.724986, 100.771817
1759224941.111236, -2.141913, 0.632518, -3.294571, -0.844206, -1.495912, 0.478415, 26.851883, -66.298508, -160.690475, 13.724986, 100.771817
1759224941.132112, -2.345569, 0.640150, 0.119710, -1.655278, -2.675956, 0.208441, 28.391769, -66.985931, -161.642792, 13.724986, 100.771817
1759224941.151256, -1.485901, 1.683273, 2.014272, -2.675261, -3.012433, 0.141157, 29.643707, -68.229752, -161.778412, 13.725010, 100.771816
1759224941.171765, -4.515165, 9.311050, 7.329100, -2.393214, -4.645677, 0.913769, 32.337570, -69.878937, -163.773560, 13.725010, 100.771816
1759224941.192122, -9.928156, 38.378753, 31.522807, 0.460834, 1.069623, 2.609065, 33.959808, -71.611710, -164.246017, 13.725010, 100.771816
1759224941.211222, -6.810157, 37.124790, 11.736825, -1.718068, 2.020878, 2.845709, 34.266235, -73.322968, -162.079071, 13.725010, 100.771816
1759224941.232076, -4.253000, 22.416312, 5.994482, -4.505498, 1.559867, 2.118961, 34.051697, -76.422592, -160.840042, 13.725010, 100.771816
1759224941.251272, -4.264971, 19.468750, 4.259584, -4.955743, 0.851301, 1.785872, 34.021484, -80.188293, -158.585526, 13.725010, 100.771816
1759224941.272236, -4.208857, 20.326922, 4.530278, -4.928047, 1.116098, 1.059670, 33.726532, -84.093414, -157.363037, 13.725010, 100.771816
1759224941.292168, -2.559252, 16.976985, -8.973917, 1.992927, -0.155950, 1.672056, 32.520004, -85.348618, -157.452332, 13.725010, 100.771816
1759224941.311250, 2.196680, 17.169119, -24.432678, 0.477317, -3.808123, 0.392531, 35.351913, -84.837509, -159.281219, 13.725010, 100.771816
1759224941.332373, -2.755576, 12.395081, 2.502539, -0.444094, -0.604744, -0.121415, 35.978027, -84.933044, -160.692703, 13.725010, 100.771816
1759224941.351249, -3.898359, 4.274697, 5.940314, 0.948314, 2.472084, 0.171420, 34.912735, -84.517700, -159.257339, 13.725010, 100.771816
1759224941.372133, -2.733580, 0.111031, -3.772663, 1.455885, 0.941681, 0.092144, 34.292862, -83.866577, -158.475266, 13.725010, 100.771816
1759224941.392223, -2.646940, -1.692252, -5.847389, 0.676281, -1.755553, 0.156527, 35.370438, -83.709366, -159.276764, 13.725010, 100.771816
1759224941.411292, -1.615039, -0.571017, 3.228731, -0.182103, -0.151714, -0.028818, 35.534180, -83.477493, -159.918121, 13.725010, 100.771816
1759224941.432252, -2.832341, -1.760486, -2.880674, 1.322398, -2.535152, -0.613359, 35.952118, -83.175537, -161.465378, 13.725010, 100.771816
1759224941.451240, -2.303222, -1.016488, 0.301071, 2.501487, -2.976666, -1.882064, 37.314056, -80.359772, -163.601746, 13.725010, 100.771816
1759224941.472169, -3.109469, -3.340360, 0.700005, 3.258246, -2.278976, -1.970594, 38.050613, -78.107117, -166.514893, 13.725010, 100.771816
1759224941.492217, -2.423830, -3.634548, -0.748487, 4.393860, -1.726027, -1.515469, 38.459610, -75.401352, -168.744568, 13.725010, 100.771816
1759224941.511236, -1.814057, 2.713528, 1.130213, 4.408877, 0.141213, -1.882183, 37.778503, -72.723999, -170.011169, 13.725010, 100.771816
1759224941.532220, -6.349722, 12.653805, -3.636792, 4.690311, -0.190897, -3.328408, 37.022995, -69.590790, -172.363770, 13.725010, 100.771816
1759224941.551213, -14.577097, 38.647203, -17.533188, 2.352231, -2.614436, -5.733026, 34.795090, -65.598862, -174.793533, 13.725010, 100.771816
1759224941.572259, -19.927240, 41.683649, -3.933823, 3.075343, 0.248786, -3.561951, 32.799072, -62.801315, -176.926437, 13.725010, 100.771816
1759224941.592089, -13.394960, 32.142457, -7.662044, 1.296327, 0.787969, -1.143153, 32.041580, -61.122726, -177.304245, 13.725010, 100.771816
1759224941.611240, -10.103531, 20.373309, -3.744831, -0.609463, 1.668710, -0.649339, 31.013718, -61.069214, -176.449005, 13.725010, 100.771816
1759224941.632207, -11.038167, 14.627525, -1.122731, -1.068748, 2.929313, -1.520423, 29.601028, -60.194275, -174.660645, 13.725010, 100.771816
1759224941.651221, -11.887211, 11.823017, 0.260669, -0.903643, 2.788992, -1.324317, 27.988434, -59.374680, -171.874496, 13.725010, 100.771816
