SamplingTime,AccelerationX,AccelerationY,AccelerationZ,GyroX,GyroY,GyroZ,Durations,Subject,Activity
1759224927.19015,2.652626,-10.196007,3.539378,0.292596,-1.845992,0.453312,9.02,3,RUN
1759224927.21090,-1.335216,-0.408062,9.622147,-0.269364,-1.314779,-0.091638,9.04,3,RUN
1759224927.23077,-1.628506,13.420248,19.274371,-2.162918,2.141941,-0.51437,9.06,3,RUN
1759224927.25089,3.446004,14.866795,1.579425,-0.34953,2.55479,-0.22554,9.08,3,RUN
1759224927.27066,1.193061,6.801029,-14.912734,-0.769397,3.074037,-0.402344,9.10,3,RUN
1759224927.29017,7.062596,15.567847,-6.003012,-0.40373,0.325119,-1.833444,9.12,3,RUN
1759224927.31087,9.011326,33.426946,-16.981923,-0.388013,0.804977,0.416444,9.14,3,RUN
1759224927.33087,5.793818,4.617368,-1.108515,0.003115,2.042905,1.697006,9.16,3,RUN
1759224927.34999,4.281431,-4.947468,-7.462577,0.017232,2.912338,0.948094,9.18,3,RUN
1759224927.37087,11.007342,3.095852,-2.710984,0.137816,1.403471,1.038109,9.20,3,RUN
1759224927.39019,22.040871,41.168746,-13.04391,2.288616,-0.482166,3.768373,9.22,3,RUN
1759224927.41080,0.420631,33.562517,-6.703765,4.459866,-2.292643,4.214753,9.24,3,RUN
1759224927.43057,-8.582614,19.500324,-1.087716,6.481755,-2.457697,2.225778,9.26,3,RUN
1759224927.45055,-14.635755,19.632903,20.168306,0.965411,3.7811,0.384431,9.28,3,RUN
1759224927.47089,-4.146159,17.132608,4.695628,1.467558,0.071018,0.999387,9.30,3,RUN
1759224927.49021,-2.620154,8.47712,4.212598,0.892243,-0.041301,0.44001,9.32,3,RUN
1759224927.51086,-2.70859,4.317494,3.025223,1.083567,0.04821,0.061523,9.34,3,RUN
1759224927.53087,-2.685546,1.166275,2.772785,0.889925,0.532642,0.268966,9.36,3,RUN
1759224927.55091,-6.23929,-0.071377,0.143802,0.84969,1.421873,0.700129,9.38,3,RUN
1759224927.57066,-7.218518,-0.229544,7.022343,1.015167,0.788536,1.4378,9.40,3,RUN
1759224927.59023,-8.76218,1.787571,8.553435,0.004786,-0.169418,0.791941,9.42,3,RUN
1759224927.61092,-0.038756,3.87307,4.54599,-0.996643,-0.265922,-0.134948,9.44,3,RUN
1759224927.63086,-1.101183,4.1083,7.163601,-1.772192,-0.423911,0.051108,9.46,3,RUN
1759224927.65088,-6.052542,2.866757,3.449147,-2.516155,-0.777565,0.055471,9.48,3,RUN
1759224927.67085,-8.815451,2.775628,-2.013075,-2.790959,-1.163827,-0.412888,9.50,3,RUN
1759224927.69025,-13.40304,12.660538,-4.560954,-2.16162,-2.469569,-1.875039,9.52,3,RUN
1759224927.71084,-5.844994,34.352155,-9.494057,-1.51255,-1.702525,-3.79664,9.54,3,RUN
1759224927.73087,16.746244,43.757327,8.523807,-2.262617,4.389178,-2.563832,9.56,3,RUN
1759224927.75016,12.60622,23.714717,7.945757,-2.765462,1.538449,-2.005223,9.58,3,RUN
1759224927.77089,11.39221,18.613721,-2.150891,-2.37526,0.106879,-2.206737,9.60,3,RUN
1759224927.79027,4.583699,16.194679,-1.489343,-1.888159,0.742344,-0.747468,9.62,3,RUN
1759224927.81086,-4.180276,16.745346,2.477849,-2.276626,-2.449549,-0.343948,9.64,3,RUN
1759224927.83087,-0.482881,14.200758,-1.571494,-2.304732,-2.783916,-1.284693,9.66,3,RUN
1759224927.85011,5.585672,8.000075,-4.59582,-1.296379,-2.501126,-1.435225,9.68,3,RUN
1759224927.87088,4.751892,0.778265,-7.447164,0.185184,-1.289237,-1.098257,9.70,3,RUN
1759224927.89032,4.33545,-5.127482,-7.321918,1.544684,-0.703544,-0.780409,9.72,3,RUN
1759224927.91087,7.518541,-11.135133,-5.78484,2.514655,-1.091925,0.082177,9.74,3,RUN
1759224927.93087,6.87899,-14.408455,2.179322,1.890998,-1.595967,0.131094,9.76,3,RUN
1759224927.95087,2.735675,-7.504625,6.332214,1.290608,-0.267379,0.280022,9.78,3,RUN
1759224927.97001,-4.003853,4.056526,19.782839,0.017754,0.677237,0.326485,9.80,3,RUN
1759224927.99031,-1.645116,12.842348,15.630845,-1.83892,0.946106,0.507453,9.82,3,RUN
1759224928.01043,-0.124798,18.550274,-3.699341,-1.48473,0.724922,0.673116,9.84,3,RUN
1759224928.03087,2.952948,8.694094,-22.723667,-0.350278,0.794861,0.222496,9.86,3,RUN
1759224928.05087,7.596203,38.336556,48.936285,-1.240098,-0.057912,-1.855136,9.88,3,RUN
1759224928.07087,12.074857,23.201161,-33.876756,-0.400676,3.263732,-0.19888,9.90,3,RUN
1759224928.09034,7.865551,0.752079,-9.653571,0.024346,2.15509,1.234052,9.92,3,RUN
1759224928.11086,4.564695,-7.596952,-8.197148,0.173264,2.503011,1.037234,9.94,3,RUN
1759224928.13018,13.64246,6.215497,-3.317765,0.762266,0.454397,1.002113,9.96,3,RUN
1759224928.15002,20.398149,43.323827,-13.924078,2.422426,0.639669,4.298651,9.98,3,RUN
1759224928.17086,-2.003049,30.400376,-4.734384,4.972641,-2.818241,3.690376,10.00,3,RUN
1759224928.19035,-6.524499,17.005715,0.179864,6.475624,-2.286,1.75438,10.02,3,RUN
1759224928.21072,-17.301848,15.931167,16.356587,1.559112,3.291873,0.698601,10.04,3,RUN
1759224928.23059,-7.820211,15.088259,3.818153,2.250785,-0.200166,1.216623,10.06,3,RUN
1759224928.25087,-5.183746,11.025448,9.074024,1.131091,-0.719505,0.886779,10.08,3,RUN
1759224928.27086,-4.778228,8.422951,6.630592,0.829232,-0.64275,-0.047787,10.10,3,RUN
1759224928.29038,-2.048838,6.266972,2.873641,0.652436,0.662178,-0.69828,10.12,3,RUN
1759224928.31086,0.477943,2.608333,4.293252,0.561443,1.440097,-0.305352,10.14,3,RUN
1759224928.33086,-3.827431,-0.45026,10.07076,-0.11754,1.041566,0.337814,10.16,3,RUN
1759224928.35087,-5.919963,0.753575,7.067085,-1.362729,0.599006,0.479208,10.18,3,RUN
1759224928.37086,-6.024859,0.319626,3.60462,-1.637842,-0.751622,-0.010978,10.20,3,RUN
1759224928.39039,-2.321029,4.430919,5.339818,-1.848747,-0.452666,-0.265504,10.22,3,RUN
1759224928.41086,-2.956091,5.926697,5.165041,-2.983333,-0.586026,0.147129,10.24,3,RUN
1759224928.43086,-8.114847,14.600889,-1.498172,-3.239576,-1.578105,-0.331835,10.26,3,RUN
1759224928.45090,-6.578817,34.63078,-10.36001,-2.310036,-1.556262,-2.424639,10.28,3,RUN
1759224928.47096,8.023718,22.806866,4.879383,-2.949722,2.289758,-2.46976,10.30,3,RUN
1759224928.49041,9.536255,13.874698,7.457938,-3.174758,-0.474159,-2.2207,10.32,3,RUN
1759224928.51085,9.495105,21.255573,-2.594267,-2.237309,0.811162,-1.809756,10.34,3,RUN
1759224928.53083,2.388366,18.78745,1.45747,-1.577519,0.774007,-1.099292,10.36,3,RUN
1759224928.55001,-4.052486,13.964181,2.84925,-2.024341,-1.559436,-0.714895,10.38,3,RUN
1759224928.57087,-2.314744,12.806435,-2.084003,-1.833841,-2.48969,-0.950238,10.40,3,RUN
1759224928.59047,5.21921,11.23539,-2.340332,-1.013349,-1.608583,-1.224569,10.42,3,RUN
1759224928.61002,5.928043,6.705411,-1.098041,-0.360076,-1.941992,-1.114154,10.44,3,RUN
1759224928.63087,4.41835,2.523339,-3.224241,0.729379,-1.397632,-1.055402,10.46,3,RUN
1759224928.65088,2.703652,-0.514753,-3.421464,1.914269,-0.855872,-0.787893,10.48,3,RUN
1759224928.67088,1.944092,-2.678962,-2.67163,2.754483,-1.080311,-0.432096,10.50,3,RUN
1759224928.69049,2.388665,-4.734833,-0.595558,2.509071,-1.147501,-0.135861,10.52,3,RUN
1759224928.71090,1.845929,-4.405331,4.888511,1.735893,-0.74507,0.010146,10.54,3,RUN
1759224928.73065,2.166154,2.706795,12.877663,0.615031,1.388309,0.083114,10.56,3,RUN
1759224928.75067,5.85517,9.245808,15.801132,-1.139493,1.54704,0.287146,10.58,3,RUN
1759224928.77084,4.501099,10.387543,-1.699883,-0.852834,1.711294,0.058446,10.60,3,RUN
1759224928.79046,2.333598,2.86137,-17.738939,0.0454,3.593992,0.060642,10.62,3,RUN
1759224928.81086,11.94138,16.697761,15.459659,1.037773,-0.696217,-1.179052,10.64,3,RUN
1759224928.83086,12.220753,41.937435,-36.357149,-0.945247,3.86413,1.378252,10.66,3,RUN
1759224928.85086,-0.032172,9.403526,-8.24997,-0.286941,3.160259,2.334186,10.68,3,RUN
1759224928.87085,0.038756,-6.268319,-5.592556,0.541555,1.848143,1.197787,10.70,3,RUN
1759224928.89048,4.033332,-1.533187,-3.790171,0.304073,1.448309,1.195616,10.72,3,RUN
1759224928.91085,13.76666,29.407829,-11.190199,1.716576,-0.555129,3.185377,10.74,3,RUN
1759224928.93087,3.339462,36.098426,-9.720908,4.640646,-1.144039,3.247301,10.76,3,RUN
1759224928.95028,-2.960281,16.407763,-0.390255,6.406924,-1.692444,1.633165,10.78,3,RUN
1759224928.97094,-16.158467,18.136078,19.851822,3.663308,4.051219,0.816819,10.80,3,RUN
1759224928.99050,-5.307496,18.870349,7.796418,1.346169,2.151685,0.757691,10.82,3,RUN
1759224929.01087,-4.756531,12.142044,8.94384,0.801758,-2.296347,1.360091,10.84,3,RUN
1759224929.03085,-6.588544,8.744223,4.400543,-0.118551,-1.470893,1.091086,10.86,3,RUN
1759224929.05087,-8.045266,4.730045,3.170821,-0.214931,-0.800585,-0.076959,10.88,3,RUN
1759224929.07087,-4.596418,1.506701,0.010475,-0.008087,0.509703,-1.155795,10.90,3,RUN
1759224929.09053,-0.052224,1.066467,3.937414,0.803218,0.47971,-0.427517,10.92,3,RUN
1759224929.11087,-4.13718,0.674716,8.10557,-0.018633,-0.142348,0.248284,10.94,3,RUN
1759224929.13050,-4.314351,3.829526,6.192453,-1.268325,-0.349637,-0.103626,10.96,3,RUN
1759224929.15088,0.11956,6.909965,7.048081,-1.915873,-0.582804,-0.075387,10.98,3,RUN
1759224929.17086,1.7343,6.586,7.21777,-3.553258,-1.643096,0.689693,11.00,3,RUN
1759224929.19054,-4.620211,8.541464,-1.172261,-4.702798,-2.492069,0.574882,11.02,3,RUN
1759224929.21086,-10.256311,22.35915,-5.025878,-3.143777,-2.849769,-1.985417,11.04,3,RUN
1759224929.23084,1.664419,32.234783,-7.843405,-2.542155,0.237585,-2.94271,11.06,3,RUN
1759224929.25033,12.807034,23.587375,-1.142932,-2.317046,4.830704,-2.025627,11.08,3,RUN
1759224929.26997,9.804705,18.606538,9.348011,-2.337799,1.18167,-1.824836,11.10,3,RUN
1759224929.29057,4.69084,18.535311,0.314389,-2.544201,-1.229684,-1.195614,11.12,3,RUN
1759224929.31085,-2.631078,13.652336,-3.091663,-1.480934,-0.795963,-0.53227,11.14,3,RUN
1759224929.33085,-2.545635,12.160898,-2.803461,-0.792312,-1.631531,-1.251108,11.16,3,RUN
1759224929.35085,3.32001,11.940333,-1.236306,-0.454125,-2.09668,-1.266339,11.18,3,RUN
1759224929.37084,5.698948,7.000496,-3.443161,0.518435,-1.675622,-1.185637,11.20,3,RUN
1759224929.39063,6.184223,1.039084,-5.208735,1.586158,-0.933341,-0.537343,11.22,3,RUN
1759224929.41084,4.678569,-3.781791,-3.739893,2.198625,-0.846657,0.247808,11.24,3,RUN
1759224929.43084,4.063409,-7.66788,-1.741183,1.929034,-0.659887,0.716743,11.26,3,RUN
1759224929.45055,3.474436,-12.391789,1.780687,1.290863,-0.258709,0.354368,11.28,3,RUN
1759224929.47084,-0.451307,-6.537368,9.20391,-0.110964,1.494386,0.334529,11.30,3,RUN
1759224929.49065,-0.638803,7.016507,19.709218,-1.050667,1.938212,0.310861,11.32,3,RUN
1759224929.51086,0.319776,13.509582,6.959346,0.056795,2.382981,-0.067193,11.34,3,RUN
1759224929.53083,2.101959,12.731018,-18.353202,-0.125123,1.892385,-0.388592,11.36,3,RUN
1759224929.55088,11.398345,24.931869,-1.67624,0.576569,0.140231,-1.131851,11.38,3,RUN
1759224929.57088,7.955034,33.34674,-15.844827,-1.280286,3.423337,1.309446,11.40,3,RUN
1759224929.59062,5.374534,3.326444,-2.043601,-0.763024,1.102797,1.115786,11.42,3,RUN
1759224929.61094,4.238186,-5.258265,-8.989629,-0.884564,0.591775,1.679779,11.44,3,RUN
1759224929.63084,5.437681,-0.664241,-10.676044,2.171118,-1.83935,2.166486,11.46,3,RUN
1759224929.65086,10.96679,27.69792,-13.808109,4.249683,-1.914122,3.122758,11.48,3,RUN
1759224929.67092,2.241422,40.535181,-8.604312,7.614078,-1.74552,2.128415,11.50,3,RUN
1759224929.69064,-11.120917,18.22601,14.107684,2.66812,4.466626,0.445537,11.52,3,RUN
1759224929.71087,-5.822848,19.135657,9.810241,2.190627,-0.530655,0.718201,11.54,3,RUN
1759224929.73079,-2.487276,16.878523,5.427057,1.26354,-0.596884,1.155275,11.56,3,RUN
1759224929.75086,-2.950554,11.807903,8.989329,0.507896,-0.78678,0.776784,11.58,3,RUN
1759224929.77005,-5.650166,8.727015,3.668964,0.414493,-0.63887,-0.029622,11.60,3,RUN
1759224929.79066,-4.592677,4.192397,-2.567781,0.959982,1.351812,-0.178769,11.62,3,RUN
1759224929.81087,-0.457592,2.200421,1.357812,1.577611,0.413457,0.769381,11.64,3,RUN
1759224929.83077,-4.361487,0.572364,9.633819,0.256513,-0.493491,1.377,11.66,3,RUN
1759224929.85082,-8.393921,2.138321,8.029105,-1.277231,-1.007954,0.658202,11.68,3,RUN
1759224929.87088,-4.905869,1.062876,3.229329,-1.437271,-1.149532,0.051727,11.70,3,RUN
1759224929.89068,-1.19351,2.436848,8.005013,-2.462281,-1.785205,-0.012321,11.72,3,RUN
1759224929.91087,-1.431433,4.210204,4.207061,-3.72787,-1.868317,0.238963,11.74,3,RUN
1759224929.93086,-6.682666,6.913407,-4.002207,-3.643283,-1.734995,-0.824682,11.76,3,RUN
1759224929.95086,-6.760178,21.676803,-4.412214,-2.84558,-0.770929,-2.733345,11.78,3,RUN
1759224929.97087,13.091794,36.169204,-1.240047,-3.319884,0.999276,-2.086783,11.80,3,RUN
1759224929.99070,14.525322,27.325622,6.314408,-3.684886,-0.043448,-1.727553,11.82,3,RUN
1759224930.00995,13.133992,25.165903,-4.21574,-2.545104,1.941983,-1.375239,11.84,3,RUN
1759224930.03086,6.34658,19.324649,-0.511012,-1.861574,1.59675,-0.529164,11.86,3,RUN
1759224930.05049,-2.771438,13.781773,1.467795,-2.035184,-1.026356,-0.312171,11.88,3,RUN
1759224930.07085,-4.950461,12.449998,-1.039532,-1.695257,-2.025816,-0.715882,11.90,3,RUN
1759224930.09072,0.117466,10.835558,-2.755277,-0.966113,-1.793872,-1.15731,11.92,3,RUN
1759224930.11084,3.524265,7.344363,-3.455132,-0.021336,-2.191751,-1.46647,11.94,3,RUN
1759224930.13084,3.028515,3.088371,-5.413739,1.163731,-1.582117,-1.471115,11.96,3,RUN
1759224930.15087,2.073678,-1.508497,-5.550957,2.409356,-1.730899,-1.273032,11.98,3,RUN
1759224930.17088,2.533664,-6.336255,-7.565228,3.109137,-1.699105,-0.47359,12.00,3,RUN
1759224930.19080,6.464793,-12.757653,-1.172261,1.943714,-1.284076,-0.181917,12.02,3,RUN
1759224930.21086,1.651999,-11.28881,8.483854,0.507371,0.751276,-0.356999,12.04,3,RUN
1759224930.23072,3.132065,4.954501,25.612571,-1.742197,2.591053,0.361292,12.06,3,RUN
1759224930.25085,5.77646,11.739968,13.215694,-0.17113,0.569772,0.604788,12.08,3,RUN
1759224930.27089,3.553893,14.757709,-5.448006,0.068662,2.169158,0.562726,12.10,3,RUN
1759224930.29076,-0.220416,5.59495,-19.078794,-0.183297,1.812651,-0.538874,12.12,3,RUN
1759224930.31049,11.485734,41.128793,16.029928,0.413923,2.632149,-0.117743,12.14,3,RUN
1759224930.33085,12.687024,19.569606,-20.884172,-0.873586,3.253993,2.042852,12.16,3,RUN
1759224930.35085,3.651158,0.979528,-4.487632,-0.226041,2.054318,0.659431,12.18,3,RUN
1759224930.37089,2.533365,-6.732495,-8.945486,0.372912,2.586467,0.275509,12.20,3,RUN
1759224930.39078,7.958925,2.223016,-6.85011,2.082483,-0.115528,1.549033,12.22,3,RUN
1759224930.41086,15.619323,35.376873,-8.317606,3.629318,-2.291797,4.053425,12.24,3,RUN
1759224930.43082,1.124227,36.021063,-8.436418,6.576891,-3.301546,2.478162,12.26,3,RUN
1759224930.45087,-4.702511,20.613777,-0.99943,6.197715,1.849634,0.975411,12.28,3,RUN
1759224930.47085,-18.356643,16.166248,27.199777,1.056735,3.442182,0.379586,12.30,3,RUN
1759224930.49080,-7.384466,14.149582,11.109994,1.510723,-3.502202,0.584996,12.32,3,RUN
1759224930.51084,-4.190152,6.998551,4.642357,0.51918,-0.878,0.046106,12.34,3,RUN
1759224930.53086,-3.650559,6.496666,1.488745,0.636241,0.611558,-0.39913,12.36,3,RUN
1759224930.55087,-1.278055,6.548291,4.272902,0.568938,0.491569,-0.396138,12.38,3,RUN
1759224930.57088,-2.693178,2.07278,5.057152,0.229854,0.710615,0.120705,12.40,3,RUN
1759224930.59083,-5.412841,0.825401,8.918401,-0.966662,-0.293614,0.295131,12.42,3,RUN
1759224930.61050,-5.596446,-0.09083,6.110601,-1.431053,-1.060915,-0.51801,12.44,3,RUN
1759224930.63056,-1.713201,3.799448,6.061969,-2.321938,-0.511104,-0.596937,12.46,3,RUN
1759224930.65070,2.845808,6.48694,8.546252,-3.548009,-0.938974,-0.010507,12.48,3,RUN
1759224930.67087,1.687314,6.92867,3.779098,-4.418841,-0.691725,-0.077016,12.50,3,RUN
1759224930.69083,-3.614646,15.67409,-1.966986,-4.041575,-3.894523,-1.134733,12.52,3,RUN
1759224930.71085,-6.050297,38.703467,-6.488137,-3.433083,-0.052267,-2.433987,12.54,3,RUN
1759224930.73085,5.41733,32.506525,-10.113856,-2.545536,6.484955,-2.469688,12.56,3,RUN
1759224930.75081,11.577012,16.654965,9.429414,-2.672438,2.310123,-2.618202,12.58,3,RUN
1759224930.77089,9.672126,18.603545,6.119879,-2.821901,-0.075922,-1.200134,12.60,3,RUN
1759224930.78984,1.681178,15.33965,-4.600309,-1.76576,-0.806767,-0.132327,12.62,3,RUN
1759224930.81085,-4.50065,11.525687,-1.774702,-1.267492,-2.456045,-0.577664,12.64,3,RUN
1759224930.83043,-3.772813,9.551967,-2.673575,-0.636045,-1.421579,-1.184024,12.66,3,RUN
1759224930.85086,4.036624,8.050204,-2.833987,0.530124,-1.469377,-1.351944,12.68,3,RUN
1759224930.87094,5.747131,3.044227,-4.878784,1.901785,-1.030505,-0.990488,12.70,3,RUN
1759224930.89085,4.866514,-2.660706,-5.505616,3.219146,-0.829998,-0.13466,12.72,3,RUN
1759224930.91085,5.14095,-6.509385,-1.247828,2.859246,-1.18995,0.693431,12.74,3,RUN
1759224930.93083,1.416619,-10.921151,3.764732,1.602764,-1.226366,0.363465,12.76,3,RUN
1759224930.95086,-3.398719,-6.593781,9.709535,0.055027,0.819553,-0.217426,12.78,3,RUN
1759224930.97094,2.775029,7.571064,21.328745,-1.399937,1.347728,0.224254,12.80,3,RUN
1759224930.99083,6.967725,12.658294,8.102427,-0.498262,0.760277,0.653181,12.82,3,RUN
1759224931.01085,4.651635,14.292037,-10.365098,-0.629548,2.021329,1.087815,12.84,3,RUN
1759224931.03086,3.891625,7.5564,-13.775039,0.003151,-1.871657,-0.178103,12.86,3,RUN
1759224931.05085,2.360234,52.176687,14.345607,-0.866505,3.43601,0.413787,12.88,3,RUN
1759224931.07086,5.77646,9.958981,-9.969905,-0.752845,2.586336,1.494095,12.90,3,RUN
1759224931.09083,2.494908,-2.007688,-9.542839,-0.064283,1.534348,1.043856,12.92,3,RUN
1759224931.11085,4.336049,0.489315,-9.220819,0.95389,0.221207,1.84982,12.94,3,RUN
1759224931.13086,10.276213,22.91251,-12.289437,3.102235,-1.014071,2.578931,12.96,3,RUN
1759224931.15089,4.139874,32.584336,-9.375245,5.629848,-1.621197,2.012801,12.98,3,RUN
1759224931.17086,-1.056292,16.48737,-1.467346,6.76422,-0.951839,1.210042,13.00,3,RUN
1759224931.19083,-5.906645,14.616152,5.16145,3.744924,3.325219,0.158079,13.02,3,RUN
1759224931.21085,-7.597251,20.472669,17.669956,1.695378,0.721971,0.769608,13.04,3,RUN
1759224931.23085,-2.664597,17.011252,10.802937,0.666631,-1.460276,0.77345,13.06,3,RUN
1759224931.25076,-4.408623,9.604939,6.886472,0.026123,-0.350014,0.073827,13.08,3,RUN
1759224931.27086,-5.354183,6.587796,4.845116,-0.068695,0.078639,-0.297503,13.10,3,RUN
1759224931.29083,-5.523124,4.128053,3.200748,0.283382,-0.037713,-0.177427,13.12,3,RUN
1759224931.31084,-4.685004,1.265186,4.087501,0.271427,-0.116819,0.266775,13.14,3,RUN
1759224931.33067,-7.541286,1.265186,8.963292,-1.281662,-0.042852,-0.063802,13.16,3,RUN
1759224931.35082,-5.497386,2.489222,7.121702,-1.910981,-1.14106,-0.521046,13.18,3,RUN
1759224931.37089,0.428113,4.31495,6.868516,-2.95755,-1.021372,-0.177647,13.20,3,RUN
1759224931.39083,0.750732,4.825065,2.989909,-3.963882,-1.272475,-0.09208,13.22,3,RUN
1759224931.41085,-3.301754,12.799252,-0.915782,-3.455528,-2.524318,-1.761534,13.24,3,RUN
1759224931.43086,-4.031237,30.126838,-3.185934,-2.658095,-1.06192,-2.64983,13.26,3,RUN
1759224931.45084,7.745991,32.667535,-5.742642,-3.031449,5.177556,-1.908091,13.28,3,RUN
1759224931.47086,10.460566,17.833061,1.512387,-2.206794,3.317955,-2.03453,13.30,3,RUN
1759224931.49083,9.010877,19.105131,5.394735,-2.098181,0.592175,-1.467854,13.32,3,RUN
1759224931.51084,2.572121,17.984046,-2.426673,-1.427424,0.576465,-0.46612,13.34,3,RUN
1759224931.53086,-3.463362,14.21228,0.544232,-1.262079,-1.732315,-0.191807,13.36,3,RUN
1759224931.55073,-10.408941,10.893468,-1.751957,-0.872401,-1.836141,-1.216046,13.38,3,RUN
1759224931.57085,2.970306,9.570671,-0.899172,-0.19493,-2.124578,-1.269234,13.40,3,RUN
1759224931.59083,7.999626,5.687725,-4.033482,0.976344,-1.666666,-0.89534,13.42,3,RUN
1759224931.61085,6.992715,-0.768389,-2.612373,1.808601,-1.22282,-0.297541,13.44,3,RUN
1759224931.63082,6.279841,-6.095937,-6.318298,2.899219,-0.477367,0.707217,13.46,3,RUN
1759224931.65004,7.099107,-10.894515,-2.632125,2.328066,-0.798744,0.922138,13.48,3,RUN
1759224931.67085,5.146037,-11.226412,5.354333,1.403241,-0.609837,0.834402,13.50,3,RUN
1759224931.69053,0.573262,0.477045,7.98152,0.013851,2.230267,0.887513,13.52,3,RUN
1759224931.71085,-2.508824,9.700707,17.283891,-0.919494,2.32361,0.645434,13.54,3,RUN
1759224931.73085,-1.875109,19.288736,1.075146,0.165081,2.642526,-0.108695,13.56,3,RUN
1759224931.74991,0.77632,12.204742,-14.126837,-1.049898,2.119709,-1.402929,13.58,3,RUN
1759224931.77086,10.420763,44.389846,-0.493056,1.438269,2.945811,-0.922677,13.60,3,RUN
1759224931.79082,6.216994,7.628974,3.376124,-1.231348,3.450615,0.53942,13.62,3,RUN
1759224931.81086,4.776133,-3.337068,-4.738724,-1.480692,1.466007,1.173713,13.64,3,RUN
1759224931.83033,4.07149,-4.418948,-2.46109,-1.406633,-1.076599,2.023977,13.66,3,RUN
1759224931.85083,8.743176,20.621259,-14.306552,1.647993,-3.106582,2.647542,13.68,3,RUN
1759224931.87083,10.155755,34.628685,-15.11684,4.820618,-1.923805,2.200811,13.70,3,RUN
1759224931.89082,-0.580295,19.353978,-2.962974,6.686632,-0.803986,1.766084,13.72,3,RUN
1759224931.91084,-13.30383,15.693693,20.437654,5.40555,2.984598,0.912702,13.74,3,RUN
1759224931.93083,-5.291934,16.667534,11.42543,1.015877,0.696588,0.889203,13.76,3,RUN
1759224931.95084,-5.568913,14.82759,3.756502,1.362835,-2.657492,1.209805,13.78,3,RUN
1759224931.97083,-5.420473,10.045172,4.782268,0.698961,-0.183641,0.928685,13.80,3,RUN
1759224931.99018,-5.193472,7.864504,5.88794,0.458258,-0.11218,0.124101,13.82,3,RUN
1759224932.01083,-4.91784,2.517503,2.310704,0.511585,0.379653,-0.508548,13.84,3,RUN
1759224932.03085,-3.734955,0.924162,5.309591,0.648551,0.321422,0.010761,13.86,3,RUN
1759224932.05085,-6.178088,-0.388459,10.101137,-0.858592,0.344116,0.274118,13.88,3,RUN
1759224932.07091,-2.899677,2.247407,8.587104,-2.151226,-1.202657,-0.276387,13.90,3,RUN
1759224932.09082,0.730082,5.469105,7.757812,-3.221876,-1.852237,0.100439,13.92,3,RUN
1759224932.11085,-1.65978,6.735937,-0.471807,-4.205908,-2.059938,0.195619,13.94,3,RUN
1759224932.13085,-6.930017,19.501521,-4.923825,-3.84352,-2.375632,-1.523887,13.96,3,RUN
1759224932.15084,-0.97459,39.491159,-9.573215,-2.647232,-0.794371,-3.052335,13.98,3,RUN
1759224932.17083,11.44174,27.28941,-4.030788,-1.624475,5.675707,-2.502848,14.00,3,RUN
1759224932.19053,10.548104,15.697434,11.404331,-2.130583,3.915322,-2.272099,14.02,3,RUN
1759224932.21085,10.494534,20.630387,0.40881,-2.463908,0.76439,-1.628038,14.04,3,RUN
1759224932.23087,0.94571,15.085116,-2.032079,-1.695494,0.15069,-0.198783,14.06,3,RUN
1759224932.25026,-4.314202,12.86614,-0.137068,-1.288814,-1.444829,-0.164597,14.08,3,RUN
1759224932.27021,-2.945317,11.691934,-1.953519,-0.984308,-1.744439,-0.913033,14.10,3,RUN
1759224932.29082,6.344934,9.245958,-2.303372,-0.352624,-1.99079,-1.245105,14.12,3,RUN
1759224932.31087,6.997803,2.606238,-4.415057,0.789303,-1.456595,-0.954307,14.14,3,RUN
1759224932.33085,6.408081,-4.518008,-7.319972,1.755566,-0.5478,-0.031585,14.16,3,RUN
1759224932.35083,6.564901,-9.986514,-2.895787,1.920841,-0.594791,0.98371,14.18,3,RUN
1759224932.37085,3.775057,-11.98283,4.88492,1.419779,-1.406353,0.31753,14.20,3,RUN
1759224932.39082,4.126107,-7.206098,8.644864,0.81247,0.094679,0.201716,14.22,3,RUN
1759224932.41085,-2.109292,4.316446,14.054862,-0.344999,1.858092,0.895823,14.24,3,RUN
1759224932.43082,-4.298041,9.636063,1.388338,-0.129102,1.469822,0.552773,14.26,3,RUN
1759224932.45086,-2.199374,13.076082,-12.650662,-0.200808,1.610676,0.054043,14.28,3,RUN
1759224932.47085,3.281702,22.781876,-6.708553,0.024574,0.806401,-1.118775,14.30,3,RUN
1759224932.49082,5.566818,38.687905,0.267103,0.764547,3.482083,-0.647409,14.32,3,RUN
1759224932.51091,6.583905,6.421997,1.761833,-1.301744,1.470598,1.033118,14.34,3,RUN
1759224932.53082,5.924302,-2.040458,-9.658509,-1.125913,1.038357,1.565989,14.36,3,RUN
1759224932.55083,5.675754,2.288707,-9.649531,0.232673,-0.600235,2.084102,14.38,3,RUN
1759224932.57085,8.25416,23.902662,-12.25517,2.576381,-1.897967,2.381858,14.40,3,RUN
1759224932.59082,2.86975,30.951341,-9.227253,5.432374,-1.987587,2.44853,14.42,3,RUN
1759224932.60985,-5.319018,20.078823,-0.930147,7.339701,-0.702671,1.274556,14.44,3,RUN
1759224932.63084,-13.071743,18.829049,34.733132,2.219717,4.896773,0.60367,14.46,3,RUN
1759224932.65085,-4.295347,16.291495,7.471406,0.763018,-1.010363,1.247703,14.48,3,RUN
1759224932.67084,-5.61156,12.946645,4.016872,0.887919,-2.330136,1.091568,14.50,3,RUN
1759224932.69084,-5.250185,5.654506,3.155259,0.868743,-0.559808,0.887847,14.52,3,RUN
1759224932.70997,-6.238691,3.315221,4.153641,0.729814,0.292858,0.103502,14.54,3,RUN
1759224932.73086,-5.374833,2.338536,4.785411,0.762255,-0.39277,-0.610169,14.56,3,RUN
1759224932.75082,-5.860706,1.868974,8.476372,-0.189842,-0.291575,-0.542009,14.58,3,RUN
1759224932.77087,-2.953697,1.870171,7.573309,-1.615887,-1.19201,-0.699119,14.60,3,RUN
1759224932.79083,2.784307,3.834015,7.424569,-2.492443,-1.682813,-0.32263,14.62,3,RUN
1759224932.81084,1.320402,4.74845,3.389441,-3.495405,-1.583738,0.065246,14.64,3,RUN
1759224932.83085,-2.79942,12.82903,-0.057162,-4.179695,-2.300984,-0.674565,14.66,3,RUN
1759224932.85087,-3.471293,27.448325,-3.000833,-3.853115,-2.768823,-1.856087,14.68,3,RUN
1759224932.87088,4.984578,34.880974,-6.737732,-3.152573,1.965448,-2.196421,14.70,3,RUN
1759224932.89082,9.102156,21.655554,-1.002722,-2.46832,6.178731,-2.107282,14.72,3,RUN
1759224932.90994,7.431303,20.264672,7.097012,-2.641859,2.200038,-2.082107,14.74,3,RUN
1759224932.93085,2.492514,18.743457,-1.148618,-2.826257,-0.732262,-0.582457,14.76,3,RUN
1759224932.95085,-7.216573,14.58009,-0.768988,-2.558599,-2.553967,-0.120907,14.78,3,RUN
1759224932.97087,-7.223755,11.632079,-3.309834,-2.181632,-1.665655,-0.63883,14.80,3,RUN
1759224932.99082,1.642422,9.16231,-2.571373,-1.504447,-2.035569,-1.224231,14.82,3,RUN
1759224933.00996,6.398953,5.185691,-4.006098,-0.476528,-2.214205,-1.114171,14.84,3,RUN
1759224933.03050,5.845593,-0.531363,-4.692186,0.848234,-1.811915,-0.650521,14.86,3,RUN
1759224933.05025,4.524143,-4.555418,-8.616432,2.465185,-0.539163,-0.105326,14.88,3,RUN
1759224933.07083,4.758625,-7.319673,-5.019593,3.387208,0.060861,0.664841,14.90,3,RUN
1759224933.09084,5.213374,-9.696517,2.181866,2.384896,0.439527,0.914091,14.92,3,RUN
1759224933.11084,6.126912,-4.308815,15.585056,0.570355,0.985734,0.527574,14.94,3,RUN
1759224933.13081,5.898265,8.232762,19.869031,-1.02518,1.462084,0.824172,14.96,3,RUN
1759224933.15084,-0.616357,11.818976,-10.314071,0.272118,4.083323,0.414112,14.98,3,RUN
1759224933.17085,3.04722,14.795119,-10.439467,1.045764,3.47536,-0.698672,15.00,3,RUN
1759224933.19082,2.318934,46.661494,0.992097,1.038601,1.605909,-0.663178,15.02,3,RUN
1759224933.21084,2.172888,12.511649,-0.484078,-0.895978,3.240245,1.470688,15.04,3,RUN
1759224933.23081,2.12216,0.07437,-7.810484,-0.975413,0.968693,1.716929,15.06,3,RUN
1759224933.25084,-0.015562,-1.794005,-6.97012,-0.454349,-1.264688,2.376586,15.08,3,RUN
1759224933.27085,6.329371,19.948638,-13.005902,2.64565,-4.035702,2.883305,15.10,3,RUN
1759224933.29044,2.699462,33.743729,-12.689418,4.857654,-2.261759,1.662089,15.12,3,RUN
1759224933.31084,-3.038242,19.979164,-2.346467,7.583305,-0.06845,0.99719,15.14,3,RUN
1759224933.33084,-9.604639,15.732449,30.816817,4.00283,4.691804,0.380968,15.16,3,RUN
1759224933.35085,-1.762731,18.227805,10.934169,1.316314,-1.093016,0.713006,15.18,3,RUN
1759224933.37093,-2.967164,14.106337,4.411317,0.515392,-2.519103,0.815122,15.20,3,RUN
1759224933.39082,-5.670816,8.352921,3.199102,0.174887,-0.026203,0.626689,15.22,3,RUN
1759224933.41084,-6.698228,4.834192,3.624223,0.568197,-0.195891,-0.100422,15.24,3,RUN
1759224933.43084,-5.699996,3.150919,4.173393,0.812978,-0.080834,-0.284993,15.26,3,RUN
1759224933.45086,-6.711247,2.28347,8.509142,0.065547,-0.357153,0.002287,15.28,3,RUN
1759224933.47084,-6.650045,1.025766,8.755595,-1.553166,-1.15713,-0.391334,15.30,3,RUN
1759224933.49055,2.246809,1.945588,5.958869,-2.471112,-1.773289,-0.379788,15.32,3,RUN
1759224933.51083,1.828871,4.707898,2.009483,-3.541212,-1.559561,0.07382,15.34,3,RUN
1759224933.53084,-1.991976,16.773478,-0.05372,-4.378652,-3.200879,-0.570731,15.36,3,RUN
1759224933.55085,0.59466,35.691262,-5.437831,-4.055724,-2.087118,-2.347332,15.38,3,RUN
1759224933.57085,17.153108,35.519179,-4.476708,-3.577095,4.529413,-1.939714,15.40,3,RUN
1759224933.59082,12.248736,15.128362,3.562273,-3.037388,4.624731,-2.018051,15.42,3,RUN
1759224933.61084,13.167211,17.66846,-1.187973,-2.745935,3.120212,-1.388397,15.44,3,RUN
1759224933.63085,3.566014,15.019725,-1.345092,-1.97887,1.754732,0.427074,15.46,3,RUN
1759224933.65086,-9.127295,12.452841,-1.075745,-1.528256,-1.509619,0.418783,15.48,3,RUN
1759224933.67045,-12.983606,10.218153,-2.777723,-1.30239,-1.013879,-0.957336,15.50,3,RUN
1759224933.69082,2.379537,7.649325,-2.269853,-0.912528,-2.088103,-1.235732,15.52,3,RUN
1759224933.71018,5.420622,2.135927,-4.690989,0.234121,-2.17537,-0.861963,15.54,3,RUN
1759224933.73082,1.418714,-4.270807,-5.812972,1.425244,-2.18433,-0.525591,15.56,3,RUN
1759224933.75042,0.414347,-8.843582,-13.460052,3.067958,-1.769852,-0.145889,15.58,3,RUN
1759224933.77084,3.248932,-15.040524,-1.200692,2.872753,0.471475,-0.175442,15.60,3,RUN
1759224933.79082,7.170035,-12.725481,24.094048,0.658145,-0.03311,-1.387214,15.62,3,RUN
1759224933.81084,8.626159,6.305429,17.233464,-0.637173,4.009285,-0.520556,15.64,3,RUN
1759224933.83084,3.500921,10.862194,-3.424905,0.467929,3.673247,-0.132424,15.66,3,RUN
1759224933.85084,2.82007,12.454936,-18.451963,0.093027,2.539443,0.137298,15.68,3,RUN
1759224933.87084,5.598541,23.804799,-5.745635,1.594483,-0.476858,-0.568066,15.70,3,RUN
1759224933.89045,4.259584,46.100203,0.875081,0.19235,4.837663,1.78975,15.72,3,RUN
1759224933.91084,5.098752,6.285378,3.300856,-0.97761,-0.484844,1.524315,15.74,3,RUN
1759224933.93084,0.850391,-2.748095,-9.219472,-1.234671,-1.701895,2.122671,15.76,3,RUN
1759224933.95084,-1.529745,0.070928,-13.90687,0.691825,-1.950071,1.995993,15.78,3,RUN
1759224933.97092,3.599084,27.312903,-16.478841,3.28489,-1.262308,2.076936,15.80,3,RUN
1759224933.99043,-3.552846,38.824524,-9.573365,7.273069,-1.038164,1.32968,15.82,3,RUN
1759224934.01084,-5.458331,21.542877,1.306336,8.770067,0.284064,0.103525,15.84,3,RUN
1759224934.03086,-1.485303,13.092991,46.744842,0.483094,3.586026,0.726931,15.86,3,RUN
1759224934.05085,-2.491017,10.980407,5.288193,0.398649,-3.178163,0.093398,15.88,3,RUN
1759224934.07084,-1.818546,7.339276,-0.977582,0.204509,0.357597,0.355391,15.90,3,RUN
1759224934.09082,-3.235464,2.971354,2.065597,0.544579,1.921249,0.637647,15.92,3,RUN
1759224934.11085,-6.149208,1.82902,7.484574,0.562175,1.604371,0.502512,15.94,3,RUN
1759224934.13085,-7.208043,1.656937,9.091532,-0.777731,0.269733,0.300134,15.96,3,RUN
1759224934.15085,-6.36304,0.952892,5.827188,-1.533257,-0.599588,-0.230559,15.98,3,RUN
1759224934.17085,-0.052972,4.096629,6.913108,-2.231589,-0.872042,-0.317996,16.00,3,RUN
1759224934.19082,-0.056413,5.957971,3.876961,-3.874149,-1.640236,0.152088,16.02,3,RUN
1759224934.21085,-5.172224,17.221941,-3.347692,-4.215429,-2.153967,-0.596137,16.04,3,RUN
1759224934.23085,-4.296096,31.663916,-3.934122,-3.493316,-1.892477,-2.301863,16.06,3,RUN
1759224934.25086,8.487595,29.517813,-4.457555,-2.948106,3.409872,-2.770042,16.08,3,RUN
1759224934.27086,11.699117,20.858883,3.806481,-2.231786,4.945926,-2.146437,16.10,3,RUN
1759224934.29082,9.497499,20.828956,3.195062,-2.338779,2.082422,-1.865728,16.12,3,RUN
1759224934.31007,0.124648,14.587571,-0.085293,-2.003657,-0.917633,-0.588978,16.14,3,RUN
1759224934.33089,-8.277653,12.23437,-0.046238,-1.71596,-2.706818,-0.13975,16.16,3,RUN
1759224934.35089,-5.151574,11.741315,0.279373,-2.057091,-3.184599,-0.49397,16.18,3,RUN
1759224934.37084,3.343054,7.104494,-6.191705,-1.318202,-3.662842,-0.465516,16.20,3,RUN
1759224934.39036,6.435165,1.04043,-7.587075,-0.092505,-3.406801,0.373934,16.22,3,RUN
1759224934.41083,3.415329,-5.748029,-11.941979,1.300238,-2.102509,0.552054,16.24,3,RUN
1759224934.43081,3.081936,-13.02326,-9.68679,1.886346,-0.98593,0.241874,16.26,3,RUN
1759224934.45081,3.849727,-14.709376,3.387047,1.031937,-1.577147,0.393974,16.28,3,RUN
1759224934.47046,0.822558,-1.231817,13.65099,0.608979,-0.864565,0.403198,16.30,3,RUN
1759224934.49081,2.85329,12.458228,16.880468,0.951742,-0.544913,-0.196057,16.32,3,RUN
1759224934.51080,8.173356,24.882639,-8.560019,-0.959193,1.6562,-1.106676,16.34,3,RUN
1759224934.53080,18.636316,34.454806,0.215029,-0.117057,-0.325133,0.571858,16.36,3,RUN
1759224934.55081,3.016844,11.269806,-8.778191,-0.010863,1.839937,2.029012,16.38,3,RUN
1759224934.57082,-1.583166,4.947019,-10.415076,-0.100648,0.616425,1.694035,16.40,3,RUN
1759224934.59081,-4.059818,0.526874,-11.922675,1.191098,0.568966,0.900059,16.42,3,RUN
1759224934.61083,-2.256086,9.630377,-13.540407,3.725577,-1.043141,0.753242,16.44,3,RUN
1759224934.63082,4.290858,28.097902,-10.726173,6.835112,-1.097732,0.803206,16.46,3,RUN
1759224934.65082,1.567454,30.44003,-5.40925,8.902937,-0.047109,-0.21387,16.48,3,RUN
1759224934.67082,-2.18037,17.625963,39.434447,1.161383,2.699561,0.367164,16.50,3,RUN
1759224934.69081,0.632219,13.098977,10.737097,0.418917,-0.772884,0.788781,16.52,3,RUN
1759224934.71090,-3.300257,10.803985,1.506402,0.895493,-0.389489,0.752929,16.54,3,RUN
1759224934.73071,-3.483863,5.372289,2.084601,1.047186,1.775122,0.589289,16.56,3,RUN
1759224934.75017,-5.008221,5.436484,9.557952,0.770321,1.686253,0.161053,16.58,3,RUN
1759224934.77086,-6.810307,5.905149,7.384167,-0.732557,0.329996,-0.433612,16.60,3,RUN
1759224934.79043,-6.777686,2.332701,6.766014,-1.568269,-0.322099,-0.358391,16.62,3,RUN
1759224934.81030,-3.43134,0.202011,8.403349,-2.622675,-2.015939,-0.23669,16.64,3,RUN
1759224934.83084,-1.517475,5.96261,3.009661,-3.723296,-3.902489,-0.080362,16.66,3,RUN
1759224934.85086,-3.993977,18.599655,0.89184,-4.221691,-5.000378,-0.610479,16.68,3,RUN
1759224934.87081,-1.4244,30.595353,-3.051859,-3.896365,-0.967266,-1.704862,16.70,3,RUN
1759224934.89044,9.932794,24.719983,-5.809231,-3.765085,3.932621,-1.565513,16.72,3,RUN
1759224934.91032,12.877214,20.912005,2.371906,-3.557064,3.462901,-1.443324,16.74,3,RUN
1759224934.93083,8.695292,23.708881,1.325789,-3.509499,-2.731943,0.758857,16.76,3,RUN
1759224934.95082,-4.417302,18.954146,-1.298256,-3.224883,-2.568048,0.603839,16.78,3,RUN
1759224934.97081,-6.439505,13.43222,-4.21574,-2.507809,-1.092511,-0.046665,16.80,3,RUN
1759224934.99082,1.438167,10.767922,-3.039738,-1.728608,-1.484676,-0.653379,16.82,3,RUN
1759224935.01051,5.414337,7.426215,-4.507982,-0.67522,-1.748182,-0.911393,16.84,3,RUN
1759224935.03087,3.335123,1.207725,-5.386804,0.445158,-1.692035,-0.9108,16.86,3,RUN
1759224935.05084,0.479439,-3.413982,-7.307852,1.41956,-1.599659,-0.707741,16.88,3,RUN
1759224935.07084,-1.095048,-6.888118,-8.910919,2.381175,-1.013828,-0.549568,16.90,3,RUN
1759224935.09081,3.30729,-8.558523,-6.934356,2.174826,0.061539,0.041202,16.92,3,RUN
1759224935.11084,6.252757,-8.628703,9.27005,-0.870109,1.176391,0.457153,16.94,3,RUN
1759224935.13086,10.993575,5.952883,27.792641,-0.395529,0.071677,0.811725,16.96,3,RUN
1759224935.15084,9.54254,11.005098,-1.409586,2.718678,3.750753,-0.978293,16.98,3,RUN
1759224935.17085,8.548347,23.703195,-10.850522,-0.343311,2.686974,-0.608883,17.00,3,RUN
1759224935.19087,5.930886,24.751257,-16.394745,0.141317,1.203255,1.364891,17.02,3,RUN
1759224935.20997,-1.165078,9.63322,-16.936433,1.806802,2.551727,1.421357,17.04,3,RUN
1759224935.23083,-3.496432,2.558055,-9.75308,2.676485,1.999667,0.825392,17.06,3,RUN
1759224935.25092,-0.9086,6.651092,-4.201076,3.385951,-0.165087,0.916521,17.08,3,RUN
1759224935.27086,6.138434,24.339155,-6.04491,5.1405,-1.418273,1.682356,17.10,3,RUN
1759224935.29081,3.680337,32.904561,-7.265055,7.215853,1.138333,0.617014,17.12,3,RUN
1759224935.31040,-5.070171,21.146637,4.124761,4.756554,5.421751,-0.350141,17.14,3,RUN
1759224935.33083,-2.937536,13.422493,26.083181,1.123815,0.683048,0.532805,17.16,3,RUN
1759224935.35002,-3.40246,13.381792,5.962161,0.718792,-2.694437,1.00826,17.18,3,RUN
1759224935.37085,-6.126762,9.979332,0.972794,0.884081,0.71649,0.996939,17.20,3,RUN
1759224935.39081,-7.478887,5.102343,4.751293,0.98628,1.443713,-0.527955,17.22,3,RUN
1759224935.41046,-6.438008,6.018574,5.79711,0.71929,1.002076,-1.247357,17.24,3,RUN
1759224935.43084,-5.474043,5.232677,7.458088,-0.600632,1.806683,-0.916502,17.26,3,RUN
1759224935.45092,-5.4091,2.269105,11.286117,-1.924722,-0.529162,-0.54242,17.28,3,RUN
1759224935.47087,0.558597,3.670012,9.620202,-3.610236,-2.469001,-0.18257,17.30,3,RUN
1759224935.49081,-0.793827,10.850821,2.716521,-4.543289,-4.351356,-0.400988,17.32,3,RUN
1759224935.51048,-0.903661,23.576751,-2.35365,-4.574432,-2.592351,-1.360556,17.34,3,RUN
1759224935.53083,6.841731,32.183906,-5.122394,-3.88114,3.077046,-1.673829,17.36,3,RUN
1759224935.55082,14.143746,26.201694,-3.166631,-2.965347,6.141278,-1.902866,17.38,3,RUN
1759224935.57082,8.748712,18.446426,1.13141,-2.782078,4.420655,-1.214718,17.40,3,RUN
1759224935.59006,5.61545,16.678907,0.11552,-2.903026,-1.740275,0.251848,17.42,3,RUN
1759224935.61084,-7.955483,14.841207,-4.989965,-1.772986,-1.586329,-0.272255,17.44,3,RUN
1759224935.63083,-13.172299,12.088474,-1.000627,-1.956212,-1.438148,-1.06216,17.46,3,RUN
1759224935.65083,1.452831,9.337536,-2.174085,-1.272628,-2.418909,-1.102698,17.48,3,RUN
1759224935.67084,7.380426,3.898658,-5.382764,0.124877,-2.341329,-0.965609,17.50,3,RUN
1759224935.69085,6.248567,-3.387795,-5.99553,1.755734,-1.683429,-0.70694,17.52,3,RUN
1759224935.71009,2.778022,-8.287379,-11.09907,3.010041,-0.737184,-0.229582,17.54,3,RUN
1759224935.73083,4.134337,-12.617443,-9.225009,2.002266,1.148051,-0.030393,17.56,3,RUN
1759224935.75082,6.566697,-14.619893,20.201226,-1.296062,0.980235,-0.566229,17.58,3,RUN
1759224935.77084,12.611158,3.591751,24.71684,-0.718713,2.821305,0.398125,17.60,3,RUN
1759224935.79081,8.346337,10.689661,-2.770989,1.380496,5.330315,0.602492,17.62,3,RUN
1759224935.81084,3.464111,12.900407,-19.518729,-0.128419,1.932822,-0.301051,17.64,3,RUN
1759224935.83083,3.356521,44.24335,8.850017,1.020283,2.952508,-0.574594,17.66,3,RUN
1759224935.85083,4.545392,27.384729,-11.013627,-1.600971,3.842562,2.157061,17.68,3,RUN
1759224935.87083,-0.203806,1.955165,-4.227113,-0.566181,0.77798,1.929,17.70,3,RUN
1759224935.89081,0.022895,-4.569184,-6.675782,-0.152453,-0.767491,1.601034,17.72,3,RUN
1759224935.91083,0.678307,-1.695993,-8.965238,1.959693,-2.239397,1.649097,17.74,3,RUN
1759224935.93084,9.078214,31.74038,-16.178967,5.075488,-1.107196,2.627118,17.76,3,RUN
1759224935.95022,2.187702,39.268648,-8.198495,7.751274,-1.218197,1.540589,17.78,3,RUN
1759224935.97084,-5.332186,19.410242,2.03971,5.194083,4.982696,0.67184,17.80,3,RUN
1759224935.99081,-8.886379,14.186094,31.454273,1.644415,0.639387,0.406209,17.82,3,RUN
1759224936.01083,-4.528184,14.404864,10.899304,0.905252,-2.59702,0.380672,17.84,3,RUN
1759224936.03084,-2.835932,10.258256,2.318036,0.17779,0.110011,0.77271,17.86,3,RUN
1759224936.05084,-5.83452,5.31019,1.949329,0.529153,0.722444,0.176414,17.88,3,RUN
1759224936.07089,-4.766706,2.814534,1.005714,1.090837,0.755322,0.352518,17.90,3,RUN
1759224936.09081,-5.223101,1.19755,7.132177,0.363094,1.173859,0.384105,17.92,3,RUN
1759224936.11083,-8.620323,2.943072,13.009493,-1.706159,-0.115747,-0.525782,17.94,3,RUN
1759224936.13081,-3.758597,4.693533,8.042273,-2.614765,-1.480778,-0.588666,17.96,3,RUN
1759224936.15082,2.075025,5.975478,7.334338,-4.0004,-1.91671,0.081853,17.98,3,RUN
1759224936.17029,-0.168193,8.098836,3.861249,-5.003045,-3.06116,-0.063148,18.00,3,RUN
1759224936.19083,-5.560982,17.715297,-3.799149,-4.178809,-2.700512,-1.615123,18.02,3,RUN
1759224936.21018,-2.378041,29.025206,-6.278644,-3.416621,1.690687,-2.494239,18.04,3,RUN
1759224936.23083,7.93184,26.819398,-8.383746,-1.755169,6.625036,-2.608464,18.06,3,RUN
1759224936.25085,10.626814,18.60175,4.618714,-1.674969,4.208232,-2.576185,18.08,3,RUN
1759224936.27085,9.062353,20.697424,7.795072,-2.678026,0.356844,-1.236385,18.10,3,RUN
1759224936.29031,1.577629,15.135245,-0.721253,-1.916265,-2.589618,0.020626,18.12,3,RUN
1759224936.31063,-7.400926,9.990555,-3.37747,-1.258632,-2.429903,-0.354475,18.14,3,RUN
1759224936.33083,-4.813094,9.088539,-1.419612,-0.93267,-3.030069,-0.776257,18.16,3,RUN
1759224936.35083,3.170522,6.924031,-4.178181,0.291102,-3.087664,-0.944147,18.18,3,RUN
1759224936.37083,5.41733,1.916708,-4.972757,1.719092,-2.534253,-0.730057,18.20,3,RUN
1759224936.39081,3.53025,-3.15885,-7.541137,3.199534,-1.340959,-0.147348,18.22,3,RUN
1759224936.41083,5.984157,-8.455422,-6.936601,3.212039,0.019334,0.410254,18.24,3,RUN
1759224936.43081,6.001216,-14.333636,12.458677,1.600507,-1.013946,-0.831603,18.26,3,RUN
1759224936.45012,9.881319,0.523881,23.178715,-0.429931,2.88502,-0.118506,18.28,3,RUN
1759224936.47092,7.394342,10.35986,11.757625,-1.178362,0.632557,0.602035,18.30,3,RUN
1759224936.49043,4.619014,17.818098,-15.40998,-1.175345,0.680912,0.278768,18.32,3,RUN
1759224936.51084,-0.114772,44.491001,-9.341576,0.811781,3.902708,-0.578941,18.34,3,RUN
1759224936.53033,0.419434,16.107441,-5.390096,-0.390262,1.635996,1.01751,18.36,3,RUN
1759224936.55036,3.806032,-2.812289,-1.881992,-0.568968,0.648367,0.99706,18.38,3,RUN
1759224936.57019,4.384531,-4.220678,-10.671555,-0.818323,2.259883,1.430675,18.40,3,RUN
1759224936.59080,5.201852,3.376573,-11.126005,0.717861,1.770697,2.155351,18.42,3,RUN
1759224936.61083,9.793632,27.007044,-12.097901,3.871567,-1.02305,2.489184,18.44,3,RUN
1759224936.62987,3.610755,31.613488,-5.208885,6.23449,-3.671844,2.08855,18.46,3,RUN
1759224936.65083,-2.55581,19.258659,-2.055572,7.999646,-2.847114,1.496745,18.48,3,RUN
1759224936.67083,-14.138509,19.232323,7.893833,2.958677,5.828162,0.797146,18.50,3,RUN
1759224936.69080,-10.308834,17.068264,25.654769,0.952376,-2.429711,0.457631,18.52,3,RUN
1759224936.71030,-6.474669,13.57228,6.52809,0.327257,-2.594578,0.170476,18.54,3,RUN
1759224936.73083,-4.982483,7.997681,0.944213,-0.01883,0.329496,-0.665305,18.56,3,RUN
1759224936.75091,-2.850596,4.824466,2.242918,0.54183,0.505635,-1.139023,18.58,3,RUN
1759224936.77083,-0.290896,3.79885,3.362058,0.843281,0.306439,-0.61492,18.60,3,RUN
1759224936.79043,-2.169745,2.317587,10.07076,-0.693681,0.252529,-0.366457,18.62,3,RUN
1759224936.81056,-1.857452,4.616619,13.554922,-2.515961,-0.657038,-0.235145,18.64,3,RUN
1759224936.83083,2.885163,6.298247,6.356755,-3.1978,-1.548239,0.349046,18.66,3,RUN
1759224936.85087,0.714071,7.891438,3.926341,-4.578728,-2.907448,0.65826,18.68,3,RUN
1759224936.87054,-4.474015,18.018462,1.252467,-5.00185,-3.633761,-0.203644,18.70,3,RUN
1759224936.89043,-4.478953,26.790219,-3.787328,-4.465226,0.531959,-1.373055,18.72,3,RUN
1759224936.91083,4.89719,23.614161,-5.924153,-3.655972,5.205135,-1.832704,18.74,3,RUN
1759224936.93084,10.465804,21.465514,-1.914164,-2.128844,4.533214,-2.005726,18.76,3,RUN
1759224936.95089,8.146421,18.340632,5.478233,-2.452253,1.112242,-1.376929,18.78,3,RUN
1759224936.97083,1.04447,15.05878,1.629254,-2.392824,-2.152536,-0.238513,18.80,3,RUN
1759224936.99081,-8.726267,11.724555,-3.532495,-1.644656,-1.331371,-0.42159,18.82,3,RUN
1759224937.01078,-6.571485,9.723152,-0.853683,-1.330149,-2.177974,-0.960911,18.84,3,RUN
1759224937.03082,4.555567,6.237793,-4.332906,-0.304641,-2.914841,-1.087038,18.86,3,RUN
1759224937.05085,4.126706,1.678635,-5.122394,1.108438,-2.597984,-1.145773,18.88,3,RUN
1759224937.07081,0.645686,-3.380912,-11.296292,2.981644,-1.721832,-1.255975,18.90,3,RUN
1759224937.09081,4.57517,-9.231593,-11.128249,4.034007,0.13575,-0.746937,18.92,3,RUN
1759224937.11081,6.458359,-14.342016,14.640693,2.201188,1.170538,-1.386331,18.94,3,RUN
1759224937.13081,18.584242,0.14051,20.999842,-0.252848,1.648532,-0.676345,18.96,3,RUN
1759224937.15082,7.977779,8.684368,9.085846,-0.937691,2.238369,0.788964,18.98,3,RUN
1759224937.17082,-0.634613,10.934169,-20.838982,-0.377198,2.436969,0.728057,19.00,3,RUN
1759224937.19080,-1.7756,13.161675,-15.056985,-0.191739,1.083651,-0.491455,19.02,3,RUN
1759224937.21040,2.136975,47.810412,0.403872,0.33885,6.879156,0.017077,19.04,3,RUN
1759224937.23080,7.946655,9.785102,6.183175,-2.6086,1.04926,0.217137,19.06,3,RUN
1759224937.25082,7.661445,-3.784036,-14.266748,-1.739708,1.254739,1.210637,19.08,3,RUN
1759224937.27089,2.000056,-3.613449,-8.326884,-0.767208,-0.611816,2.461444,19.10,3,RUN
1759224937.29080,-0.588674,7.20101,-10.853066,2.706915,-4.470245,3.146076,19.12,3,RUN
1759224937.31082,-3.553145,40.946684,-16.024541,4.80771,-4.151156,2.708251,19.14,3,RUN
1759224937.33081,-5.826888,33.307236,-5.618443,8.499755,-0.715323,0.452618,19.16,3,RUN
1759224937.35081,-6.35047,17.242891,40.453329,4.267704,5.802643,0.636919,19.18,3,RUN
1759224937.37081,-1.471536,14.215722,11.912949,1.472562,-2.357144,-0.096154,19.20,3,RUN
1759224937.39042,0.929549,14.523227,0.651522,1.62885,-0.902157,-0.016395,19.22,3,RUN
1759224937.41004,0.782305,11.716924,2.639308,1.397561,1.632775,0.866828,19.24,3,RUN
1759224937.43083,-6.124218,4.499303,5.197812,0.466251,0.60773,0.727531,19.26,3,RUN
1759224937.45085,-5.795464,1.357363,2.162712,0.560475,0.133655,0.563928,19.28,3,RUN
1759224937.47084,-6.648099,-0.862661,7.396886,0.245861,1.099135,0.98444,19.30,3,RUN
1759224937.49027,-7.78744,0.733524,9.31509,-1.236102,1.093964,0.62626,19.32,3,RUN
1759224937.51082,-4.642207,6.429778,12.102689,-2.51323,-1.262903,-0.274298,19.34,3,RUN
1759224937.53083,-1.661576,10.250625,4.762067,-4.067234,-3.269985,-0.084873,19.36,3,RUN
1759224937.55084,-4.539855,20.25734,-1.99003,-4.510205,-4.290942,-0.538098,19.38,3,RUN
1759224937.57084,-1.111957,25.696218,-6.644209,-4.311712,-1.748975,-1.395719,19.40,3,RUN
1759224937.59080,8.204331,25.922171,-8.478018,-3.239653,3.572535,-1.954183,19.42,3,RUN
1759224937.61083,10.738294,22.186468,-0.200514,-1.073519,6.186392,-1.969884,19.44,3,RUN
1759224937.63083,5.800851,19.752463,9.039757,-1.784702,3.49489,-1.994714,19.46,3,RUN
1759224937.65082,1.805677,14.306851,0.153827,-2.785474,-1.894684,-0.895402,19.48,3,RUN
1759224937.67088,-6.525546,10.342353,-6.380547,-1.438089,-2.112454,-0.597328,19.50,3,RUN
1759224937.69080,-2.135179,9.348909,-1.201889,-1.04919,-1.354918,-0.531276,19.52,3,RUN
1759224937.71082,3.161094,7.433697,-3.086874,-0.577341,-2.696965,-0.847687,19.54,3,RUN
1759224937.73080,5.534347,1.39133,-5.101894,0.47689,-2.73167,-0.744756,19.56,3,RUN
1759224937.75083,5.362264,-3.417274,-7.732374,1.725716,-1.968467,-0.38691,19.58,3,RUN
1759224937.77081,6.137686,-8.36564,-7.800159,2.64387,-1.323438,0.484675,19.60,3,RUN
1759224937.79086,4.585944,-13.588441,5.161749,1.801649,-0.436391,0.593397,19.62,3,RUN
1759224937.81051,7.536648,-4.479402,18.760366,0.137847,1.330293,0.139783,19.64,3,RUN
1759224937.83082,5.423615,8.827272,16.381876,-0.740367,2.09551,0.698773,19.66,3,RUN
1759224937.85084,-1.20982,15.027656,-6.016479,-0.129916,1.855875,0.379638,19.68,3,RUN
1759224937.87084,0.489914,21.707778,-16.628928,-0.459571,1.862899,-0.897647,19.70,3,RUN
1759224937.89080,3.10094,40.257753,-4.140173,0.066212,2.821424,-0.546744,19.72,3,RUN
1759224937.91083,5.80968,6.039972,-0.125546,0.031319,1.323254,1.012848,19.74,3,RUN
1759224937.92986,6.520159,-3.178003,-11.515511,0.044881,2.347296,1.21467,19.76,3,RUN
1759224937.95083,6.754492,-0.661099,-5.470302,-0.060328,0.963597,1.908201,19.78,3,RUN
1759224937.97084,11.836035,24.676588,-8.509891,2.427852,-3.094483,2.437834,19.80,3,RUN
1759224937.99007,2.244115,35.95642,-7.952341,4.349229,-3.563905,3.697633,19.82,3,RUN
1759224938.01076,-10.696844,22.840235,-4.134038,7.492412,-2.452391,1.825493,19.84,3,RUN
1759224938.03082,-16.652421,18.387319,23.32132,4.548617,4.430647,0.179293,19.86,3,RUN
1759224938.05083,-4.482544,16.290597,17.367389,1.093912,-0.493032,0.219816,19.88,3,RUN
1759224938.07084,-2.311751,11.59886,6.830957,0.780921,-2.955647,0.179711,19.90,3,RUN
1759224938.09052,-1.217601,8.237849,2.494758,0.211937,-0.488092,0.063947,19.92,3,RUN
1759224938.11082,-1.939154,2.82845,1.240795,0.524241,-0.082033,-0.021651,19.94,3,RUN
1759224938.13082,-2.497901,1.161936,1.811363,0.78272,0.467283,0.011945,19.96,3,RUN
1759224938.15085,-4.843919,1.759589,6.341642,1.04078,0.200549,0.3088,19.98,3,RUN
1759224938.17040,-8.000524,1.633294,12.732813,-0.655099,-0.088818,0.185383,20.00,3,RUN
1759224938.19080,-1.043273,4.092888,9.399486,-2.204855,-1.382512,-0.365024,20.02,3,RUN
1759224938.21082,3.00203,6.209512,8.410232,-3.296293,-1.887975,0.100798,20.04,3,RUN
1759224938.23082,0.232537,9.310003,1.011999,-4.622073,-2.294593,0.519381,20.06,3,RUN
1759224938.24984,-6.150854,25.442882,-2.934244,-4.857428,-4.334605,-0.362306,20.08,3,RUN
1759224938.27086,-3.544616,36.710593,-8.117092,-4.221949,-0.740286,-1.944136,20.10,3,RUN
1759224938.29080,9.128043,23.842059,-7.741801,-2.979169,5.726202,-2.366561,20.12,3,RUN
1759224938.31083,10.689661,19.317317,10.450241,-2.185246,4.376137,-2.019967,20.14,3,RUN
1759224938.33082,7.852084,20.902877,3.627066,-3.305834,0.038736,-1.245347,20.16,3,RUN
1759224938.35084,-2.52708,13.540707,-4.92996,-2.368538,-1.416479,-0.247216,20.18,3,RUN
1759224938.37082,-10.17431,9.625289,-4.666149,-1.062666,-2.259239,-0.594764,20.20,3,RUN
1759224938.39080,-0.779013,9.622596,-1.414674,-1.25093,-2.027254,-1.221554,20.22,3,RUN
1759224938.41082,5.266196,5.859809,-5.307047,-0.343267,-2.556991,-1.241994,20.24,3,RUN
1759224938.43079,5.319617,-0.537049,-5.526715,0.853047,-2.268772,-0.932282,20.26,3,RUN
1759224938.45083,4.545392,-5.453393,-10.962301,2.510003,-0.946858,-0.320521,20.28,3,RUN
1759224938.47083,5.965004,-9.899575,-6.779631,3.373757,0.464093,0.413121,20.30,3,RUN
1759224938.49083,4.412663,-13.286772,6.397157,2.02221,1.362257,-0.343722,20.32,3,RUN
1759224938.51064,7.043143,0.227898,21.750574,-0.410547,2.307448,-0.470778,20.34,3,RUN
1759224938.53083,5.893327,13.801226,15.647754,-1.148329,1.823428,0.223658,20.36,3,RUN
1759224938.55079,-2.792836,21.654656,-17.052252,0.547064,3.801751,-0.182792,20.38,3,RUN
1759224938.56997,-0.773477,16.670377,-13.828011,-0.197819,1.678358,-1.736604,20.40,3,RUN
1759224938.59081,5.187337,25.658061,-5.803994,-0.053185,2.58142,0.097231,20.42,3,RUN
1759224938.61082,2.21748,7.93633,1.848324,-0.034482,2.273463,1.237032,20.44,3,RUN
1759224938.63082,3.193566,-1.469142,-8.133402,0.17251,2.455097,0.838744,20.46,3,RUN
1759224938.65083,7.074417,0.01242,-3.049315,0.512549,0.425683,1.671077,20.48,3,RUN
1759224938.67083,17.432182,30.585477,-9.481039,2.491639,-3.763411,2.762977,20.50,3,RUN
1759224938.69032,3.712659,36.575321,-9.503335,5.311275,-4.943896,3.788134,20.52,3,RUN
1759224938.71078,-14.4517,22.403293,-2.269554,8.300433,-0.709319,1.915089,20.54,3,RUN
1759224938.73082,-19.672257,18.10211,30.227694,2.501838,4.995911,-0.309549,20.56,3,RUN
1759224938.75087,-5.807735,17.865084,13.829208,1.725317,-2.330487,0.405988,20.58,3,RUN
1759224938.77084,-2.338387,10.934618,5.988497,0.578733,-2.114063,0.427686,20.60,3,RUN
1759224938.79041,-3.717597,5.501127,2.537255,0.011966,0.501844,-0.03096,20.62,3,RUN
1759224938.81082,-1.322796,1.938705,-0.81328,0.694174,0.742205,-0.087947,20.64,3,RUN
1759224938.83082,-3.764732,-1.188422,5.92116,1.475537,0.154767,0.201495,20.66,3,RUN
1759224938.85082,-9.161113,1.472883,17.404948,-0.545255,0.337954,-0.141322,20.68,3,RUN
1759224938.87082,-2.206257,5.053262,7.112575,-2.02522,-1.077051,-0.6121,20.70,3,RUN
1759224938.89043,0.155773,6.885874,5.333234,-3.189909,-1.724668,-0.352682,20.72,3,RUN
1759224938.91084,-2.433407,16.42138,3.125181,-4.554887,-4.847805,0.323474,20.74,3,RUN
1759224938.93020,-4.381389,26.377967,-2.721908,-4.527669,-3.824778,-0.605321,20.76,3,RUN
1759224938.95082,5.77676,30.437037,-8.156596,-4.189301,1.691284,-1.109478,20.78,3,RUN
1759224938.96983,10.133459,25.378687,-4.880879,-2.875255,5.729908,-1.549752,20.80,3,RUN
1759224938.99079,8.723423,23.517046,2.799869,-2.127012,4.744275,-2.052076,20.82,3,RUN
1759224939.01082,3.588908,17.167324,-1.971176,-2.006326,1.975509,-0.889654,20.84,3,RUN
1759224939.03083,-7.823952,14.118757,-3.455432,-1.514017,-2.525685,-0.822294,20.86,3,RUN
1759224939.05082,-11.635371,13.892954,-0.78021,-1.91841,-2.825775,-2.128386,20.88,3,RUN
1759224939.07082,4.277989,6.837541,-4.063708,-1.383699,-3.613233,-1.513085,20.90,3,RUN
1759224939.09082,9.081057,-0.785747,-5.499182,-0.324151,-3.217575,-0.718019,20.92,3,RUN
1759224939.11076,4.842722,-8.193407,-8.381501,1.000123,-2.437264,-0.024242,20.94,3,RUN
1759224939.13079,2.877531,-13.541006,-10.013599,2.745167,-0.160448,0.181241,20.96,3,RUN
1759224939.15083,3.838504,-16.66918,-1.091606,2.438103,0.614634,-0.221533,20.98,3,RUN
1759224939.17082,6.439355,-9.849895,10.065074,0.919984,0.534071,-0.181965,21.00,3,RUN
1759224939.19045,0.692672,4.86831,18.547132,-0.417566,0.546819,0.355476,21.02,3,RUN
1759224939.21079,1.856105,15.332168,6.388478,-0.587175,0.850238,0.961991,21.04,3,RUN
1759224939.23082,0.075118,30.736462,-4.215591,0.008205,1.314013,0.561926,21.06,3,RUN
1759224939.25091,2.825757,7.516746,-23.711575,-1.496043,3.781519,-0.491581,21.08,3,RUN
1759224939.27060,16.765996,59.070791,29.77504,1.901915,0.174889,-1.825773,21.10,3,RUN
1759224939.29080,12.179603,8.540866,-10.001927,-0.907065,5.289005,1.786135,21.12,3,RUN
1759224939.31082,4.904372,-5.173421,-10.948684,-0.158264,2.422185,2.439606,21.14,3,RUN
1759224939.33082,2.767099,-3.491943,-7.546524,-0.024254,-0.280816,2.686396,21.16,3,RUN
1759224939.35090,4.287417,17.816003,-9.693225,2.3239,-2.786864,3.233194,21.18,3,RUN
1759224939.37061,-2.670433,51.442565,-13.872603,5.022312,-5.259226,3.669814,21.20,3,RUN
1759224939.39042,-9.822063,28.969092,-6.038177,9.297265,-2.816184,0.697464,21.22,3,RUN
1759224939.41082,-9.561843,19.465159,37.035905,3.600167,9.61938,0.327,21.24,3,RUN
1759224939.43082,-1.565509,13.569736,26.503812,1.027272,-2.21404,0.007653,21.26,3,RUN
1759224939.45086,-1.961599,9.962722,2.173785,-0.040169,-3.800467,-0.195824,21.28,3,RUN
1759224939.47082,-3.447501,6.723966,-0.935534,-0.341263,0.822134,-0.236572,21.30,3,RUN
1759224939.49079,-4.906318,0.915632,-2.1473,0.42484,1.702964,-0.703913,21.32,3,RUN
1759224939.51082,-2.173037,-0.661847,2.892345,1.843932,1.115172,-0.167402,21.34,3,RUN
1759224939.53082,-3.434482,-1.142333,7.319074,1.239419,-0.090194,0.86566,21.36,3,RUN
1759224939.55082,-5.932233,-1.89531,14.157064,-1.125623,0.620344,0.889614,21.38,3,RUN
1759224939.57084,-1.281347,2.123507,8.997111,-2.564847,-1.148022,0.037255,21.40,3,RUN
1759224939.59072,1.380706,4.706103,5.918915,-3.615129,-1.966044,-0.034567,21.42,3,RUN
1759224939.61082,2.708291,7.297527,4.106056,-4.390622,-0.610855,0.265031,21.44,3,RUN
1759224939.63083,-0.803853,11.131541,-0.152032,-4.843037,-0.776983,-0.744296,21.46,3,RUN
1759224939.65082,-6.134394,28.712763,-0.787243,-3.703314,-3.54763,-2.168027,21.48,3,RUN
1759224939.67070,3.038092,47.165174,-10.667216,-2.986045,0.003194,-2.677608,21.50,3,RUN
1759224939.69042,11.119271,23.194427,2.199972,-2.623495,6.746241,-2.51391,21.52,3,RUN
1759224939.71081,9.597307,20.10486,14.560637,-3.472586,1.959798,-2.267328,21.54,3,RUN
1759224939.73080,3.499724,21.080347,-2.060211,-2.634205,-0.787346,-0.403141,21.56,3,RUN
1759224939.75081,-5.752518,13.434464,-3.289035,-1.544824,-1.231984,-0.836962,21.58,3,RUN
1759224939.77081,-10.808474,8.451681,-0.116119,-1.254414,-1.745714,-1.697409,21.60,3,RUN
1759224939.79081,1.567454,7.577349,-1.211167,-0.469166,-2.364328,-1.322549,21.62,3,RUN
1759224939.81081,7.48607,4.865916,-4.609586,0.580382,-1.668162,-0.560176,21.64,3,RUN
1759224939.83081,5.938219,-0.507271,-3.999364,1.485449,-1.183565,0.024266,21.66,3,RUN
1759224939.85081,3.941006,-4.938939,-6.614581,2.819772,0.248482,0.448151,21.68,3,RUN
1759224939.87081,3.826533,-10.310629,-5.669769,3.001151,-0.453576,0.534615,21.70,3,RUN
1759224939.89080,4.18686,-14.532954,-3.179649,1.931768,-0.220914,0.01549,21.72,3,RUN
1759224939.91080,3.325696,-8.230667,4.531326,0.361667,0.511161,-0.251101,21.74,3,RUN
1759224939.93088,4.894646,7.435193,24.181137,-1.591534,1.619032,0.28372,21.76,3,RUN
1759224939.95088,5.906944,18.358738,5.461773,1.226337,4.356815,0.832917,21.78,3,RUN
1759224939.97083,1.277456,12.21402,-19.65475,0.909002,3.223752,0.498762,21.80,3,RUN
1759224939.99017,5.483021,26.469845,24.401554,-0.969529,1.208349,-1.694941,21.82,3,RUN
1759224940.01052,6.822427,30.122199,-28.797308,-1.665965,1.889157,1.774755,21.84,3,RUN
1759224940.03083,2.455403,1.301249,-13.540856,0.46222,0.931909,2.059978,21.86,3,RUN
1759224940.05084,2.246958,-7.195773,-10.629058,2.08253,0.524567,1.633729,21.88,3,RUN
1759224940.07083,3.238756,-3.336919,-4.13344,3.57325,-2.53397,1.184325,21.90,3,RUN
1759224940.09081,13.912407,35.256116,-6.590639,4.753755,-4.021992,3.044724,21.92,3,RUN
1759224940.11085,2.433257,46.731973,-4.843919,5.331388,-0.14772,2.230928,21.94,3,RUN
1759224940.13083,-10.54586,15.936255,14.342166,3.26007,0.697514,0.710036,21.96,3,RUN
1759224940.15083,-4.538808,18.359935,5.569063,3.120073,-1.522078,0.728135,21.98,3,RUN
1759224940.17083,-0.772729,19.613749,11.291055,1.859902,-1.444524,1.105296,22.00,3,RUN
1759224940.19042,-3.161992,13.757083,9.095422,1.380123,-0.819622,0.245774,22.02,3,RUN
1759224940.21082,-2.988712,7.750031,4.899584,1.077925,0.928936,-0.469248,22.04,3,RUN
1759224940.23083,-1.114501,2.856432,-0.354641,1.462689,1.999387,-0.334839,22.06,3,RUN
1759224940.25084,-0.879271,-0.99509,5.820753,1.282903,-0.254482,0.440287,22.08,3,RUN
1759224940.27084,-4.75683,-2.226757,10.83077,-0.025184,-1.464953,0.999506,22.10,3,RUN
1759224940.29080,-7.065139,0.725293,5.964256,-0.970836,-1.066979,0.417392,22.12,3,RUN
1759224940.31082,-4.231602,2.102408,4.522647,-1.21396,-0.703658,-0.328765,22.14,3,RUN
1759224940.33082,-0.316932,3.0143,7.01546,-1.934477,-0.669455,-0.341455,22.16,3,RUN
1759224940.35085,1.595735,3.582324,4.640262,-2.811207,-1.14473,-0.074399,22.18,3,RUN
1759224940.37083,-2.144008,5.781548,0.089783,-3.80377,-1.490635,-0.101107,22.20,3,RUN
1759224940.39080,-8.129362,20.30717,0.345214,-4.460483,-4.313615,-0.853568,22.22,3,RUN
1759224940.41082,-5.043685,38.828564,-9.5795,-3.277551,0.389826,-2.314382,22.24,3,RUN
1759224940.43083,11.53242,38.22343,-2.321328,-3.083267,2.839856,-2.384829,22.26,3,RUN
1759224940.45090,15.643265,28.271781,7.313388,-3.828318,2.101216,-2.601251,22.28,3,RUN
1759224940.47055,13.864223,22.526146,-1.994669,-2.847579,2.065216,-1.03662,22.30,3,RUN
1759224940.49079,4.534917,15.207819,-1.973421,-2.126837,0.275681,-0.08632,22.32,3,RUN
1759224940.51082,-7.493253,13.359645,-0.452504,-2.077027,-2.099674,-1.448571,22.34,3,RUN
1759224940.53081,-7.092673,13.131149,-0.765845,-1.984557,-2.020875,-1.13015,22.36,3,RUN
1759224940.55084,1.805827,7.619996,-5.195268,-0.858325,-1.263966,-0.916296,22.38,3,RUN
1759224940.57079,6.308572,1.747318,-4.42658,0.010951,-1.262049,-0.207147,22.40,3,RUN
1759224940.59080,5.583727,-3.99712,-6.154146,1.368967,-0.585242,0.313881,22.42,3,RUN
1759224940.60989,4.928614,-8.910021,-6.312911,2.54163,-0.092806,0.708517,22.44,3,RUN
1759224940.63059,2.712331,-14.684537,-2.271648,1.97352,-1.635526,0.238333,22.46,3,RUN
1759224940.64987,1.965789,-14.726585,-4.160524,0.900618,-0.91613,0.238612,22.48,3,RUN
1759224940.67079,0.180613,-3.952677,6.808212,-0.794034,0.6307,-0.236359,22.50,3,RUN
1759224940.69082,0.451756,12.512547,26.729466,-0.662717,3.981312,0.5157,22.52,3,RUN
1759224940.71069,5.163844,16.423176,-1.676989,2.088169,2.414989,0.238094,22.54,3,RUN
1759224940.73082,1.568501,17.816452,4.278588,-0.558399,2.474448,0.119585,22.56,3,RUN
1759224940.75085,-1.782333,5.048473,-22.622213,-0.840578,0.278436,-1.939201,22.58,3,RUN
1759224940.79080,8.79929,5.62817,-14.095413,0.255418,2.491541,1.685921,22.62,3,RUN
1759224940.80995,2.784157,-11.534366,-7.558195,2.778669,1.373758,-0.206495,22.64,3,RUN
1759224940.83082,3.210026,-12.604424,-2.4774,2.869015,0.494876,-1.342133,22.66,3,RUN
1759224940.85060,11.547833,6.45791,2.015469,1.143808,-2.054694,1.119914,22.68,3,RUN
1759224940.89080,-11.942128,40.145973,-8.062923,7.416395,-4.169859,2.957463,22.72,3,RUN
1759224940.91083,-18.158822,23.160759,-2.485331,5.226251,6.149285,0.998407,22.74,3,RUN
1759224940.93089,-17.095947,15.969175,31.786768,1.712823,1.014973,0.039822,22.76,3,RUN
1759224940.95080,-4.664653,14.546421,17.876905,1.718141,-5.388739,-0.583459,22.78,3,RUN
1759224940.97081,-0.172383,10.068965,3.096601,0.027688,0.185706,-0.489543,22.80,3,RUN
1759224940.99080,-1.854908,3.945644,0.547823,0.138123,3.166456,-0.99747,22.82,3,RUN
1759224941.01084,2.991854,-0.175824,-3.777751,2.053063,1.84096,0.112411,22.84,3,RUN
1759224941.03082,0.369755,-5.414188,13.728801,0.422682,-0.933477,0.884858,22.86,3,RUN
1759224941.05083,-6.045359,-2.514361,7.267001,-1.109337,-0.832172,0.63811,22.88,3,RUN
1759224941.07081,-4.097377,1.856554,4.280084,-0.883329,-1.234329,0.128312,22.90,3,RUN
1759224941.09079,-4.37286,3.966294,6.915352,-1.628777,-1.05797,-0.303179,22.92,3,RUN
1759224941.11080,0.952443,5.809231,5.224896,-2.568593,-0.708412,0.2251,22.94,3,RUN
1759224941.13082,0.527173,5.54123,2.070835,-3.760735,-0.416411,0.547829,22.96,3,RUN
1759224941.15032,-7.486968,15.582063,-0.538995,-4.561043,-4.417797,-0.368658,22.98,3,RUN
1759224941.17010,-9.79408,36.895096,-8.280047,-3.794429,-1.49235,-2.298699,23.00,3,RUN
1759224941.19083,9.722853,42.341756,-8.520814,-2.461214,1.752356,-1.837732,23.02,3,RUN
1759224941.21083,14.198813,30.931739,11.646893,-4.274261,1.448577,-2.747671,23.04,3,RUN
1759224941.23083,13.633931,26.903644,0.579546,-3.593472,2.308846,-1.009465,23.06,3,RUN
1759224941.25082,6.282236,13.453169,-2.625541,-2.436589,-0.118659,0.304424,23.08,3,RUN
1759224941.27086,-5.575048,10.484059,-2.250699,-1.66869,-2.736595,-0.436215,23.10,3,RUN
1759224941.29081,-13.672537,9.862016,-3.979014,-1.761043,-1.156657,-0.842841,23.12,3,RUN
1759224941.31082,-0.851288,7.734768,-2.547131,-1.278661,-2.043865,-0.918254,23.14,3,RUN
1759224941.33082,4.867412,3.738546,-6.78816,-0.041415,-1.637857,-0.605097,23.16,3,RUN
1759224941.35084,6.520608,-3.277363,-7.917924,1.432178,-0.284107,-0.16946,23.18,3,RUN
1759224941.36985,6.282236,-9.971102,-8.219145,2.458,-0.393512,0.106955,23.20,3,RUN
1759224941.39080,3.785532,-16.203508,-5.758654,1.719288,-1.412739,-0.208304,23.22,3,RUN
1759224941.41082,4.424634,-13.864822,-1.69689,0.967242,0.130773,-0.182687,23.24,3,RUN
1759224941.43082,-0.660051,-0.361973,12.282554,-0.695281,2.535707,-0.065434,23.26,3,RUN
1759224941.45084,1.485752,16.238224,22.73908,-0.095448,2.579787,0.685036,23.28,3,RUN
1759224941.47082,2.976591,22.183326,3.1587,-0.093455,0.866868,-0.096731,23.30,3,RUN
1759224941.49080,-0.130484,9.53401,-15.003414,-1.083877,2.467393,0.247388,23.32,3,RUN
1759224941.51081,-0.708684,-6.634482,-21.316625,-0.128065,1.530171,-1.325481,23.34,3,RUN
1759224941.53083,11.577461,49.187377,29.302634,-0.369447,5.494771,0.853109,23.36,3,RUN
1759224941.55082,15.635184,28.040142,-8.115296,-0.362505,1.740217,2.353477,23.38,3,RUN
1759224941.57082,3.58831,-2.196979,-8.424447,0.817042,1.323289,1.523589,23.40,3,RUN
1759224941.59043,4.289362,-5.017648,-4.871452,0.62872,0.190927,2.290048,23.42,3,RUN
1759224941.61082,12.511499,19.209129,-8.189367,2.123826,-2.910867,4.218053,23.44,3,RUN
1759224941.63081,5.379771,52.678272,-15.236849,6.953889,-5.032363,3.702789,23.46,3,RUN
1759224941.65083,-12.725182,25.203462,-8.715493,9.367832,1.374907,0.807002,23.48,3,RUN
1759224941.67082,-22.871808,19.557336,29.538912,2.205003,5.944039,-0.60675,23.50,3,RUN
1759224941.69079,-2.769343,18.731935,24.545206,1.263127,-2.794947,-0.991113,23.52,3,RUN
1759224941.71082,-0.12375,13.141623,2.436399,1.152802,-0.17888,-0.514247,23.54,3,RUN
1759224941.73082,-0.827496,6.831106,3.615544,1.269158,0.830547,0.15139,23.56,3,RUN
1759224941.75084,-3.544466,2.728492,2.87379,1.323835,-0.240356,0.570639,23.58,3,RUN
1759224941.77084,-4.243722,-1.007809,6.410625,0.742874,-0.755537,0.503972,23.60,3,RUN
1759224941.79042,-6.962039,0.335039,8.783727,-0.542009,-0.825478,-0.27203,23.62,3,RUN
1759224941.81083,-5.839607,3.016993,7.949049,-1.351981,-0.528683,-0.90783,23.64,3,RUN
1759224941.83083,1.516727,3.296367,5.828834,-1.90357,-0.362777,-0.576137,23.66,3,RUN
1759224941.85083,2.826654,4.292654,7.677157,-3.092386,-0.257465,-0.027174,23.68,3,RUN
1759224941.87082,0.415843,6.369175,4.850653,-4.200257,-1.028817,0.176616,23.70,3,RUN
1759224941.89043,-3.766528,13.290513,1.357961,-4.523497,-3.30483,-0.433721,23.72,3,RUN
1759224941.90985,-6.874202,27.860427,-2.326117,-4.011113,-1.923068,-1.211378,23.74,3,RUN
1759224941.92998,-1.726968,36.892253,-9.396493,-2.916496,5.404431,-1.867969,23.76,3,RUN
1759224941.95082,7.696461,28.019342,-6.195595,-1.354439,6.916272,-2.617145,23.78,3,RUN
1759224941.97083,3.821744,22.888269,14.033164,-2.37139,0.228542,-2.883042,23.80,3,RUN
1759224941.99080,2.480991,19.03944,2.388366,-2.389709,-2.935932,-1.268085,23.82,3,RUN
1759224942.00987,-8.114847,14.909891,-5.657349,-1.610481,-2.566452,-1.34231,23.84,3,RUN
1759224942.03026,-5.067627,11.829301,-0.887351,-1.546168,-3.105628,-1.201018,23.86,3,RUN
1759224942.05082,2.515408,6.545897,-3.528455,-0.467851,-3.069615,-1.25855,23.88,3,RUN
1759224942.07083,6.476166,1.55683,-6.003012,0.900049,-1.954255,-0.78704,23.90,3,RUN
1759224942.09080,8.669255,-4.743811,-6.464644,1.960098,-0.466078,0.216472,23.92,3,RUN
1759224942.10989,9.509619,-10.162638,-6.853253,2.527,0.2292,1.249426,23.94,3,RUN
1759224942.13083,8.227524,-14.495993,-3.377021,1.899447,-0.535329,0.887029,23.96,3,RUN
1759224942.15081,1.761833,-11.756578,2.227056,1.111719,0.183617,0.154346,23.98,3,RUN
1759224942.17080,-3.639486,1.892916,14.709676,-1.21647,1.598329,-0.290699,24.00,3,RUN
1759224942.19081,0.32636,20.133141,18.542194,-0.176731,1.447832,0.54111,24.02,3,RUN
1759224942.20990,-0.316484,26.878804,2.032827,-0.147418,1.920474,-0.276444,24.04,3,RUN
1759224942.23082,-1.225682,-1.403152,-23.965809,-1.248456,2.244673,-0.662355,24.06,3,RUN
1759224942.25081,6.599767,51.099147,36.324977,-0.828118,1.179071,-1.788944,24.08,3,RUN
1759224942.27026,12.271032,31.644014,-26.503064,-0.35051,2.675166,1.000971,24.10,3,RUN
1759224942.29080,6.901137,-4.604499,-10.930428,1.127688,1.868531,1.236936,24.12,3,RUN
1759224942.30992,4.643255,-6.674286,-7.507767,1.393302,2.440582,0.955639,24.14,3,RUN
1759224942.33081,15.83914,15.007754,-4.140772,1.473205,0.112895,1.700719,24.16,3,RUN
1759224942.35081,13.889961,48.242116,-9.691728,2.308918,-3.249352,5.761454,24.18,3,RUN
1759224942.37081,2.076222,47.054442,-9.021352,6.982255,-6.955994,3.881023,24.20,3,RUN
1759224942.39080,-14.628722,25.57157,-4.560206,9.266921,-2.237384,0.910351,24.22,3,RUN
1759224942.40993,-20.414759,22.998851,16.283564,1.789377,8.459992,0.455125,24.24,3,RUN
1759224942.43081,-2.389413,14.202554,21.382765,1.855165,-3.240714,-0.261487,24.26,3,RUN
1759224942.45081,-1.210269,10.322152,4.953603,0.601848,-3.852846,-0.004382,24.28,3,RUN
1759224942.47081,-2.549825,4.731541,-1.080383,-0.55826,1.718237,-0.531463,24.30,3,RUN
1759224942.49080,-1.422605,0.25618,-4.033332,0.653656,3.086545,-0.70379,24.32,3,RUN
1759224942.50998,0.347907,-1.016189,-0.734272,2.365261,0.994041,0.467646,24.34,3,RUN
1759224942.53080,-5.530606,-2.816479,11.170896,0.729242,-0.691184,1.474598,24.36,3,RUN
1759224942.55084,-6.444443,0.626233,7.198915,-0.964151,-1.079962,1.116186,24.38,3,RUN
1759224942.57087,-6.184522,2.966416,7.251139,-1.049871,-1.509046,-0.082757,24.40,3,RUN
1759224942.59081,0.599748,5.307197,5.212027,-1.919524,-1.356458,-0.459511,24.42,3,RUN
1759224942.60998,2.359336,5.253776,3.997868,-2.997024,-0.610342,0.444374,24.44,3,RUN
1759224942.63084,-5.985504,10.882844,-0.541239,-4.318495,-1.225096,0.531326,24.46,3,RUN
1759224942.65082,-11.819575,31.481807,-3.053206,-5.024193,-5.10226,-1.523327,24.48,3,RUN
1759224942.66985,-5.441571,37.530607,-13.164967,-3.2214,-0.745075,-3.075273,24.50,3,RUN
1759224942.69080,18.677317,38.785468,5.591508,-2.648051,2.444322,-2.236096,24.52,3,RUN
1759224942.70998,15.960496,35.685576,9.305663,-4.010781,3.117116,-2.832274,24.54,3,RUN
1759224942.73083,9.862465,17.087567,-4.336647,-2.864404,3.266993,-0.986807,24.56,3,RUN
1759224942.75082,1.402703,12.077251,-1.937957,-2.303039,-0.189085,0.603292,24.58,3,RUN
1759224942.77083,-13.036428,12.550704,-3.573645,-1.743944,-3.115274,-0.462575,24.60,3,RUN
1759224942.79080,-2.944868,10.63669,-2.926313,-1.823429,-1.970914,-1.544976,24.62,3,RUN
1759224942.81003,5.432144,2.835782,-5.409848,-0.990805,-2.562409,-0.8649,24.64,3,RUN
1759224942.83081,5.742493,-4.436605,-6.677728,0.475136,-1.683999,-0.007597,24.66,3,RUN
1759224942.85084,4.461894,-9.799767,-6.278794,1.843852,-0.291795,0.500903,24.68,3,RUN
1759224942.87083,2.917784,-15.057434,-2.658911,2.217525,-0.358969,0.32664,24.70,3,RUN
1759224942.89080,3.448548,-15.861885,-4.270956,1.648591,-1.531859,-0.09237,24.72,3,RUN
1759224942.91003,0.667533,-6.589741,1.775749,0.676506,-0.687541,0.390902,24.74,3,RUN
1759224942.93016,-5.189582,7.807941,26.713904,-1.553683,1.567638,0.16459,24.76,3,RUN
1759224942.95084,7.743297,25.558402,6.166266,-0.635861,2.616639,1.168926,24.78,3,RUN
1759224942.97083,2.596811,26.73605,10.935366,-0.42916,-1.076416,0.185371,24.80,3,RUN
1759224942.99080,-1.315315,-1.123629,-30.350696,-1.676498,2.66206,0.216553,24.82,3,RUN
1759224943.01007,7.252336,3.905691,16.071378,0.22398,-0.131686,-3.190211,24.84,3,RUN
1759224943.03084,21.134217,32.175526,-32.367212,0.535552,5.515534,0.418529,24.86,3,RUN
1759224943.05083,4.749498,8.895956,-1.623418,-0.906533,3.053984,3.079263,24.88,3,RUN
1759224943.07082,0.401777,-4.849007,-7.140407,0.461614,0.635959,2.056479,24.90,3,RUN
1759224943.09081,2.623895,2.375347,-9.293243,1.602166,1.165241,1.770013,24.92,3,RUN
1759224943.11009,13.365331,42.314671,-7.550115,2.982023,-2.941076,4.009756,24.94,3,RUN
1759224943.13083,-3.390489,39.761106,-9.098565,6.728759,-5.262877,3.07845,24.96,3,RUN
1759224943.15084,-9.429713,22.266225,-1.527201,8.243155,-1.495746,0.638313,24.98,3,RUN
1759224943.16994,-11.098471,18.773534,29.119328,2.780878,7.199132,0.368682,25.00,3,RUN
1759224943.19080,-3.614197,13.183821,20.431518,1.533881,-3.535182,0.005454,25.02,3,RUN
1759224943.21012,-1.170765,9.097667,2.55581,0.65377,-3.874356,0.189395,25.04,3,RUN
1759224943.23015,-2.392855,4.175488,0.0826,0.324214,0.825774,-0.52339,25.06,3,RUN
1759224943.25084,-2.406622,-0.099509,-0.411054,1.25009,1.987648,-1.200989,25.08,3,RUN
1759224943.27084,1.190966,-0.216226,4.720318,2.110681,1.314206,-0.07882,25.10,3,RUN
1759224943.29080,-4.515464,0.019453,12.532449,0.810248,-0.33094,0.899381,25.12,3,RUN
1759224943.31012,-6.645855,2.952649,12.760347,-1.509362,-0.780797,0.508597,25.14,3,RUN
1759224943.33061,-3.668216,5.295525,6.688651,-2.399522,-1.555111,-0.327265,25.16,3,RUN
1759224943.35031,1.212364,5.274127,4.434061,-3.125438,-1.306605,-0.258813,25.18,3,RUN
1759224943.37080,3.522768,5.060444,1.897854,-3.696933,-0.033137,0.020118,25.20,3,RUN
1759224943.39081,-1.896058,11.483938,0.369156,-4.521791,0.083033,-0.239269,25.22,3,RUN
1759224943.41015,-9.222166,33.49952,-1.826926,-5.688706,-4.983214,-1.46312,25.24,3,RUN
1759224943.45083,14.520833,24.245033,10.7769,-2.000953,6.424188,-2.907318,25.28,3,RUN
1759224943.47085,13.305626,18.239028,10.293421,-3.373522,2.630599,-2.555559,25.30,3,RUN
1759224943.49081,8.318055,14.741249,-3.56766,-3.149825,0.684825,-0.308742,25.32,3,RUN
1759224943.51018,-6.269666,8.977209,-8.409035,-1.561324,-2.614614,0.312443,25.34,3,RUN
1759224943.53083,-11.814338,4.441244,-4.994305,-0.833693,-1.260494,-1.287802,25.36,3,RUN
1759224943.55085,3.672256,3.907936,-4.597166,-0.307297,-1.92793,-1.289011,25.38,3,RUN
1759224943.57083,6.26817,-0.575805,-6.603208,0.816191,-2.550991,-0.809416,25.40,3,RUN
1759224943.59086,5.186439,-7.25892,-12.688521,2.464011,-2.000841,-0.066224,25.42,3,RUN
1759224943.61019,7.020996,-12.944251,-3.927239,3.214016,-0.970523,1.014976,25.44,3,RUN
1759224943.63083,1.848174,-15.272612,5.502624,1.583346,-0.385395,0.471178,25.46,3,RUN
1759224943.65083,-0.409259,-5.212476,17.650803,-0.628264,1.077045,-0.046397,25.48,3,RUN
1759224943.67081,3.871574,10.027066,19.091813,-1.945987,0.410712,0.173048,25.50,3,RUN
1759224943.69083,2.465878,19.578135,-2.667739,0.849882,1.376326,0.39474,25.52,3,RUN
1759224943.71020,2.336442,24.718187,-8.188918,-0.356803,2.208608,-0.866674,25.54,3,RUN
1759224943.73082,1.549946,0.148291,-19.127127,-0.89026,3.051481,-0.341864,25.56,3,RUN
1759224943.75084,13.0891,34.206857,32.850991,1.932007,-1.350428,-2.251425,25.58,3,RUN
1759224943.77091,19.578434,26.344748,-19.187581,-1.830135,6.221667,2.292438,25.60,3,RUN
1759224943.79080,2.680608,1.925237,-5.686678,0.027147,0.609573,2.097425,25.62,3,RUN
1759224943.81021,2.187552,-5.737704,-6.086809,0.63955,0.817447,1.564706,25.64,3,RUN
1759224943.83083,4.845266,9.233837,-7.908647,1.788651,0.599989,2.438949,25.66,3,RUN
1759224943.85086,3.791667,42.434232,-8.104971,2.709728,-3.176147,4.1127,25.68,3,RUN
1759224943.87083,-10.606463,29.920488,-5.761646,6.716767,-4.360367,2.102675,25.70,3,RUN
1759224943.89043,-10.233566,16.139164,-1.588254,6.812729,-1.292395,0.320364,25.72,3,RUN
1759224943.91025,-9.314642,17.859697,16.83423,3.565957,5.82856,0.063904,25.74,3,RUN
1759224943.93083,3.498527,18.08954,29.747806,1.832495,-0.723815,-0.386432,25.76,3,RUN
1759224943.95004,1.195455,11.153239,7.974038,0.47034,-3.149413,0.19263,25.78,3,RUN
1759224943.97082,-1.206229,6.948422,-0.089932,-0.2828,1.341154,0.238918,25.80,3,RUN
1759224943.99043,-1.947384,1.344344,0.944213,0.308484,1.869397,0.221933,25.82,3,RUN
1759224944.01026,-2.695871,-0.456544,3.777901,0.918573,1.072015,0.871739,25.84,3,RUN
1759224944.03082,-4.901529,-0.872238,6.932561,0.437427,0.433621,1.730989,25.86,3,RUN
1759224944.05083,-6.674286,1.148918,11.074978,-1.52117,0.881334,1.7061,25.88,3,RUN
1759224944.07082,-7.018752,4.176386,9.971102,-2.708448,-1.669142,0.389846,25.90,3,RUN
1759224944.09082,0.49979,5.452046,2.819771,-3.515224,-1.268998,-0.699794,25.92,3,RUN
1759224944.11030,4.121469,5.443068,-3.478925,-3.736267,1.1061,-0.486198,25.94,3,RUN
1759224944.13083,-0.809839,13.093889,1.350479,-3.896618,0.065369,-1.286525,25.96,3,RUN
1759224944.15083,-0.232836,36.974404,-2.372504,-3.729822,-3.8393,-2.527439,25.98,3,RUN
1759224944.17086,11.17733,42.7778,-11.901427,-2.413415,2.445255,-2.361844,26.00,3,RUN
1759224944.19080,9.152883,19.878458,5.843199,-1.738001,5.123443,-2.05086,26.02,3,RUN
1759224944.21031,5.852027,18.032977,7.013066,-2.388265,-0.228977,-2.119775,26.04,3,RUN
1759224944.23005,0.570718,14.047978,-4.437054,-1.643643,-0.423019,-0.999107,26.06,3,RUN
1759224944.25085,-3.82369,10.223989,-0.940772,-1.218538,-1.366352,-0.669853,26.08,3,RUN
1759224944.27052,-0.16909,7.99379,-3.57978,-1.148903,-2.017011,-1.095322,26.10,3,RUN
1759224944.29043,7.239617,5.352986,-4.466234,-0.212354,-2.20994,-1.312615,26.12,3,RUN
1759224944.31035,8.787169,0.386065,-4.446481,0.881869,-2.303814,-0.850015,26.14,3,RUN
1759224944.33062,6.35466,-5.183297,-6.727108,2.116814,-1.348996,0.008601,26.16,3,RUN
1759224944.35082,6.295254,-9.957934,-4.053683,2.640075,-0.970724,1.210124,26.18,3,RUN
1759224944.37082,1.704672,-13.255198,4.225317,1.194714,-1.086485,1.333451,26.20,3,RUN
1759224944.39043,0.677409,-2.880674,13.286622,-0.274306,0.263725,0.53607,26.22,3,RUN
1759224944.41034,3.881001,10.43408,17.797448,-1.068106,1.828271,0.239697,26.24,3,RUN
1759224944.43053,4.447379,17.155802,-3.433285,1.150483,1.649286,-0.014917,26.26,3,RUN
1759224944.45083,-0.539593,6.295853,-15.48016,-0.057028,2.697024,-0.052569,26.28,3,RUN
1759224944.47047,9.501389,22.634334,5.182249,-0.638313,0.317708,-1.552009,26.30,3,RUN
1759224944.49080,14.985159,31.242835,-16.33489,-0.945505,3.034183,0.821382,26.32,3,RUN
1759224944.51037,1.408539,4.171298,-3.783437,-1.27643,1.531315,1.980258,26.34,3,RUN
1759224944.53082,-2.512116,-7.157316,-8.520365,-0.300382,1.6425,0.985828,26.36,3,RUN
1759224944.55084,3.218406,0.332345,-5.82225,1.178446,-0.411699,1.094753,26.38,3,RUN
1759224944.57081,14.726734,38.213703,-14.223204,2.905689,-2.576817,2.138739,26.40,3,RUN
1759224944.59080,5.438728,34.451066,-9.56723,6.527689,-2.489365,2.025501,26.42,3,RUN
1759224944.61044,-1.028908,18.199524,1.292121,8.291374,-1.518874,0.796914,26.44,3,RUN
1759224944.63082,-10.190022,18.660258,40.400806,2.016717,5.34097,0.365871,26.46,3,RUN
1759224944.65082,-2.459893,15.662119,11.344176,0.426945,-2.399277,1.072704,26.48,3,RUN
1759224944.67082,-4.400243,7.962815,0.017208,0.421661,-1.418667,0.716805,26.50,3,RUN
1759224944.69043,-3.676446,4.829404,1.696292,0.512304,0.905219,0.372341,26.52,3,RUN
1759224944.71044,-3.305195,1.637335,0.829142,0.970008,1.167743,0.158997,26.54,3,RUN
1759224944.73082,-3.911078,2.05228,4.083311,1.609879,0.127066,0.633315,26.56,3,RUN
1759224944.75086,-6.059874,1.984644,7.63466,0.984627,-0.101443,1.145697,26.58,3,RUN
1759224944.77083,-6.265177,-0.748338,10.338013,-1.126986,0.593986,0.490299,26.60,3,RUN
1759224944.79082,1.633145,2.222418,10.790667,-2.366033,-1.095655,-0.391132,26.62,3,RUN
1759224944.81047,3.203741,4.333804,4.452617,-3.516708,-0.939067,-0.1542,26.64,3,RUN
1759224944.83055,1.797597,8.224831,-0.49949,-4.440418,0.046229,-0.017056,26.66,3,RUN
1759224944.85083,-4.297143,22.014086,-0.944363,-4.117561,-1.537972,-1.302067,26.68,3,RUN
1759224944.87081,-1.446846,43.78082,-9.976189,-2.762094,-1.900327,-2.437583,26.70,3,RUN
1759224944.89081,9.683798,30.271837,-7.975235,-2.032596,5.837562,-2.500444,26.72,3,RUN
1759224944.91057,12.164789,20.043209,11.617564,-1.762913,4.164604,-2.317816,26.74,3,RUN
1759224944.93080,5.728576,21.060296,4.726902,-2.914458,-0.169197,-1.661649,26.76,3,RUN
1759224944.95081,-0.052224,15.755643,-4.316895,-2.218252,-1.428473,-0.142845,26.78,3,RUN
1759224944.97081,-4.402039,11.213094,-2.616114,-2.190353,-2.387458,-0.804363,26.80,3,RUN
1759224944.99080,1.875707,8.594436,-3.830274,-1.513516,-2.31806,-1.202529,26.82,3,RUN
1759224945.01051,7.271041,4.479851,-5.811625,-0.829725,-2.348333,-1.155991,26.84,3,RUN
1759224945.03082,6.761076,-1.865083,-5.643582,1.005448,-1.484093,-0.369291,26.86,3,RUN
1759224945.05083,4.204817,-8.141483,-9.747842,3.113434,-0.468923,0.113633,26.88,3,RUN
1759224945.07081,4.998644,-13.734039,-4.731092,3.325971,-0.486968,0.30523,26.90,3,RUN
1759224945.09081,2.336142,-14.704588,3.319561,1.81729,0.607606,0.106579,26.92,3,RUN
1759224945.11051,-1.638681,-3.820996,17.017387,-0.795539,1.686991,-0.073268,26.94,3,RUN
1759224945.13082,2.709488,10.337863,18.606688,-0.30098,0.58371,0.552059,26.96,3,RUN
1759224945.15084,4.813991,18.760515,-1.140687,1.16681,1.322158,0.480672,26.98,3,RUN
1759224945.17087,-0.893486,13.999795,-13.46484,-0.471972,3.005275,-0.440217,27.00,3,RUN
1759224945.19081,7.092224,17.267282,-12.664728,2.244382,-0.532575,-1.825874,27.02,3,RUN
1759224945.21053,12.811074,41.674821,-4.630685,-0.434,3.506766,0.713911,27.04,3,RUN
1759224945.23084,7.215974,2.830246,0.643442,-1.674276,2.748556,0.708254,27.06,3,RUN
1759224945.25084,5.265298,-6.1938,-5.898864,-1.606423,1.377499,1.105334,27.08,3,RUN
1759224945.27083,5.927145,-1.003769,-11.804462,2.272644,-1.11115,1.526992,27.10,3,RUN
1759224945.29081,8.768165,26.516382,-9.082853,2.706717,-2.372753,2.789253,27.12,3,RUN
1759224945.31054,3.581875,34.889653,-8.119785,6.250028,-4.1135,2.592234,27.14,3,RUN
1759224945.33085,-2.940529,20.277541,-3.735254,8.162726,-2.876682,1.237684,27.16,3,RUN
1759224945.35089,-9.42672,20.147955,3.499874,3.871351,7.524442,1.293451,27.18,3,RUN
1759224945.37083,-7.109432,16.911294,38.393119,0.260557,-2.037913,0.405739,27.20,3,RUN
1759224945.39081,-5.414038,11.719168,10.695647,-0.525713,-3.794749,0.367219,27.22,3,RUN
1759224945.41059,-5.224148,7.599495,-1.63913,-0.85216,1.018596,-0.37082,27.24,3,RUN
1759224945.43083,-5.090821,2.351256,-2.474557,0.954456,1.900808,-0.916209,27.26,3,RUN
1759224945.45082,-0.698059,-0.042497,4.116979,1.287947,0.146459,-0.236026,27.28,3,RUN
1759224945.47082,-3.787028,-1.96145,11.906664,-1.085289,0.916975,0.128151,27.30,3,RUN
1759224945.49080,-4.185364,1.166275,10.941801,-2.005514,-1.170254,-0.012172,27.32,3,RUN
1759224945.51059,-2.08505,3.972729,4.618415,-2.802606,-1.589573,-0.15384,27.34,3,RUN
1759224945.53085,-2.253842,7.030124,2.826056,-4.362112,-3.075591,-0.149777,27.36,3,RUN
1759224945.55025,-8.466795,23.092374,-0.849343,-4.240411,-4.633644,-1.600122,27.38,3,RUN
1759224945.57090,-5.767333,33.28913,-8.382848,-3.705584,1.316353,-3.062647,27.40,3,RUN
1759224945.59080,8.73719,28.508956,-6.361095,-2.444199,4.776858,-3.099501,27.42,3,RUN
1759224945.61063,18.170195,28.444313,3.921702,-1.935456,2.836667,-2.243508,27.44,3,RUN
1759224945.63083,11.997943,22.581811,5.568913,-2.736989,0.459247,-1.114511,27.46,3,RUN
1759224945.64992,2.502539,16.302867,-2.059313,-2.222765,-1.758494,-0.193757,27.48,3,RUN
1759224945.67049,-9.758317,14.798112,-2.862567,-2.153946,-1.213204,-1.058531,27.50,3,RUN
1759224945.69044,-0.906056,13.2543,-0.183456,-2.200229,-2.754515,-1.400402,27.52,3,RUN
1759224945.71064,7.329399,7.588721,-5.860257,-1.042196,-2.575108,-0.968878,27.54,3,RUN
1759224945.73081,9.197924,0.006285,-5.627721,0.340172,-1.815981,-0.215535,27.56,3,RUN
1759224945.75083,6.66845,-6.810456,-7.916129,2.311951,-0.162891,0.227797,27.58,3,RUN
1759224945.77046,6.137386,-12.391041,-11.740117,3.695407,0.401178,0.562927,27.60,3,RUN
1759224945.79081,5.335778,-16.262914,0.423774,2.182382,0.551503,0.412571,27.62,3,RUN
1759224945.81066,2.707244,-7.898022,11.859528,0.385395,1.340202,0.395786,27.64,3,RUN
1759224945.83083,-1.321599,6.262184,17.449241,-0.830203,2.064489,0.669321,27.66,3,RUN
1759224945.85081,1.042076,17.833361,5.237615,0.853086,1.938002,0.845031,27.68,3,RUN
1759224945.87085,-3.636643,22.475418,-5.990143,-0.306124,2.895107,-0.056607,27.70,3,RUN
1759224945.89081,2.70874,7.648277,-16.844256,-0.253938,1.179369,-1.042399,27.72,3,RUN
1759224945.91067,11.419743,47.810262,14.473697,0.055276,3.966102,-0.202025,27.74,3,RUN
1759224945.93085,7.620894,6.017976,-1.720234,-1.252784,2.674728,0.987642,27.76,3,RUN
1759224945.95085,3.899406,-3.742436,-9.61691,-0.445211,1.984477,1.220395,27.78,3,RUN
1759224945.97085,5.018696,-1.437269,-5.686229,0.526862,-0.869748,2.468547,27.80,3,RUN
1759224945.99081,13.959094,25.430611,-8.839243,2.518184,-3.578088,3.829321,27.82,3,RUN
1759224946.01070,5.00882,40.535779,-12.989891,6.227913,-4.305504,2.417568,27.84,3,RUN
1759224946.03082,-4.069993,22.245126,-4.250755,8.572689,-3.140001,1.325774,27.86,3,RUN
1759224946.05051,-14.37329,23.035961,7.892037,2.957971,8.385666,0.606568,27.88,3,RUN
1759224946.07087,-5.436933,16.286557,31.911416,1.052298,-2.412047,-0.312084,27.90,3,RUN
1759224946.09080,-3.311779,10.7151,11.25604,-0.332625,-2.692179,-0.282062,27.92,3,RUN
1759224946.11073,-1.32115,7.918074,-1.184681,-0.181873,1.081247,0.216698,27.94,3,RUN
1759224946.13083,-3.207482,1.154454,-1.623269,1.155733,1.550569,0.173103,27.96,3,RUN
1759224946.15085,-2.179621,0.198868,4.033931,1.525193,0.020459,0.652709,27.98,3,RUN
1759224946.17066,-6.509086,1.365892,9.737817,-0.593775,1.213643,0.628338,28.00,3,RUN
1759224946.19080,-7.840262,2.847903,11.211298,-1.931789,-0.707827,-0.124965,28.02,3,RUN
1759224946.21074,-4.527136,4.598364,8.651897,-3.036537,-1.799714,-0.240322,28.04,3,RUN
1759224946.23083,0.129586,5.574749,6.737732,-4.143353,-1.857318,-0.030221,28.06,3,RUN
1759224946.25083,0.535104,5.608417,0.815824,-4.723187,-1.243235,-0.327878,28.08,3,RUN
1759224946.27083,-3.364751,15.962741,-1.532439,-4.552341,-3.434723,-1.489379,28.10,3,RUN
1759224946.29081,-4.541501,38.924482,-6.699724,-3.243101,-0.647115,-2.729504,28.12,3,RUN
1759224946.31075,7.972692,36.988321,-13.021464,-1.477202,6.693003,-2.637205,28.14,3,RUN
1759224946.33086,9.528923,19.498229,3.778948,-1.336093,3.853898,-2.959743,28.16,3,RUN
1759224946.35083,7.722797,22.11973,10.44246,-2.345519,-0.091325,-1.74139,28.18,3,RUN
1759224946.37083,1.700033,17.095647,-4.122666,-1.487514,-1.349419,-0.706903,28.20,3,RUN
1759224946.39081,-7.046884,10.64881,-3.020585,-1.20173,-2.524927,-1.021695,28.22,3,RUN
1759224946.41079,0.54498,9.475951,-2.800019,-0.575978,-2.552033,-1.315437,28.24,3,RUN
1759224946.43083,7.897573,4.726902,-5.695806,0.676623,-2.242316,-1.122133,28.26,3,RUN
1759224946.45081,8.548946,-2.284966,-5.032462,1.577089,-1.876231,-0.171295,28.28,3,RUN
1759224946.47083,7.972841,-8.211812,-8.765172,2.752328,-0.592,0.794334,28.30,3,RUN
1759224946.49081,6.933009,-11.403134,-3.632004,2.051243,-0.063571,0.702134,28.32,3,RUN
1759224946.51080,5.137358,-11.087398,6.560561,0.781855,0.243734,0.39149,28.34,3,RUN
1759224946.53082,4.14137,-1.44924,14.396335,-1.191279,1.578694,0.574456,28.36,3,RUN
1759224946.55087,2.994997,10.451887,17.329531,-0.246386,2.541683,0.890943,28.38,3,RUN
1759224946.57082,-1.585111,18.166753,-11.867459,1.120657,3.863395,-0.052679,28.40,3,RUN
1759224946.59081,-4.536863,12.110022,-14.665682,-0.806196,1.614917,-0.413805,28.42,3,RUN
1759224946.61082,2.587085,7.903709,-6.591686,1.480128,2.394368,-0.175664,28.44,3,RUN
1759224946.63083,6.372617,45.876345,8.393024,-0.781553,2.098248,0.825589,28.46,3,RUN
1759224946.65084,6.914903,9.623344,2.369063,-2.091765,0.064189,1.443847,28.48,3,RUN
1759224946.67068,2.549376,-2.9112,-12.155063,-1.006976,-0.105856,2.049935,28.50,3,RUN
1759224946.69044,3.742137,-0.087388,-10.086772,2.033314,-3.340036,2.27998,28.52,3,RUN
1759224946.71084,5.907842,30.346656,-15.748759,4.629907,-3.05837,2.689682,28.54,3,RUN
1759224946.73083,-3.740342,37.606923,-12.243049,8.396987,-1.879246,1.31312,28.56,3,RUN
1759224946.75086,-9.130737,22.25605,2.211045,5.141595,5.416508,0.724688,28.58,3,RUN
1759224946.77083,-5.061791,17.357064,43.430668,0.734505,-1.779724,0.430635,28.60,3,RUN
1759224946.79081,-3.953126,14.317775,7.338976,0.53616,-2.481695,0.035776,28.62,3,RUN
1759224946.81081,-1.912069,9.275287,-1.637933,0.655212,0.976056,0.551521,28.64,3,RUN
1759224946.83080,-3.352032,3.358167,2.100014,1.126255,0.333979,0.392537,28.66,3,RUN
1759224946.85084,-2.000655,-1.788768,3.698742,1.267028,-0.345039,0.361922,28.68,3,RUN
1759224946.87084,-5.604228,-2.823811,9.805154,-0.111015,-0.480194,0.119478,28.70,3,RUN
1759224946.89080,-6.795492,2.229151,10.420015,-1.50302,-1.090427,-0.29323,28.72,3,RUN
1759224946.91084,-5.256021,2.742259,7.439832,-2.361943,-1.264889,-0.794195,28.74,3,RUN
1759224946.93089,1.273865,4.738125,7.830237,-3.488733,-1.480968,-0.349891,28.76,3,RUN
1759224946.95089,2.170344,6.447735,5.437232,-4.594463,-1.215074,0.048045,28.78,3,RUN
1759224946.97081,-2.809446,12.730868,-0.688333,-4.581721,-1.957856,-1.136031,28.80,3,RUN
1759224946.99081,-8.058284,35.140446,-3.094655,-4.250807,-1.676267,-2.934265,28.82,3,RUN
1759224947.01085,5.617994,44.179455,-12.918214,-2.698913,4.370951,-3.307744,28.84,3,RUN
1759224947.03080,14.965556,21.507862,6.232556,-2.809338,2.612396,-2.562382,28.86,3,RUN
1759224947.05085,14.280964,21.594801,8.442404,-3.231067,1.646003,-1.138657,28.88,3,RUN
1759224947.07083,6.462848,19.523218,-2.842516,-1.896831,0.051137,0.589927,28.90,3,RUN
1759224947.09081,-10.870873,15.627852,-2.707543,-1.105128,-2.249262,-1.049495,28.92,3,RUN
1759224947.11082,-17.676989,12.570606,0.505775,-1.634311,-2.637167,-1.600861,28.94,3,RUN
1759224947.13083,1.966687,9.669582,-3.188628,-0.971379,-2.865275,-1.346866,28.96,3,RUN
1759224947.15084,9.32766,4.57936,-5.73531,0.108201,-2.799766,-0.733227,28.98,3,RUN
1759224947.17080,9.093477,-3.245939,-5.127482,1.282451,-1.691761,-0.041528,29.00,3,RUN
1759224947.19044,7.408857,-10.257059,-9.533112,3.1476,-0.144736,0.364453,29.02,3,RUN
1759224947.21082,6.844574,-16.67322,-4.800524,3.016752,0.132499,0.09327,29.04,3,RUN
1759224947.23084,7.908497,-15.906178,5.162348,1.124388,-0.087082,0.673466,29.06,3,RUN
1759224947.25083,2.477849,-2.192939,7.562385,-0.461774,0.224249,0.700397,29.08,3,RUN
1759224947.27083,0.275932,8.481459,13.707403,-0.635493,0.90627,0.669317,29.10,3,RUN
1759224947.29081,3.445555,19.700539,3.969736,1.427129,1.144256,0.455377,29.12,3,RUN
1759224947.31084,-1.485303,28.959066,-5.503521,0.318091,4.37499,-0.431712,29.14,3,RUN
1759224947.33083,0.322619,7.656358,-17.11944,0.797458,1.057336,-2.42183,29.16,3,RUN
1759224947.35084,9.39769,42.024075,6.332214,-0.622963,4.507085,0.620076,29.18,3,RUN
1759224947.37083,9.540744,7.40332,0.203507,-0.925509,2.926885,1.722432,29.20,3,RUN
1759224947.39081,3.878906,-2.909703,-9.458743,-0.309246,2.030802,1.409674,29.22,3,RUN
1759224947.41085,4.896591,-2.496703,-7.058106,1.759666,-1.519045,2.104389,29.24,3,RUN
1759224947.43083,10.692205,21.201105,-5.869984,2.679368,-3.726512,4.425277,29.26,3,RUN
1759224947.45083,2.826505,49.319656,-10.428843,6.402855,-4.369758,3.419065,29.28,3,RUN
1759224947.47082,-10.518775,26.56247,-5.863998,8.508705,-1.184907,0.942036,29.30,3,RUN
1759224947.49080,-17.624766,20.291757,14.3694,2.235031,7.809291,0.703972,29.32,3,RUN
1759224947.51082,-7.80405,14.153024,28.506263,1.296167,-3.487415,0.067173,29.34,3,RUN
1759224947.53081,-4.591929,7.650522,1.674594,0.078624,-3.603957,-0.586794,29.36,3,RUN
1759224947.55081,-0.789638,4.681861,-3.481768,-0.045759,1.713693,-0.590143,29.38,3,RUN
1759224947.57081,2.406622,0.794725,-3.835361,1.812333,3.071925,0.004357,29.40,3,RUN
1759224947.59081,-1.149217,-0.825251,10.643872,2.024131,-0.041828,0.617535,29.42,3,RUN
1759224947.61080,-8.393772,1.762731,16.357934,-1.11781,-0.425934,0.811876,29.44,3,RUN
1759224947.63081,-6.380099,2.763058,6.258593,-1.833117,-1.313127,0.508731,29.46,3,RUN
1759224947.65081,-4.469077,3.890578,5.753267,-2.280948,-1.440253,-0.460477,29.48,3,RUN
1759224947.67081,2.159121,4.861426,4.977545,-3.349638,-0.9388,-0.304986,29.50,3,RUN
1759224947.69080,-0.804152,9.361478,-0.820014,-4.381702,-0.78295,0.05704,29.52,3,RUN
1759224947.71082,-9.726744,32.262765,-2.729839,-4.324222,-4.577139,-1.17906,29.54,3,RUN
1759224947.73082,1.612644,45.359048,-12.780847,-3.263487,0.934924,-3.248716,29.56,3,RUN
1759224947.75082,14.784345,23.843106,8.531588,-2.934749,3.35404,-2.788959,29.58,3,RUN
1759224947.77082,14.545523,21.416583,4.861576,-3.782879,1.121367,-1.668541,29.60,3,RUN
1759224947.79081,9.276634,18.413206,-4.938041,-2.776943,2.65643,-0.170198,29.62,3,RUN
1759224947.81084,-2.388067,12.108076,-1.352275,-1.818079,-0.896848,0.90817,29.64,3,RUN
1759224947.83084,-14.316278,10.351181,-5.697302,-0.880289,-3.191122,-0.349343,29.66,3,RUN
1759224947.85084,-5.601384,7.907599,-2.818574,-0.965171,-1.666537,-1.315041,29.68,3,RUN
1759224947.87084,3.24115,5.057003,-6.337153,-0.355923,-2.890922,-1.440948,29.70,3,RUN
1759224947.89084,3.593547,-1.332074,-7.838916,0.835069,-3.201625,-1.008812,29.72,3,RUN
1759224947.91083,4.305373,-5.835268,-12.536788,2.551672,-2.074441,-0.801209,29.74,3,RUN
1759224947.93079,4.686201,-10.452785,-5.848286,3.532073,-1.222709,-0.917836,29.76,3,RUN
1759224947.95083,4.275446,-13.899089,6.443545,2.314004,-0.68027,-2.145562,29.78,3,RUN
1759224947.97084,10.820445,-0.806696,29.9772,-2.124751,-0.034173,-1.640105,29.80,3,RUN
1759224947.99081,11.859828,12.178556,11.137377,-2.290706,1.362031,-0.546963,29.82,3,RUN
1759224948.01084,10.386496,23.193978,-3.062184,0.474516,4.045788,0.278162,29.84,3,RUN
1759224948.03084,1.390732,4.920683,-14.635904,-1.183971,3.886569,0.037297,29.86,3,RUN
1759224948.05083,2.992004,36.020016,-0.968754,1.900688,0.562918,-0.583599,29.88,3,RUN
1759224948.07084,2.718766,29.241881,-10.412832,-2.599892,0.848223,3.003236,29.90,3,RUN
1759224948.09080,-3.802142,0.490512,-5.119701,-0.383291,1.813429,2.245101,29.92,3,RUN
1759224948.11018,0.299275,-6.186168,-5.157709,-0.051474,2.089709,0.698975,29.94,3,RUN
1759224948.13067,3.710264,4.949713,-10.190171,1.099185,1.417502,0.742725,29.96,3,RUN
1759224948.15088,10.502016,41.812487,-11.656021,3.411569,-0.40142,2.672232,29.98,3,RUN
1759224948.17082,0.399532,26.162938,-4.672135,5.785992,-1.818596,2.257635,30.00,3,RUN
1759224948.19081,-4.248361,16.089783,-1.101033,7.074054,-1.985306,1.586117,30.02,3,RUN
1759224948.21081,-11.799524,19.79915,11.309311,6.789181,1.977638,1.334365,30.04,3,RUN
1759224948.23086,-6.797139,15.546,25.293543,0.374179,1.227986,1.179204,30.06,3,RUN
1759224948.25085,-6.466589,11.351808,4.662558,0.76654,-3.667065,0.629935,30.08,3,RUN
1759224948.27089,-6.73878,7.804948,-1.53199,0.144427,-0.271246,0.427687,30.10,3,RUN
1759224948.29081,-4.420594,3.272724,-0.80116,0.937876,2.128403,-0.046859,30.12,3,RUN
1759224948.31084,0.531662,0.969053,4.282479,2.219963,1.371874,0.081162,30.14,3,RUN
1759224948.33086,-1.018583,-3.366696,17.855806,-0.08978,-0.256522,0.68744,30.16,3,RUN
1759224948.35086,-4.281132,1.15206,5.896619,-1.208138,-0.770915,0.185465,30.18,3,RUN
1759224948.37084,-1.276858,4.053683,5.921759,-1.464829,-0.645228,-0.036143,30.20,3,RUN
1759224948.39081,1.127819,6.208913,5.295974,-2.71195,-1.237017,0.249544,30.22,3,RUN
1759224948.41086,-5.579088,12.908937,-2.005294,-3.988622,-1.7376,0.965611,30.24,3,RUN
1759224948.43083,-11.154885,30.354138,-5.223998,-4.104759,-2.182339,-1.107643,30.26,3,RUN
1759224948.45086,9.182362,25.363125,-6.253505,-2.73757,0.764034,-3.523283,30.28,3,RUN
1759224948.47086,13.819482,22.821979,8.130709,-3.108421,-0.306166,-3.002811,30.30,3,RUN
1759224948.49081,13.421446,28.015751,-3.165434,-3.644328,0.389256,-1.536299,30.32,3,RUN
1759224948.51082,9.896881,26.465954,-6.588394,-1.914025,2.611767,-0.914368,30.34,3,RUN
1759224948.53083,-3.51813,15.180436,5.371691,-1.180545,1.720374,-0.816023,30.36,3,RUN
1759224948.55084,-9.408015,13.381343,3.037194,-1.859102,-1.131742,-0.909109,30.38,3,RUN
1759224948.57086,-7.43235,14.093318,-1.900248,-2.056345,-2.715008,-1.136684,30.40,3,RUN
1759224948.59081,3.755305,9.752332,-6.3382,-2.140887,-3.875983,-1.192354,30.42,3,RUN
1759224948.61083,9.18745,1.125873,-8.979154,-0.516638,-2.918865,-0.702825,30.44,3,RUN
1759224948.63085,9.165453,-6.418555,-6.956503,0.815565,-1.588151,-0.194374,30.46,3,RUN
1759224948.65086,5.791275,-12.244396,-11.589582,2.393906,0.838059,-0.309546,30.48,3,RUN
1759224948.67086,7.693318,-15.235652,-1.68073,2.841238,1.560108,-0.566947,30.50,3,RUN
1759224948.69081,15.012842,-12.310536,7.305457,1.494479,2.199505,0.370274,30.52,3,RUN
1759224948.71083,1.73011,-1.068113,12.019042,0.056448,2.160589,0.456325,30.54,3,RUN
1759224948.73086,-0.145148,9.243115,8.381053,-0.382922,2.73224,0.882301,30.56,3,RUN
1759224948.75083,-9.666888,24.667759,-3.232621,0.808372,3.444162,0.650933,30.58,3,RUN
1759224948.77084,-8.277503,29.115587,-11.990012,-0.435938,0.780032,-1.384337,30.60,3,RUN
1759224948.79081,-8.537424,37.33533,8.967782,-1.820202,3.432584,-0.701052,30.62,3,RUN
1759224948.81083,4.29849,5.817611,-5.828684,-1.129251,0.182955,0.005503,30.64,3,RUN
1759224948.83085,5.006276,-4.213346,-13.310863,-0.484401,1.52417,-0.071094,30.66,3,RUN
1759224948.85083,7.945009,-3.909731,-7.595305,0.177145,2.765599,0.494892,30.68,3,RUN
1759224948.87083,21.216368,15.286978,-1.461062,1.470961,-1.308552,0.375442,30.70,3,RUN
1759224948.89081,20.40623,37.489607,-7.713818,3.911248,-3.524747,3.414902,30.72,3,RUN
1759224948.91083,-1.880346,22.21071,-4.582352,6.51914,-3.287874,3.687999,30.74,3,RUN
1759224948.93084,-18.160469,22.896948,7.177068,6.411945,3.048526,2.397488,30.76,3,RUN
1759224948.95084,-20.6042,20.965575,15.184625,2.315394,2.869681,0.532588,30.78,3,RUN
1759224948.97083,-10.852766,19.898659,7.595305,1.732948,-0.858795,0.7671,30.80,3,RUN
1759224948.99081,-5.164892,9.98846,4.844517,1.673449,-0.031601,0.757904,30.82,3,RUN
1759224949.01082,-1.283741,5.410148,5.336676,1.524015,1.217661,0.420649,30.84,3,RUN
1759224949.03084,4.194791,2.604293,6.020819,1.572188,1.253401,0.976075,30.86,3,RUN
1759224949.05083,-5.901258,1.175553,12.608913,0.72328,0.471384,1.049058,30.88,3,RUN
1759224949.07083,-11.410466,3.666121,6.375011,-0.278694,-0.282113,0.76107,30.90,3,RUN
1759224949.09081,-10.870424,-0.331896,5.9252,-0.800803,-0.921689,0.096029,30.92,3,RUN
1759224949.11082,-1.827823,4.417003,8.892364,-1.772839,-1.29151,-0.329916,30.94,3,RUN
1759224949.13084,1.017835,5.313482,4.526238,-2.949458,-1.622899,0.094607,30.96,3,RUN
1759224949.15084,-4.640861,12.900707,0.303615,-3.91282,-2.751217,-0.10865,30.98,3,RUN
1759224949.17083,-7.49834,31.41447,-3.714604,-4.128615,-3.398742,-1.572839,31.00,3,RUN
1759224949.19081,3.457826,28.014105,-6.741024,-4.042406,0.706799,-2.148737,31.02,3,RUN
1759224949.21084,7.537845,23.1437,3.073556,-3.793476,0.764576,-2.54335,31.04,3,RUN
1759224949.23083,12.203695,29.673885,-0.963965,-3.837669,0.833559,-2.328913,31.06,3,RUN
1759224949.25084,7.361272,26.043377,-1.108964,-3.11559,2.481929,-1.542239,31.08,3,RUN
1759224949.27084,-2.181866,15.171158,1.364845,-2.73299,1.442283,-0.975524,31.10,3,RUN
1759224949.29081,-2.068441,13.851504,-1.281048,-3.169704,-3.020194,-0.219985,31.12,3,RUN
1759224949.31084,-7.590218,10.373777,-7.328502,-2.419269,-3.689152,-0.85253,31.14,3,RUN
1759224949.33081,4.578013,5.974431,-6.64795,-1.301111,-2.727181,-1.31279,31.16,3,RUN
1759224949.35081,6.198588,-2.209549,-4.838382,-0.100378,-2.637294,-0.64281,31.18,3,RUN
1759224949.37082,4.448277,-9.549124,-11.851448,2.004004,-1.670927,-0.500348,31.20,3,RUN
1759224949.39081,5.851279,-15.759384,-10.318261,4.212818,-0.229161,-0.272168,31.22,3,RUN
1759224949.40995,6.781277,-18.349012,-0.994791,3.276971,0.507927,-0.227595,31.24,3,RUN
1759224949.43083,6.681768,-6.688502,16.5782,0.665493,1.454413,0.698468,31.26,3,RUN
1759224949.45084,5.987449,8.347085,23.027731,-2.149716,1.754602,1.298054,31.28,3,RUN
1759224949.47087,3.963152,23.71337,4.004153,0.61392,1.434306,1.770927,31.30,3,RUN
1759224949.49081,-6.872406,22.170906,-21.54572,0.762511,3.715314,-0.548598,31.32,3,RUN
1759224949.51083,6.230611,33.518973,-1.144877,-0.541226,1.83453,-1.594849,31.34,3,RUN
1759224949.53079,-1.000028,12.710817,-4.747103,-0.540496,3.770494,0.019379,31.36,3,RUN
1759224949.55084,4.342483,-1.795202,-6.988824,-1.250265,1.603183,0.817813,31.38,3,RUN
1759224949.57083,4.780323,-5.547066,-6.386084,-0.480294,1.238273,1.727108,31.40,3,RUN
1759224949.59081,5.605125,0.631022,-5.876119,0.798225,-2.119509,2.988058,31.42,3,RUN
1759224949.61085,3.430143,33.799244,-12.411841,2.488065,-5.084032,2.837917,31.44,3,RUN
1759224949.63083,-2.303072,44.937818,-14.078654,6.89946,-3.979172,1.943737,31.46,3,RUN
1759224949.65083,-7.61416,22.558018,-1.699584,9.436977,-1.84805,-0.064879,31.48,3,RUN
1759224949.67086,-4.212299,17.826777,53.64119,2.824146,5.386729,0.315708,31.50,3,RUN
1759224949.69081,-2.673425,12.772318,10.285041,0.635089,-3.361216,-0.319709,31.52,3,RUN
1759224949.71083,0.771382,9.267655,-2.884414,0.57988,-1.294258,-0.432133,31.54,3,RUN
1759224949.73084,-1.598579,2.847604,-4.452317,1.293353,2.287489,-0.349005,31.56,3,RUN
1759224949.75084,0.089483,-0.694169,1.948132,2.524564,1.511151,0.159782,31.58,3,RUN
1759224949.77083,-5.675455,0.835427,15.181184,1.586491,-0.189063,0.347516,31.60,3,RUN
1759224949.79081,-8.821885,4.154538,14.886248,-1.52139,-0.522328,-0.21696,31.62,3,RUN
1759224949.81083,-2.232144,4.011485,4.239682,-1.910857,-1.133417,-0.301679,31.64,3,RUN
1759224949.83085,1.563713,4.166509,9.302222,-2.674745,-1.28694,-0.460516,31.66,3,RUN
1759224949.85083,0.56997,6.129156,4.282778,-4.308475,-1.475418,-0.219681,31.68,3,RUN
1759224949.87083,-4.928165,16.760459,0.133327,-5.368588,-3.718697,-0.489998,31.70,3,RUN
1759224949.89081,-11.295245,41.752483,-6.815544,-5.317945,-4.466995,-1.00803,31.72,3,RUN
1759224949.91086,1.049409,39.783701,-13.347824,-3.404076,4.000109,-2.729988,31.74,3,RUN
1759224949.93084,8.735544,22.095339,3.392733,-1.916235,7.50789,-3.27543,31.76,3,RUN
1759224949.95083,11.252149,21.898117,10.616339,-3.02401,2.604709,-3.004418,31.78,3,RUN
1759224949.97084,5.510704,16.381726,-2.861969,-3.081387,-0.461618,-1.204938,31.80,3,RUN
1759224949.99080,-4.421193,10.538827,-4.783166,-2.213343,-3.771071,-0.170149,31.82,3,RUN
1759224950.01082,-8.000374,7.591415,-5.336526,-1.443374,-2.393948,-0.977783,31.84,3,RUN
1759224950.03083,4.305972,3.065326,-4.202123,-0.221513,-2.50954,-1.100763,31.86,3,RUN
1759224950.05084,5.469703,-3.777302,-7.48592,0.955496,-2.130323,-0.56073,31.88,3,RUN
1759224950.07083,7.092074,-9.288904,-11.08665,2.60075,-0.034872,0.084286,31.90,3,RUN
1759224950.09080,8.215104,-12.212523,-5.667225,3.394807,0.839064,0.716771,31.92,3,RUN
1759224950.11086,9.14585,-12.883648,4.411317,2.508794,0.841009,0.846671,31.94,3,RUN
1759224950.13083,1.306636,-0.07452,19.36131,-1.455506,0.835859,0.435972,31.96,3,RUN
1759224950.15083,4.002956,14.751874,17.253814,-0.242803,1.937558,1.604174,31.98,3,RUN
1759224950.17081,-2.636914,27.815985,-1.978209,0.988486,2.700381,1.404886,32.00,3,RUN
1759224950.19081,-4.063858,7.970896,-17.201591,-1.675667,3.805376,-0.556409,32.02,3,RUN
1759224950.21082,9.506926,26.441563,7.401525,1.695943,1.130241,-0.3591,32.04,3,RUN
1759224950.23081,3.556587,17.257106,-11.324125,-1.812007,3.714674,1.219358,32.06,3,RUN
1759224950.25080,3.264644,1.205181,-7.419332,-1.038447,1.771967,1.370636,32.08,3,RUN
1759224950.27082,2.408717,-5.476736,-5.741595,0.340709,-1.013525,2.106147,32.10,3,RUN
1759224950.29081,5.498434,5.562479,-6.845471,2.583624,-3.940309,3.718133,32.12,3,RUN
1759224950.31080,6.046407,41.161713,-10.174759,5.185784,-5.198987,3.414771,32.14,3,RUN
1759224950.33080,-8.446893,33.538426,-10.604218,8.541375,-2.67851,0.585741,32.16,3,RUN
1759224950.35080,-9.396643,20.101568,-1.006911,6.454031,5.104284,0.1508,32.18,3,RUN
1759224950.37040,-3.577237,17.971177,44.613254,1.925689,4.89262,0.553936,32.20,3,RUN
1759224950.39081,-3.652654,12.731916,9.735722,0.631792,-2.608283,-0.578059,32.22,3,RUN
1759224950.41080,-1.387889,10.036643,-0.216376,0.393813,0.668505,-0.200694,32.24,3,RUN
1759224950.43083,-1.433678,3.63784,-1.23032,1.127907,1.87762,-0.12456,32.26,3,RUN
1759224950.45090,-2.127248,-1.414824,-0.543334,2.105578,0.688697,-0.044013,32.28,3,RUN
1759224950.47088,-3.091064,-1.28404,9.885808,0.63536,-0.477707,0.342579,32.30,3,RUN
1759224950.49080,-8.422203,1.533935,18.524238,-2.136858,-0.584412,-0.14539,32.32,3,RUN
1759224950.51082,-2.984223,5.094113,6.523152,-2.443931,-1.897285,-0.470085,32.34,3,RUN
1759224950.53083,-0.040253,8.345588,6.744017,-4.090278,-2.442274,-0.117413,32.36,3,RUN
1759224950.55082,-1.767968,14.887744,2.953397,-4.801969,-3.678333,-0.373609,32.38,3,RUN
1759224950.57082,-5.416732,26.673352,-1.403601,-4.437486,-2.502601,-1.624658,32.40,3,RUN
1759224950.59081,2.738667,34.362181,-7.399729,-3.838418,3.470896,-2.243058,32.42,3,RUN
1759224950.61084,9.807548,25.363275,-0.034716,-3.377505,4.758135,-1.670914,32.44,3,RUN
1759224950.62980,9.851691,23.715316,1.549797,-3.172543,3.649189,-1.323101,32.46,3,RUN
1759224950.65084,3.250129,20.250307,-0.076465,-3.040332,-0.441818,-0.448426,32.48,3,RUN
1759224950.67083,-5.166089,15.890017,-5.130026,-1.761476,-0.346299,-0.944761,32.50,3,RUN
1759224950.69081,-7.867646,12.418125,-0.281618,-2.156155,-1.455768,-1.437173,32.52,3,RUN
1759224950.71084,1.657087,9.238476,-1.618031,-1.440727,-2.406519,-1.339077,32.54,3,RUN
1759224950.72981,6.477213,2.719215,-4.52564,-0.000683,-2.307133,-0.753364,32.56,3,RUN
1759224950.75084,5.306748,-4.433613,-4.65777,1.205053,-1.853108,-0.182854,32.58,3,RUN
1759224950.77080,2.948459,-8.824279,-13.981838,3.183609,-0.083845,0.216322,32.60,3,RUN
1759224950.79057,4.372112,-13.302184,-12.78803,2.930688,1.424536,0.378285,32.62,3,RUN
1759224950.81085,5.595848,-14.972439,3.277961,0.892881,1.669256,-0.49368,32.64,3,RUN
1759224950.82986,12.092963,-1.27581,18.517653,-0.859992,2.161007,0.519479,32.66,3,RUN
1759224950.85083,6.539612,11.282376,15.86802,0.425892,3.086654,1.246443,32.68,3,RUN
1759224950.87084,-3.000234,24.566604,-4.834043,0.794351,3.60872,0.676216,32.70,3,RUN
1759224950.89081,-2.252794,11.580005,-18.250101,-1.200133,1.499055,0.473226,32.72,3,RUN
1759224950.91081,1.959953,36.80696,12.879907,1.810905,3.064253,-0.537474,32.74,3,RUN
1759224950.92990,2.951302,17.310228,-3.826682,-2.25691,3.09525,1.186447,32.76,3,RUN
1759224950.95084,2.058565,4.410718,-1.646163,-0.314532,0.361894,1.149451,32.78,3,RUN
1759224950.97086,-1.398214,-5.20664,-8.114099,-0.299759,0.503083,1.230553,32.80,3,RUN
1759224950.99081,5.242404,1.900697,-7.504176,1.365019,-1.524122,2.52853,32.82,3,RUN
1759224951.01084,7.878869,28.604575,-14.141352,4.813552,-2.951805,2.510976,32.84,3,RUN
1759224951.02988,1.988534,35.75396,-9.527875,7.762074,-2.663744,1.399933,32.86,3,RUN
1759224951.05083,-3.582624,21.723789,-1.196652,8.118361,1.329863,1.051855,32.88,3,RUN
1759224951.07084,-12.373833,17.364696,46.97693,0.478884,0.617222,0.9136,32.90,3,RUN
1759224951.09081,-4.450971,14.08045,8.523208,0.677943,-2.126575,0.538037,32.92,3,RUN
1759224951.11084,-3.712359,10.029311,0.283264,0.979554,0.508146,0.304601,32.94,3,RUN
1759224951.12991,-4.405181,4.337545,1.523161,1.466353,1.04913,0.277198,32.96,3,RUN
1759224951.15083,-4.45935,0.975787,5.462221,1.390466,0.388961,0.638285,32.98,3,RUN
1759224951.17085,-7.297377,0.440084,8.697686,0.307624,-0.745047,0.810368,33.00,3,RUN
1759224951.19081,-9.660903,-0.451906,12.159103,-1.643905,-0.961399,0.164654,33.02,3,RUN
1759224951.21083,-6.161179,3.17516,9.043648,-2.61712,-2.096297,-0.59498,33.04,3,RUN
1759224951.22995,1.622521,6.688053,7.117363,-3.934161,-2.159738,-0.081965,33.06,3,RUN
1759224951.25084,0.475399,12.356624,0.708384,-4.626394,-3.074438,-0.171623,33.08,3,RUN
1759224951.27081,-4.351013,29.623457,-4.26557,-4.632003,-2.53226,-1.20527,33.10,3,RUN
1759224951.29080,2.047042,36.928765,-10.261399,-3.606745,3.17275,-2.322582,33.12,3,RUN
1759224951.31083,11.980286,25.701605,-0.363769,-2.632438,3.639773,-2.256359,33.14,3,RUN
1759224951.32998,14.63785,23.041348,4.835689,-3.352189,2.585067,-1.405998,33.16,3,RUN
1759224951.35083,9.521441,20.270059,-0.156521,-2.854991,1.290092,0.090292,33.18,3,RUN
1759224951.37084,0.044742,13.789853,-2.676867,-1.609515,-1.955261,0.72875,33.20,3,RUN
1759224951.39081,-12.22629,10.438121,-4.518607,-1.316595,-1.869243,-0.889367,33.22,3,RUN
1759224951.41082,-5.154417,10.287885,-1.681328,-1.297758,-2.288953,-1.476086,33.24,3,RUN
1759224951.43080,5.584176,5.677849,-5.05805,-0.097843,-2.337358,-1.038469,33.26,3,RUN
1759224951.45083,6.0078,-2.148197,-5.534197,1.207073,-1.809296,-0.537179,33.28,3,RUN
1759224951.47083,4.980538,-7.427711,-11.661109,3.191244,-0.173577,-0.112373,33.30,3,RUN
1759224951.49081,4.168006,-12.607118,-9.562292,3.188969,-0.614851,-0.320284,33.32,3,RUN
1759224951.51083,2.880524,-16.171635,2.684349,1.166481,-0.273856,-1.408382,33.34,3,RUN
1759224951.53002,12.014852,-5.544672,18.680908,-1.553711,1.884203,0.280974,33.36,3,RUN
1759224951.55084,6.941389,9.648034,20.877887,-0.504184,1.620716,1.45534,33.38,3,RUN
1759224951.57082,1.533935,18.141913,-1.421857,1.114563,2.032643,0.924125,33.40,3,RUN
1759224951.59007,-4.580407,19.633501,-16.641497,-1.347644,2.893605,-0.136276,33.42,3,RUN
1759224951.61084,1.419612,15.726014,-7.133823,2.629628,0.10534,-1.258075,33.44,3,RUN
1759224951.63004,2.434753,37.973834,-1.677288,-1.518923,2.554625,1.240235,33.46,3,RUN
1759224951.65086,1.2592,4.836886,-0.175076,-1.77203,1.910977,0.990686,33.48,3,RUN
1759224951.67083,1.211765,-5.740547,-8.874557,-0.548007,1.804561,0.816495,33.50,3,RUN
1759224951.69081,4.001758,-3.520524,-6.498911,1.424757,-1.133013,1.704173,33.52,3,RUN
1759224951.71084,8.621221,19.043929,-10.293421,3.621069,-3.250345,2.841518,33.54,3,RUN
1759224951.73006,5.757606,40.761583,-12.520478,7.415916,-3.053616,2.26276,33.56,3,RUN
1759224951.75081,-5.240758,23.073221,-2.687641,8.889003,-1.014773,1.341171,33.58,3,RUN
1759224951.77080,-12.84983,22.06167,15.231312,2.73298,5.106286,1.155501,33.60,3,RUN
1759224951.79036,-8.922292,13.935151,27.279384,0.995201,-3.370202,0.307886,33.62,3,RUN
1759224951.81082,-5.621885,11.572224,2.881571,0.775964,-1.936902,-0.001044,33.64,3,RUN
1759224951.83008,-1.574637,8.990377,-2.044947,1.166189,1.854676,-0.282654,33.66,3,RUN
1759224951.85088,1.066168,6.682366,4.79409,1.671124,0.720395,-0.283268,33.68,3,RUN
1759224951.87081,-0.952743,3.992481,11.725603,0.21179,0.287607,0.23613,33.70,3,RUN
1759224951.89081,-8.641272,2.633622,12.362011,-1.328078,-1.097646,0.430922,33.72,3,RUN
1759224951.91084,-7.612963,2.135478,6.311714,-1.943859,-2.101401,0.191824,33.74,3,RUN
1759224951.93010,-4.597615,3.729717,7.252486,-3.192044,-1.910865,-0.241188,33.76,3,RUN
1759224951.95086,-0.85458,9.012523,4.367473,-4.534842,-3.636968,-0.154917,33.78,3,RUN
1759224951.97080,-4.506187,22.604705,-0.530914,-5.064365,-4.544472,-0.712,33.80,3,RUN
1759224951.99081,-3.541174,30.896724,-8.992771,-4.341888,0.634588,-1.87019,33.82,3,RUN
1759224952.01083,8.106916,29.206866,-8.215404,-2.686512,4.684663,-2.113509,33.84,3,RUN
1759224952.03011,14.875474,25.817724,0.811485,-2.397604,3.639008,-2.024966,33.86,3,RUN
1759224952.05083,11.530924,22.917747,5.454291,-3.163975,1.475112,-0.518452,33.88,3,RUN
1759224952.07082,3.604022,14.960019,-1.771709,-2.380825,-1.111106,0.822318,33.90,3,RUN
1759224952.08996,-6.411822,11.661558,-2.58065,-1.7846,-3.457634,0.333705,33.92,3,RUN
1759224952.11083,-15.438261,8.37387,-6.452224,-1.363326,-2.112617,-1.620539,33.94,3,RUN
1759224952.13016,2.35754,6.101773,-3.402609,-0.54859,-2.256922,-1.421719,33.96,3,RUN
1759224952.15083,6.722619,0.328455,-4.135534,0.316848,-2.053799,-0.629668,33.98,3,RUN
1759224952.17082,6.24737,-5.551854,-6.762722,1.586689,-0.223139,-0.075076,34.00,3,RUN
1759224952.19083,5.904101,-8.838345,-9.818172,3.077489,1.640917,0.479898,34.02,3,RUN
1759224952.21083,6.047753,-12.555942,-5.420473,2.131911,1.111827,0.618942,34.04,3,RUN
1759224952.23016,8.449736,-10.150517,4.421043,0.487721,0.688258,0.586266,34.06,3,RUN
1759224952.25083,4.621857,3.657891,20.004004,-1.123963,1.849836,0.759282,34.08,3,RUN
1759224952.27083,1.29242,20.841525,9.200019,1.965154,2.539492,0.161703,34.10,3,RUN
1759224952.29081,-6.055235,19.632753,-16.362423,-0.739537,3.333169,-1.182009,34.12,3,RUN
1759224952.31083,6.561759,31.12941,-9.899874,0.658692,4.992482,0.457311,34.14,3,RUN
1759224952.33015,0.54917,28.132767,6.420501,-0.822286,2.340136,-0.066704,34.16,3,RUN
1759224952.35083,4.633528,-1.525106,-6.807613,-0.569807,3.428117,-0.375217,34.18,3,RUN
1759224952.37083,2.325817,-7.82036,-6.001066,-0.511777,3.347414,-0.145858,34.20,3,RUN
1759224952.39081,4.003704,-4.317344,-2.103905,0.62563,0.022919,1.598508,34.22,3,RUN
1759224952.41083,9.910798,13.27106,-3.277512,0.602359,-3.001506,4.793004,34.24,3,RUN
1759224952.43018,6.318149,42.237458,-10.98744,4.063,-5.663944,5.331851,34.26,3,RUN
1759224952.45083,-10.912622,35.015798,-7.238869,8.550999,-6.407577,2.118941,34.28,3,RUN
1759224952.47083,-13.773543,23.908049,-5.353285,8.826982,4.400763,1.387049,34.30,3,RUN
1759224952.49082,-10.740089,15.260641,42.528204,0.592732,5.986474,0.828063,34.32,3,RUN
1759224952.51087,-6.456563,8.089409,30.066085,-0.08401,-7.028062,-0.599722,34.34,3,RUN
1759224952.53023,-4.823568,5.331588,1.951274,-1.447577,-1.692268,-0.311751,34.36,3,RUN
1759224952.55084,-5.888988,3.98036,-5.696255,-0.555456,1.920369,-0.309176,34.38,3,RUN
1759224952.57083,-3.322254,-0.531962,2.024896,0.777696,0.1503,0.000907,34.40,3,RUN
1759224952.59081,-5.184195,0.322768,7.770082,-0.859141,-1.107826,-0.330045,34.42,3,RUN
1759224952.61002,-3.36101,1.586159,15.625907,-3.280928,-1.065149,-0.599676,34.44,3,RUN
1759224952.63025,0.667683,4.799776,8.901043,-4.065097,-2.550961,-0.431734,34.46,3,RUN
1759224952.65084,-0.060304,6.860435,2.234838,-5.397474,-2.811301,-0.527507,34.48,3,RUN
1759224952.67083,-6.91206,15.719131,-4.225467,-4.74445,-2.985184,-2.91036,34.50,3,RUN
1759224952.69080,-6.150854,38.74342,-8.681824,-2.632738,0.58165,-4.026553,34.52,3,RUN
1759224952.71082,9.602694,36.661063,-10.242694,-1.641833,6.851824,-3.027366,34.54,3,RUN
1759224952.73027,15.708956,19.565865,15.015236,-2.922014,2.560909,-2.408666,34.56,3,RUN
1759224952.75082,7.936629,17.306636,-2.2504,-2.9969,0.062574,-0.663453,34.58,3,RUN
1759224952.77086,-1.004517,12.761244,-3.030461,-1.523007,-1.230263,0.9429,34.60,3,RUN
1759224952.79081,-11.674127,8.469488,-3.829675,-0.634261,-3.120004,0.473592,34.62,3,RUN
1759224952.81080,-4.445584,6.768857,-3.115156,-0.225932,-1.501619,-1.39209,34.64,3,RUN
1759224952.83029,2.2296,6.424691,-3.527108,0.797586,-1.561422,-1.368081,34.66,3,RUN
1759224952.85082,5.530456,-1.255609,-6.424541,1.683277,-0.991733,-0.712874,34.68,3,RUN
1759224952.87082,5.906346,-6.222081,-11.807903,3.147918,0.422844,0.092621,34.70,3,RUN
1759224952.89081,5.556344,-9.616012,-2.669086,3.004301,0.504234,0.291356,34.72,3,RUN
1759224952.91081,8.081628,-9.47206,8.912116,1.459913,-0.25089,-0.374419,34.74,3,RUN
1759224952.93033,4.349666,-4.135983,16.985215,-1.661447,0.920412,-0.780869,34.76,3,RUN
1759224952.95082,7.273734,20.516213,7.421726,-1.139978,3.94977,0.324057,34.78,3,RUN
1759224952.97082,-2.203264,12.194268,-16.679356,-0.453698,5.346572,-0.174146,34.80,3,RUN
1759224952.99080,3.099593,-0.094721,-11.80925,-1.047976,2.164305,-0.207925,34.82,3,RUN
1759224953.01082,6.260239,34.036569,-2.439243,3.890921,-1.201649,0.306808,34.84,3,RUN
1759224953.03030,7.414094,38.479011,-3.432986,-1.465538,3.496544,2.865073,34.86,3,RUN
1759224953.05082,1.044022,0.865654,0.7847,-1.202711,-0.08317,1.837454,34.88,3,RUN
1759224953.07082,-0.418686,-3.7782,-7.140407,-0.642752,-2.811662,2.045617,34.90,3,RUN
1759224953.09080,-1.784728,10.645069,-13.556718,1.474549,-3.994306,1.609167,34.92,3,RUN
1759224953.11084,-0.650475,39.491758,-14.862755,4.431329,-0.829324,1.205025,34.94,3,RUN
1759224953.13034,-3.045724,23.027581,-3.47668,5.752609,-0.433979,0.914873,34.96,3,RUN
1759224953.15084,-5.020042,16.690429,-0.338181,6.798788,-0.150566,0.345482,34.98,3,RUN
1759224953.16992,-3.999963,18.040758,9.565883,3.332039,1.851923,0.574465,35.00,3,RUN
1759224953.19080,-0.730082,13.756634,7.983914,0.905448,-1.988272,0.699137,35.02,3,RUN
1759224953.21085,-3.860351,7.955483,-0.981772,0.734569,-0.873233,0.431118,35.04,3,RUN
1759224953.23037,-4.593126,4.590433,-1.978658,1.396706,1.225537,-0.006767,35.06,3,RUN
1759224953.25084,-0.909198,2.306065,5.866692,2.099272,1.61195,-0.118316,35.08,3,RUN
1759224953.27084,-5.8839,1.406145,19.587113,-0.044138,0.60577,0.223839,35.10,3,RUN
1759224953.29081,-5.155015,3.255665,8.121731,-1.992163,-0.733049,0.256454,35.12,3,RUN
1759224953.31082,-4.274249,3.805284,3.99682,-2.131334,-1.360835,0.312909,35.14,3,RUN
1759224953.33040,-3.29487,4.337246,6.732046,-2.995139,-1.712693,-0.175515,35.16,3,RUN
1759224953.35083,-2.929605,8.796746,2.925565,-4.475129,-3.069996,-0.179372,35.18,3,RUN
1759224953.37081,-7.305009,23.538893,-2.612074,-4.380798,-4.3743,-0.982903,35.20,3,RUN
1759224953.39080,-0.129586,34.378342,-8.511985,-3.950539,-0.619837,-2.34344,35.22,3,RUN
1759224953.41084,11.426178,27.373207,-1.794454,-3.284632,4.154145,-2.462018,35.24,3,RUN
1759224953.43041,13.350368,21.649269,5.212476,-2.754313,2.731678,-1.606774,35.26,3,RUN
1759224953.45084,7.905654,19.079094,1.211167,-3.354538,0.632273,-0.69722,35.28,3,RUN
1759224953.47082,-0.461632,14.933833,-3.73271,-2.420081,-0.139901,0.465209,35.30,3,RUN
1759224953.49080,-6.828263,11.300333,-3.907936,-1.444911,-0.846306,0.245346,35.32,3,RUN
1759224953.51084,-8.647407,10.360758,-3.112612,-1.069904,-0.666802,-1.411906,35.34,3,RUN
1759224953.53043,3.80723,8.410232,-3.750667,-0.746017,-0.995115,-1.696684,35.36,3,RUN
1759224953.55085,8.514978,3.201347,-5.827038,0.339424,-1.037608,-1.201434,35.38,3,RUN
1759224953.57085,8.339304,-3.024026,-5.239411,1.376066,-0.382912,-0.376408,35.40,3,RUN
1759224953.59080,7.53964,-7.652916,-9.875184,2.588715,0.588445,0.582935,35.42,3,RUN
1759224953.61083,6.940641,-13.103615,-0.453252,1.860526,-0.241858,1.113346,35.44,3,RUN
1759224953.63045,3.708918,-6.758233,17.865234,0.067896,-0.116957,0.655679,35.46,3,RUN
1759224953.65084,1.797447,8.143877,19.153164,-1.291871,4.206644,0.884646,35.48,3,RUN
1759224953.67085,-2.315193,8.541913,-15.655086,0.588185,7.209915,0.241955,35.50,3,RUN
1759224953.69080,1.081132,7.956381,-6.785766,0.272634,1.748494,-1.138678,35.52,3,RUN
1759224953.71080,1.82109,57.406372,2.675221,1.808219,0.783944,-0.204586,35.54,3,RUN
1759224953.73047,-2.549525,21.2029,-1.691354,-2.287277,2.89484,2.327188,35.56,3,RUN
1759224953.75084,1.714548,-4.204966,-1.133056,-0.583955,0.210426,2.03397,35.58,3,RUN
1759224953.77083,-0.028581,-6.42499,-4.458003,-0.498097,-1.382435,1.777531,35.60,3,RUN
1759224953.79080,3.82369,13.195792,-12.52781,0.498895,-1.77152,1.654556,35.62,3,RUN
1759224953.81072,8.081927,43.22372,-15.610195,4.45547,-1.045496,2.21101,35.64,3,RUN
1759224953.83048,-1.075894,20.787806,-3.011906,6.447662,-2.222767,1.99442,35.66,3,RUN
1759224953.85087,-7.972841,17.343298,2.03163,7.649572,-0.937949,1.421549,35.68,3,RUN
1759224953.87064,-7.046285,17.550546,32.154128,2.022756,2.709667,0.719487,35.70,3,RUN
1759224953.89080,-4.569932,14.758906,7.414094,0.977407,-2.358491,0.619139,35.72,3,RUN
1759224953.91085,-3.937414,8.519916,0.171335,0.884142,-0.634627,0.566275,35.74,3,RUN
1759224953.93053,-4.117728,2.861819,0.906205,1.322508,0.413969,0.190908,35.76,3,RUN
1759224953.95085,-1.633145,0.803853,3.083732,1.767714,0.785385,0.348475,35.78,3,RUN
1759224953.97081,-6.667702,1.346888,10.097845,1.179371,0.372551,0.561281,35.80,3,RUN
1759224953.99081,-9.191789,2.184859,11.007192,-0.427662,-0.468617,0.268812,35.82,3,RUN
1759224954.00998,-7.519589,1.95292,5.551555,-1.20085,-1.644985,-0.477971,35.84,3,RUN
1759224954.03053,-0.858022,4.888511,7.706486,-1.966354,-1.515755,-0.756587,35.86,3,RUN
1759224954.05084,1.845481,6.385934,8.34095,-3.321002,-2.413197,-0.542978,35.88,3,RUN
1759224954.07082,1.051204,9.098714,-0.685041,-4.295578,-1.749568,-0.503628,35.90,3,RUN
1759224954.09080,-4.238784,26.701933,-3.152116,-4.087952,-3.040269,-1.444431,35.92,3,RUN
1759224954.11083,0.269348,45.731347,-9.460089,-3.400461,-0.72904,-2.414415,35.94,3,RUN
1759224954.13054,7.019799,23.81662,-0.51191,-3.389188,4.354457,-2.431239,35.96,3,RUN
1759224954.15081,9.630676,20.239084,6.028001,-3.090167,2.481433,-1.871322,35.98,3,RUN
1759224954.17081,5.809381,22.919094,1.64332,-3.447904,-0.018475,-0.733584,36.00,3,RUN
1759224954.19080,-2.147749,14.585477,-4.479701,-2.401585,-0.183488,-0.063822,36.02,3,RUN
1759224954.21087,-7.728782,10.340258,-2.858228,-1.674696,-1.772389,-0.907732,36.04,3,RUN
1759224954.23057,1.837101,10.055797,-3.450793,-1.085643,-1.213371,-1.555484,36.06,3,RUN
1759224954.25090,8.797793,6.866121,-4.125808,-0.02427,-1.400595,-1.464135,36.08,3,RUN
1759224954.27082,7.033566,-1.448642,-5.000889,1.050196,-1.560696,-0.708643,36.10,3,RUN
1759224954.29080,6.474071,-8.252963,-11.842919,2.740418,-0.302692,0.185457,36.12,3,RUN
1759224954.31066,5.291635,-12.005575,-5.865944,3.135007,-0.733362,0.996889,36.14,3,RUN
1759224954.33059,2.270002,-15.183279,7.961169,1.828699,-0.517836,0.078963,36.16,3,RUN
1759224954.35082,3.587861,-4.352659,18.447025,-0.303101,1.509707,0.072693,36.18,3,RUN
1759224954.37082,4.651485,8.189068,17.296012,-1.590746,2.115288,0.546017,36.20,3,RUN
1759224954.39042,1.632846,16.475998,-5.156961,0.385272,4.274723,0.915521,36.22,3,RUN
1759224954.41082,-0.099509,17.685818,-15.995063,-0.757052,3.23493,0.139324,36.24,3,RUN
1759224954.45082,1.213411,8.529194,0.800262,-1.893742,3.719238,0.95965,36.28,3,RUN
1759224954.47083,1.046715,-4.952256,-6.359598,-1.395226,1.696412,1.059101,36.30,3,RUN
1759224954.49042,3.8813,-6.670096,-8.405294,-0.43977,1.184005,1.257007,36.32,3,RUN
1759224954.51080,7.295132,11.461792,-8.553285,1.443817,-0.888688,2.393278,36.34,3,RUN
1759224954.53064,8.608053,46.804398,-11.899631,3.808725,-4.025179,3.896175,36.36,3,RUN
1759224954.55082,-5.466561,24.672248,-5.337424,7.267038,-3.59169,2.239888,36.38,3,RUN
1759224954.57082,-8.29935,19.806632,0.384419,8.560877,-0.225838,1.604775,36.40,3,RUN
1759224954.59043,-8.634688,16.624289,37.954531,1.666506,3.822837,1.447892,36.42,3,RUN
1759224954.61090,-5.377377,13.781623,7.900417,1.090178,-3.754136,0.361235,36.44,3,RUN
1759224954.63065,-3.561225,9.466823,-0.03696,0.532154,-1.255983,0.368499,36.46,3,RUN
1759224954.65086,-4.50469,4.269161,0.898275,0.761934,1.323568,-0.205434,36.48,3,RUN
1759224954.67083,-3.896114,2.885312,5.881506,1.446858,1.033621,-0.489941,36.50,3,RUN
1759224954.69043,-7.86989,1.600225,17.29676,-0.097196,1.12755,-0.53069,36.52,3,RUN
1759224954.71082,-3.512294,2.576011,7.546075,-1.905937,-0.533259,-0.480421,36.54,3,RUN
1759224954.73068,-1.646463,1.117344,5.772869,-2.18712,-1.43834,-0.121366,36.56,3,RUN
1759224954.75082,-0.006584,4.084358,7.759757,-3.22796,-1.635145,-0.046634,36.58,3,RUN
1759224954.77091,-0.284461,6.378303,3.891027,-4.446227,-2.053542,-0.091918,36.60,3,RUN
1759224954.79041,-3.977966,16.441432,-0.723647,-5.05909,-2.638326,-0.824123,36.62,3,RUN
1759224954.81091,-6.000019,37.131225,-4.056975,-4.536593,-3.723879,-2.114876,36.64,3,RUN
