SamplingTime,AccelerationX,AccelerationY,AccelerationZ,GyroX,GyroY,GyroZ,Durations,Subject,Activity
1759224759.02520,-5.515343,-4.838382,1.270423,-1.188776,0.465925,-0.687616,4.00,2,RUN
1759224759.04514,-5.109077,-6.67249,-0.104746,-1.436494,1.540978,-0.16451,4.02,2,RUN
1759224759.06514,-8.318055,-6.023512,-6.443694,-1.32887,2.001649,-0.060305,4.04,2,RUN
1759224759.08521,-2.170344,0.919523,-8.540117,-0.550649,2.864889,-0.996451,4.06,2,RUN
1759224759.10425,3.32001,3.729119,-5.147683,-0.418556,3.429177,-0.421628,4.08,2,RUN
1759224759.12514,3.497779,9.112332,7.163002,-0.734306,2.773548,0.530582,4.10,2,RUN
1759224759.14507,0.803404,6.549189,-0.831835,-0.071358,2.295479,0.323929,4.12,2,RUN
1759224759.16524,-0.148141,13.673435,-3.269133,0.088472,4.010485,0.52296,4.14,2,RUN
1759224759.18464,-3.096002,26.823139,5.286547,1.252624,0.258384,0.344622,4.16,2,RUN
1759224759.20443,-8.253412,23.945458,5.766435,0.474563,0.072334,-1.672444,4.18,2,RUN
1759224759.22526,-4.124611,8.449886,4.317344,-0.992308,1.696234,-1.542161,4.20,2,RUN
1759224759.24516,-5.724237,9.490017,4.295946,-0.997,1.622704,-1.471316,4.22,2,RUN
1759224759.26521,-4.723311,15.378107,2.215684,-0.539929,-0.176858,-2.724433,4.24,2,RUN
1759224759.28428,-0.849343,22.178986,2.992004,0.121267,-1.657578,-3.520809,4.26,2,RUN
1759224759.30515,7.211635,28.611308,4.812345,-0.030411,-2.721945,-3.510291,4.28,2,RUN
1759224759.32533,15.081226,23.70095,4.776432,-1.788766,-3.11639,-2.584344,4.30,2,RUN
1759224759.34534,15.74038,14.500482,1.191415,-3.227083,-1.160825,-2.670953,4.32,2,RUN
1759224759.36519,16.889147,10.989386,-0.431555,-2.9867,1.838153,-2.332893,4.34,2,RUN
1759224759.38515,10.795006,6.287024,-3.171868,-2.302221,3.813707,-1.002784,4.36,2,RUN
1759224759.40482,0.552612,6.413318,-22.981642,-1.818495,4.300388,-0.153945,4.38,2,RUN
1759224759.42523,3.280056,4.775235,-8.89012,0.690312,-1.307685,-0.051943,4.40,2,RUN
1759224759.44531,3.311779,3.400814,0.391003,1.145915,-2.284938,-0.003218,4.42,2,RUN
1759224759.46517,2.697966,1.398064,0.835576,1.317388,-2.210271,0.292559,4.44,2,RUN
1759224759.48519,2.593519,-1.431882,1.221342,0.845393,-1.665352,0.478469,4.46,2,RUN
1759224759.50518,2.109591,-2.584092,-1.274463,-0.164237,0.302233,0.368928,4.48,2,RUN
1759224759.52523,5.985205,-1.564312,-5.734712,0.040062,2.878801,0.867658,4.50,2,RUN
1759224759.54526,7.664139,1.291971,-2.18441,1.744677,1.581232,2.56783,4.52,2,RUN
1759224759.56517,4.158429,6.828113,0.458789,2.393098,-2.744619,3.32068,4.54,2,RUN
1759224759.58520,11.843966,23.270144,0.102951,3.482768,-4.80916,4.247443,4.56,2,RUN
1759224759.60534,14.142848,54.547396,0.297031,3.712385,-4.209373,6.637074,4.58,2,RUN
1759224759.62522,-6.891261,35.564818,8.15091,4.125336,3.255692,2.949719,4.60,2,RUN
1759224759.64532,-2.619257,26.569204,18.423382,0.796597,6.2866,1.211858,4.62,2,RUN
1759224759.66514,-8.458714,19.359066,4.621258,-3.190638,3.401287,2.529979,4.64,2,RUN
1759224759.68520,-1.862988,14.382119,-10.340258,-2.384242,2.135568,2.40356,4.66,2,RUN
1759224759.70517,-0.287603,11.733234,-4.611981,-0.466133,-1.154094,1.164772,4.68,2,RUN
1759224759.72523,-1.094749,8.405892,-1.3626,0.241727,-3.495166,0.018755,4.70,2,RUN
1759224759.74533,-3.640384,5.159056,1.103428,0.000217,-3.051873,-0.806159,4.72,2,RUN
1759224759.76528,-5.029619,1.642572,1.682376,-0.712315,-2.083921,-1.185386,4.74,2,RUN
1759224759.78535,-6.730101,0.243011,0.094571,-1.457792,-0.604277,-1.317575,4.76,2,RUN
1759224759.80521,-8.104223,-3.227384,-5.488707,-0.832673,0.829514,-1.696101,4.78,2,RUN
1759224759.82519,-4.345476,-6.199037,-3.825934,0.171728,1.058641,-1.814723,4.80,2,RUN
1759224759.84518,2.095375,-5.714361,-1.85416,0.401899,1.012642,-1.419994,4.82,2,RUN
1759224759.86519,7.070078,0.433799,-1.441758,-0.189935,1.815281,0.068004,4.84,2,RUN
1759224759.88516,1.901894,4.551228,2.180669,-0.322244,2.147236,0.611664,4.86,2,RUN
1759224759.90518,1.411083,5.75177,1.638681,0.500123,3.271564,0.774013,4.88,2,RUN
1759224759.92515,-1.178396,6.377405,-0.629076,-0.848951,2.937392,0.429989,4.90,2,RUN
1759224759.94474,-2.240374,17.914315,-0.114024,-0.872622,3.187534,0.364743,4.92,2,RUN
1759224759.96449,-6.487838,48.506226,8.744373,0.733898,1.195292,-1.275632,4.94,2,RUN
1759224759.98437,-2.434155,13.87814,7.152378,0.177467,0.893458,-1.214879,4.96,2,RUN
1759224760.00515,-2.981829,8.342296,-1.208473,-1.265161,0.088864,-1.418837,4.98,2,RUN
1759224760.02515,-5.760748,6.94513,-2.037915,0.483357,0.374898,-3.035666,5.00,2,RUN
1759224760.04515,-4.918588,11.880478,-1.129165,2.160179,0.318316,-3.886485,5.02,2,RUN
1759224760.06517,-4.041712,22.567595,0.539593,2.892499,-0.388433,-4.344466,5.04,2,RUN
1759224760.08525,1.296759,31.092749,4.954202,1.913402,-4.456855,-3.534845,5.06,2,RUN
1759224760.10522,6.636577,22.863878,11.184812,-0.867734,-8.975281,-2.052834,5.08,2,RUN
1759224760.12536,10.994922,15.259145,7.60159,-4.842864,-3.854298,-1.392691,5.10,2,RUN
1759224760.14520,15.320646,15.262287,1.527052,-5.277835,2.125769,-0.184504,5.12,2,RUN
1759224760.16535,10.793061,8.827272,-3.053505,-3.424754,6.224249,-0.20844,5.14,2,RUN
1759224760.18524,7.160758,1.435623,-13.15554,-0.822848,10.237865,-0.458976,5.16,2,RUN
1759224760.20418,7.077559,0.804901,-17.941399,-0.087992,-0.930269,0.000688,5.18,2,RUN
1759224760.22535,5.208586,-0.259322,-3.345897,0.130166,-4.566133,0.587683,5.20,2,RUN
1759224760.24527,2.852841,-1.116895,-1.140239,0.318113,-4.322368,0.977604,5.22,2,RUN
1759224760.26535,2.84506,-1.924938,-6.324134,1.420149,-0.097147,1.338163,5.24,2,RUN
1759224760.28519,3.552397,-2.303072,-3.255516,1.825102,1.925573,1.868429,5.26,2,RUN
1759224760.30438,4.037073,1.298106,-0.213832,2.156456,0.958354,2.671693,5.28,2,RUN
1759224760.32517,3.370886,3.495834,0.291045,2.329794,-1.030944,3.157212,5.30,2,RUN
1759224760.34516,4.68261,11.536311,0.659453,3.018642,-3.078871,3.517031,5.32,2,RUN
1759224760.36515,14.53849,40.220194,1.563863,2.67621,-3.25531,5.655493,5.34,2,RUN
1759224760.38517,2.501641,42.115354,1.513285,3.691736,1.254597,3.311059,5.36,2,RUN
1759224760.40454,-7.674763,27.030387,6.159383,2.209827,5.491988,0.572823,5.38,2,RUN
1759224760.42517,-1.882142,23.736714,14.833725,-1.869926,4.994162,1.673504,5.40,2,RUN
1759224760.44523,-7.283012,20.943728,6.219388,-3.744555,2.283092,1.888604,5.42,2,RUN
1759224760.46535,-7.095815,14.756812,0.900669,-3.23848,0.60103,0.617782,5.44,2,RUN
1759224760.48521,4.3151,10.196456,-12.599337,-0.217663,-1.196094,0.113504,5.46,2,RUN
1759224760.50482,0.782754,7.646182,-4.371962,0.817338,-3.250031,-0.482533,5.48,2,RUN
1759224760.52518,-2.55177,5.854721,0.432153,0.442982,-2.515826,-0.85515,5.50,2,RUN
1759224760.54518,-4.220678,3.285294,1.285088,-0.043247,-0.889632,-0.967198,5.52,2,RUN
1759224760.56516,-4.619911,0.128688,0.44173,-0.196731,-0.020792,-0.88006,5.54,2,RUN
1759224760.58517,-4.947468,-2.862118,-1.45358,0.083476,-0.179774,-0.802749,5.56,2,RUN
1759224760.60494,-4.419846,-4.119374,-2.067692,0.1991,0.042278,-0.98003,5.58,2,RUN
1759224760.62517,-2.363077,-3.705027,-1.580772,0.003704,1.091594,-1.25153,5.60,2,RUN
1759224760.64515,4.830451,-0.468964,1.524658,-0.436977,1.931301,-0.369473,5.62,2,RUN
1759224760.66516,7.725789,2.885163,4.1499,-0.396461,1.267244,1.105756,5.64,2,RUN
1759224760.68517,1.28434,4.541801,2.12635,0.061128,0.911666,1.201545,5.66,2,RUN
1759224760.70515,-2.660856,10.937012,-18.199674,-0.08894,5.01753,1.078876,5.68,2,RUN
1759224760.72521,3.90629,18.543241,6.300342,1.494287,0.444988,1.505655,5.70,2,RUN
1759224760.74518,-6.119729,23.971346,2.602647,1.071741,-0.221023,-0.286847,5.72,2,RUN
1759224760.76516,-5.4709,4.71134,0.610521,1.285413,0.768057,-0.485602,5.74,2,RUN
1759224760.78517,-6.168212,4.402787,1.834407,1.58755,1.317665,-0.763632,5.76,2,RUN
1759224760.80517,-6.154295,13.839982,4.603002,1.048522,-0.678741,-2.691011,5.78,2,RUN
1759224760.82516,-0.604386,26.621128,4.473865,0.945442,-4.398059,-3.691941,5.80,2,RUN
1759224760.84518,3.4686,29.97316,5.907094,0.840115,-7.832756,-3.304133,5.82,2,RUN
1759224760.86538,7.10195,22.376957,5.344008,-0.434243,-9.32506,-2.399273,5.84,2,RUN
1759224760.88521,13.10152,13.684509,4.258985,-3.037705,-2.055073,-1.820671,5.86,2,RUN
1759224760.90535,13.335554,15.976657,2.979734,-4.25005,2.181798,-0.87619,5.88,2,RUN
1759224760.92425,9.157821,12.493543,1.543213,-3.513802,2.635568,-1.060038,5.90,2,RUN
1759224760.94516,6.348974,7.897873,-1.309179,-3.864514,4.005889,-0.825885,5.92,2,RUN
1759224760.96517,4.460098,8.470536,-36.098725,-2.797583,9.141961,-0.607877,5.94,2,RUN
1759224760.98518,5.745635,3.397223,-4.660762,0.791199,-1.582476,0.234174,5.96,2,RUN
1759224761.00488,2.544288,1.010652,1.035193,0.647581,-4.134553,0.48649,5.98,2,RUN
1759224761.02444,2.035221,-0.844405,-0.402376,0.537694,-3.379183,0.583741,6.00,2,RUN
1759224761.04516,4.066851,-2.725499,-4.36044,0.848138,0.367572,0.655127,6.02,2,RUN
1759224761.06518,5.617396,-2.870049,-2.40303,1.400865,2.464652,0.986998,6.04,2,RUN
1759224761.08523,7.599196,-2.556858,-0.968754,1.739005,2.490084,1.905349,6.06,2,RUN
1759224761.10536,8.619874,0.101454,0.270694,1.841057,0.816198,3.22873,6.08,2,RUN
1759224761.12466,8.602067,10.202292,-0.176273,1.450426,-0.916482,4.106101,6.10,2,RUN
1759224761.14526,16.338331,35.466806,-2.415001,2.82056,-3.144528,5.228136,6.12,2,RUN
1759224761.16538,10.578032,53.841405,0.500388,3.852095,-2.264285,6.28829,6.14,2,RUN
1759224761.18521,-5.819706,30.110378,11.228955,3.604722,4.751984,2.567307,6.16,2,RUN
1759224761.20432,-0.714071,22.950219,13.46903,0.360572,4.567102,2.47972,6.18,2,RUN
1759224761.22480,-6.848763,18.514361,7.455843,-2.763944,2.17633,3.213319,6.20,2,RUN
1759224761.24516,-3.211522,15.173552,-2.211345,-4.443899,-0.722188,1.201051,6.22,2,RUN
1759224761.26519,7.037008,10.389339,-15.472079,-1.040162,-0.581521,0.829563,6.24,2,RUN
1759224761.28519,-3.942352,7.965659,-2.711433,0.853256,-3.916543,0.218259,6.26,2,RUN
1759224761.30513,-5.177311,6.644209,4.703409,0.270458,-3.094038,-0.586511,6.28,2,RUN
1759224761.32498,-6.776638,3.905691,4.44274,-0.686912,-1.394226,-0.988154,6.30,2,RUN
1759224761.34518,-6.815843,0.379182,2.01098,-1.262604,0.002447,-1.23792,6.32,2,RUN
1759224761.36517,-5.556942,-2.227206,-0.446519,-1.604906,1.106409,-1.331401,6.34,2,RUN
1759224761.38525,-6.731597,-5.61575,-8.564508,-0.701424,0.789644,-1.486353,6.36,2,RUN
1759224761.40519,-6.783372,-5.680393,-9.720159,0.848718,0.048679,-1.844023,6.38,2,RUN
1759224761.42518,-1.239149,-0.793678,-9.316138,2.246534,0.346931,-2.500591,6.40,2,RUN
1759224761.44520,5.811925,2.163909,4.208707,0.777413,3.529009,-2.008737,6.42,2,RUN
1759224761.46537,5.64029,3.887136,10.830321,-0.843277,4.175635,-0.969515,6.44,2,RUN
1759224761.48526,9.265411,14.022091,6.600964,-0.649874,0.913653,0.795284,6.46,2,RUN
1759224761.50519,8.045864,32.229546,3.028964,1.09811,-3.479299,1.588957,6.48,2,RUN
1759224761.52520,2.113332,36.636074,2.853589,0.254822,-0.350843,-0.244273,6.50,2,RUN
1759224761.54518,-1.646014,12.693159,-0.503231,-0.86328,4.785823,-1.93137,6.52,2,RUN
1759224761.56539,-1.777994,5.789479,0.838569,-0.324209,4.373654,-2.160057,6.54,2,RUN
1759224761.58527,-1.672948,6.054487,0.288352,0.550929,1.384771,-1.716164,6.56,2,RUN
1759224761.60520,-0.840814,17.292421,0.681899,2.112124,-1.784762,-1.921168,6.58,2,RUN
1759224761.62520,2.305467,27.58255,6.199935,1.145054,-8.152371,-3.224153,6.60,2,RUN
1759224761.64526,6.571335,22.402994,6.199636,-0.983835,-10.345262,-2.767156,6.62,2,RUN
1759224761.66537,7.568221,13.270461,4.999991,-3.504234,-5.292669,-2.353802,6.64,2,RUN
1759224761.68524,11.506683,12.39553,2.703652,-4.159155,1.492229,-1.53135,6.66,2,RUN
1759224761.70538,10.308684,9.313594,0.609474,-3.347877,3.476812,-1.014111,6.68,2,RUN
1759224761.72517,5.785888,6.507141,-15.551537,-0.648173,9.809761,-0.875495,6.70,2,RUN
1759224761.74525,7.307403,4.527735,-18.636615,-0.186009,-0.149489,-0.330215,6.72,2,RUN
1759224761.76521,5.975628,-0.665139,-2.94412,-0.228963,-3.53086,0.084179,6.74,2,RUN
1759224761.78522,2.841618,-0.49156,-0.990002,0.241911,-2.698164,0.255183,6.76,2,RUN
1759224761.80524,1.930475,-1.002123,-0.835127,0.758922,-1.66277,0.306479,6.78,2,RUN
1759224761.82518,3.358466,-1.71769,-2.314445,1.145989,-0.062138,0.49377,6.80,2,RUN
1759224761.84525,5.036502,-2.527678,-2.695123,1.622945,0.270574,1.099303,6.82,2,RUN
1759224761.86537,5.320814,0.489165,0.05776,1.934906,-1.192493,2.177193,6.84,2,RUN
1759224761.88531,5.069572,6.330419,1.004517,2.255603,-3.052454,3.050487,6.86,2,RUN
1759224761.90520,17.994371,35.786431,-2.879626,2.740638,-2.296819,6.43316,6.88,2,RUN
1759224761.92517,2.717419,36.283677,-0.641047,3.364526,-1.146257,4.408998,6.90,2,RUN
1759224761.94522,-1.683423,27.381587,0.58239,4.171053,1.575717,2.073603,6.92,2,RUN
1759224761.96538,-3.381959,29.957149,8.694094,1.082993,5.549066,1.267055,6.94,2,RUN
1759224761.98529,-4.88492,22.470181,10.146477,-2.788922,5.682625,1.552418,6.96,2,RUN
1759224762.00442,-7.372944,20.201825,1.716493,-2.917424,2.322319,0.924619,6.98,2,RUN
1759224762.02429,2.063951,13.35336,-8.409783,-0.599965,-1.02614,0.389832,7.00,2,RUN
1759224762.04520,7.689428,8.77864,-3.775806,0.534514,-3.150451,0.034267,7.02,2,RUN
1759224762.06538,2.447772,5.518934,0.635062,0.478487,-2.301534,-0.438452,7.04,2,RUN
1759224762.08527,-4.11653,4.469675,2.040309,-0.093924,-0.66864,-0.936565,7.06,2,RUN
1759224762.10518,-7.526771,2.222418,2.107197,-0.751057,0.566892,-1.081063,7.08,2,RUN
1759224762.12442,-7.803002,-0.815525,0.555904,-0.934523,1.302632,-0.618976,7.10,2,RUN
1759224762.14518,-7.411999,-3.212869,-3.149722,-0.262799,0.1618,-0.562384,7.12,2,RUN
1759224762.16539,-6.203975,-4.321235,-3.495684,0.160328,-0.574363,-0.823399,7.14,2,RUN
1759224762.18525,2.709787,-4.406827,-0.417639,-0.098805,2.171944,-0.757361,7.16,2,RUN
1759224762.20531,12.684929,-1.057788,5.043835,-1.20534,4.137407,0.262512,7.18,2,RUN
1759224762.22473,9.858425,3.700688,7.161207,-1.356558,1.591428,1.445347,7.20,2,RUN
1759224762.24526,7.711275,6.39192,-8.659378,0.393108,3.465966,2.40739,7.22,2,RUN
1759224762.26539,0.519093,15.715989,0.671125,0.127146,1.603641,1.179835,7.24,2,RUN
1759224762.28523,-4.298939,32.806399,-2.543989,1.055194,0.182903,-1.455221,7.26,2,RUN
1759224762.30539,-6.85026,22.166866,-0.444124,1.772341,-0.866345,-1.886109,7.28,2,RUN
1759224762.32473,-5.897218,7.621642,1.261295,1.906028,-1.144325,-2.410782,7.30,2,RUN
1759224762.34462,-5.398925,8.884882,3.206135,1.46659,-2.466789,-3.163339,7.32,2,RUN
1759224762.36519,-2.785654,17.461212,3.590255,1.244114,-3.7911,-3.582348,7.34,2,RUN
1759224762.38531,-0.955137,26.010607,4.996699,0.566764,-5.355829,-3.785121,7.36,2,RUN
1759224762.40519,5.923853,29.621961,8.994118,-1.484612,-6.742784,-2.552485,7.38,2,RUN
1759224762.42495,8.574384,20.766856,8.191611,-3.606205,-2.511558,-1.573812,7.40,2,RUN
1759224762.44522,11.184513,15.462054,5.259762,-5.724559,4.736698,-1.687001,7.42,2,RUN
1759224762.46526,11.25993,13.541605,0.426467,-5.49537,6.804527,-2.103527,7.44,2,RUN
1759224762.48525,13.538462,10.188974,-26.964397,-1.186306,6.751994,-0.96148,7.46,2,RUN
1759224762.50524,12.085631,6.35481,-14.761899,0.696649,-4.052907,-0.162993,7.48,2,RUN
1759224762.52508,5.646725,2.265813,0.77213,0.229046,-4.313795,-0.342295,7.50,2,RUN
1759224762.54519,4.675128,-1.661726,0.971447,-0.12072,-2.50193,-0.419697,7.52,2,RUN
1759224762.56523,7.296479,-3.739444,-3.546561,-0.456978,0.032284,-0.091404,7.54,2,RUN
1759224762.58523,8.656535,-5.672462,-8.016835,0.72028,2.520067,0.677741,7.56,2,RUN
1759224762.60519,3.942652,-1.334019,-3.254618,1.847782,-0.009905,1.630492,7.58,2,RUN
1759224762.62519,3.152116,3.119495,0.441581,2.582112,-3.223501,2.385755,7.60,2,RUN
1759224762.64520,2.741062,6.161029,-0.980126,3.328726,-4.416996,2.673573,7.62,2,RUN
1759224762.66521,10.910976,23.097163,-1.864933,4.176891,-3.546248,3.646465,7.64,2,RUN
1759224762.68525,11.852346,48.302719,1.66008,3.779818,-0.673039,6.105799,7.66,2,RUN
1759224762.70539,-5.096806,36.58819,4.950162,4.547243,6.154012,3.534377,7.68,2,RUN
1759224762.72539,-10.323349,27.574769,12.923003,0.649627,7.890694,1.107674,7.70,2,RUN
1759224762.74527,-8.190414,18.041956,5.752069,-3.54975,3.396633,0.802152,7.72,2,RUN
1759224762.76539,-5.08708,13.463943,-10.963947,-2.181132,0.956795,1.657347,7.74,2,RUN
1759224762.78523,1.575534,11.66455,-2.78296,0.209337,-0.682387,0.450742,7.76,2,RUN
1759224762.80520,6.240487,10.617985,-1.358111,0.268271,-1.949135,-0.254823,7.78,2,RUN
1759224762.82538,4.22397,6.531981,-0.263512,-0.113523,-0.985455,-0.41879,7.80,2,RUN
1759224762.84437,-0.606332,4.383933,-0.286406,-0.52558,0.603391,-0.593505,7.82,2,RUN
1759224762.86519,-4.113238,2.806753,-1.931223,-0.6157,1.905829,-0.620307,7.84,2,RUN
1759224762.88532,-6.532729,-0.532261,-2.101211,-0.037674,1.684255,-0.629498,7.86,2,RUN
1759224762.90527,-6.391471,-0.977283,2.06859,0.483485,-0.465518,-1.167336,7.88,2,RUN
1759224762.92534,-3.382408,-1.69285,4.646996,0.432886,-1.81025,-1.274866,7.90,2,RUN
1759224762.94524,-1.07769,-1.893514,2.405873,-0.034213,-1.219764,-1.194201,7.92,2,RUN
1759224762.96520,1.252467,-1.641225,-0.32636,-0.41706,0.456158,-0.819894,7.94,2,RUN
1759224762.98529,1.881693,1.404349,-0.463428,-0.550548,2.53349,-0.208407,7.96,2,RUN
1759224763.00541,5.814768,5.642535,-7.177966,-0.068677,4.726516,0.742685,7.98,2,RUN
1759224763.02524,-0.856526,13.029096,3.438074,-1.223249,3.589358,1.072793,8.00,2,RUN
1759224763.04473,-4.1499,37.58313,0.818667,1.002286,0.877351,-0.363671,8.02,2,RUN
1759224763.06520,-3.2621,25.490616,3.392434,1.380136,-0.237342,-1.768429,8.04,2,RUN
1759224763.08523,-1.8582,9.743353,1.615039,0.45632,-0.965598,-1.49915,8.06,2,RUN
1759224763.10527,-2.516605,7.541436,0.84246,0.854456,-2.089313,-2.240277,8.08,2,RUN
1759224763.12532,0.045191,12.174815,2.923769,1.104276,-3.831342,-2.760344,8.10,2,RUN
1759224763.14490,0.866851,22.158785,4.096928,0.815645,-4.930882,-3.12236,8.12,2,RUN
1759224763.16541,5.907244,27.370064,7.228095,-0.386164,-4.874082,-2.773657,8.14,2,RUN
1759224763.18526,6.708852,17.313969,6.987478,-1.717344,-4.61768,-1.948694,8.16,2,RUN
1759224763.20541,8.389732,16.118663,3.692308,-2.743221,-0.955112,-1.685597,8.18,2,RUN
1759224763.22532,9.808296,12.159402,1.316212,-4.040484,3.079485,-1.325168,8.20,2,RUN
1759224763.24506,6.540061,7.070526,-3.664326,-4.856498,4.898789,-1.264058,8.22,2,RUN
1759224763.26522,7.003339,5.99134,-36.718973,-0.591796,4.341243,-0.815409,8.24,2,RUN
1759224763.28521,5.312285,2.21718,-0.003142,1.019456,-2.403874,-0.088464,8.26,2,RUN
1759224763.30520,2.957887,1.104026,1.145775,0.467527,-3.877395,0.074203,8.28,2,RUN
1759224763.32521,2.660108,-0.555156,-0.094721,0.430412,-3.244318,0.407232,8.30,2,RUN
1759224763.34521,4.564545,-2.119916,-4.449624,0.719139,-0.429144,0.751205,8.32,2,RUN
1759224763.36521,6.09863,-3.261202,-4.195389,1.404815,3.275752,1.311149,8.34,2,RUN
1759224763.38522,4.943428,-1.454627,-0.3717,1.739164,2.714337,1.929518,8.36,2,RUN
1759224763.40523,3.323601,1.794454,1.051055,2.048888,-2.069206,2.662975,8.38,2,RUN
1759224763.42522,4.373309,6.122273,0.967557,2.722345,-4.720972,2.860426,8.40,2,RUN
1759224763.44520,15.315858,30.069826,-2.273893,3.232328,-3.346851,5.180408,8.42,2,RUN
1759224763.46522,13.167211,49.200694,-0.537798,4.673794,1.275585,4.91299,8.44,2,RUN
1759224763.48522,-5.446659,33.713352,7.577199,3.2266,7.827435,1.820872,8.46,2,RUN
1759224763.50495,-9.588029,28.059445,16.87568,-2.418036,6.955045,0.949131,8.48,2,RUN
1759224763.52521,-8.152107,20.899136,6.974609,-4.249515,2.310249,1.42142,8.50,2,RUN
1759224763.54520,-6.469133,14.515446,2.685396,-3.860808,-1.435003,0.124682,8.52,2,RUN
1759224763.56540,1.886182,9.662399,-10.108469,-1.449404,-1.294927,-0.588374,8.54,2,RUN
1759224763.58529,4.691289,7.936779,-8.399308,0.031854,-1.229576,-0.448343,8.56,2,RUN
1759224763.60540,-2.356194,5.862053,-2.345121,0.090359,-1.436874,-0.835279,8.58,2,RUN
1759224763.62524,-5.38426,3.946393,-0.250643,-0.268709,-0.722443,-1.045357,8.60,2,RUN
1759224763.64532,-6.274155,-0.263961,-1.515979,0.072676,-0.170473,-1.352283,8.62,2,RUN
1759224763.66522,-6.370522,-4.169652,-6.510433,1.045567,-0.869176,-1.950074,8.64,2,RUN
1759224763.68528,0.366462,-3.529203,-2.044798,0.659251,-0.613582,-1.760991,8.66,2,RUN
1759224763.70523,7.930045,-2.147449,5.306,-0.207232,0.662248,-0.635194,8.68,2,RUN
1759224763.72533,7.212084,0.64,3.581127,-0.359819,2.351084,0.30208,8.70,2,RUN
1759224763.74529,0.761955,2.424279,0.892139,-0.155197,2.502789,0.548579,8.72,2,RUN
1759224763.76540,-1.765724,3.353678,0.185102,-0.485971,0.344315,0.646406,8.74,2,RUN
1759224763.78527,-7.942614,13.04795,-13.553127,-0.850368,0.787993,0.962865,8.76,2,RUN
1759224763.80524,-1.729362,22.127361,0.225803,2.960169,1.003095,-0.786555,8.78,2,RUN
1759224763.82532,-5.391892,40.149116,5.179406,0.921932,2.214929,-1.341087,8.80,2,RUN
1759224763.84527,-2.471115,5.952584,3.603573,0.083523,2.354764,-0.275886,8.82,2,RUN
1759224763.86524,-7.601441,6.097433,2.392256,0.627025,0.47315,-2.001954,8.84,2,RUN
1759224763.88525,-4.992808,13.157485,1.264887,1.181063,-1.647904,-3.313896,8.86,2,RUN
1759224763.90541,-0.619949,23.661745,5.257966,1.062404,-4.670018,-3.43493,8.88,2,RUN
1759224763.92523,2.36188,29.315503,6.997354,0.373698,-7.067143,-2.983612,8.90,2,RUN
1759224763.94427,6.267122,21.202601,5.05416,-0.624168,-7.853061,-2.183746,8.92,2,RUN
1759224763.96521,9.243115,12.89098,4.922179,-3.336689,-1.312716,-1.9483,8.94,2,RUN
1759224763.98522,13.964331,13.18846,4.423886,-3.782208,4.07182,-1.50001,8.96,2,RUN
1759224764.00522,10.822989,11.438897,2.420688,-3.231061,3.570432,-1.141036,8.98,2,RUN
1759224764.02521,4.812645,6.079327,-2.199523,-3.77651,7.787572,-0.832645,9.00,2,RUN
1759224764.04446,6.910713,6.774394,-36.09663,0.736432,0.751424,0.206998,9.02,2,RUN
1759224764.06522,5.429451,2.241871,0.355389,0.785106,-3.842061,0.453628,9.04,2,RUN
1759224764.08522,2.550274,0.392948,1.62671,0.496976,-4.161953,0.602333,9.06,2,RUN
1759224764.10522,5.679346,-0.96202,-0.438887,0.385924,-1.53021,1.103604,9.08,2,RUN
1759224764.12523,9.819968,-3.970185,-7.193977,1.168152,2.725683,1.821673,9.10,2,RUN
1759224764.14469,5.07451,-1.49458,-3.308936,1.53503,2.315321,2.463009,9.12,2,RUN
1759224764.16527,2.554763,2.529624,-0.564283,2.013265,-0.277916,3.134287,9.14,2,RUN
1759224764.18505,3.722684,8.189217,-0.304213,2.540539,-3.107044,3.569932,9.16,2,RUN
1759224764.20526,13.065158,27.817032,0.992546,3.316621,-4.435356,6.245383,9.18,2,RUN
1759224764.22522,9.172935,48.160563,0.835427,4.091797,-0.50776,4.837689,9.20,2,RUN
1759224764.24484,-6.46629,30.636504,6.608445,3.524367,7.164873,1.535567,9.22,2,RUN
1759224764.26522,-4.718074,25.786749,15.408932,-1.047022,6.84104,1.344927,9.24,2,RUN
1759224764.28525,-7.111527,17.585112,6.700173,-3.683465,2.715097,1.917741,9.26,2,RUN
1759224764.30522,-2.577657,13.735385,-0.869544,-4.012285,0.389473,0.641643,9.28,2,RUN
1759224764.32529,9.499594,9.995942,-13.945925,-1.276507,-0.295398,0.199156,9.30,2,RUN
1759224764.34520,0.592565,6.686407,-3.52217,0.531917,-2.893291,-0.438668,9.32,2,RUN
1759224764.36529,-4.464139,3.756502,0.833631,0.551417,-3.159497,-0.982584,9.34,2,RUN
1759224764.38532,-6.74267,1.941398,1.979257,0.12583,-1.859015,-1.148307,9.36,2,RUN
1759224764.40544,-6.872406,-0.930147,-0.684742,0.226419,-1.005899,-1.275635,9.38,2,RUN
1759224764.42458,-5.171476,-3.432387,-1.734001,0.611931,-0.850799,-1.279422,9.40,2,RUN
1759224764.44520,-5.247641,-4.68665,-1.942296,0.451958,-0.297117,-1.293376,9.42,2,RUN
1759224764.46523,0.660351,-3.013252,-0.542736,0.005849,1.442795,-1.406848,9.44,2,RUN
1759224764.48531,5.717653,1.727117,2.044798,-0.422558,3.973651,-0.560077,9.46,2,RUN
1759224764.50529,3.014001,4.201974,3.563021,-0.413758,4.089388,-0.008585,9.48,2,RUN
1759224764.52543,1.047014,5.727679,1.099986,-0.213785,1.475178,0.249676,9.50,2,RUN
1759224764.54540,4.139425,24.056938,0.509217,-0.975423,1.456967,1.259155,9.52,2,RUN
1759224764.56522,0.151284,45.756635,2.918981,0.966571,-0.194054,1.041691,9.54,2,RUN
1759224764.58524,-2.589628,10.717644,-1.444153,-0.311003,2.666514,-0.945447,9.56,2,RUN
1759224764.60522,-1.911321,3.937115,-1.62282,-0.177451,3.139122,0.280024,9.58,2,RUN
1759224764.62530,-7.758859,9.02629,0.206051,0.730384,0.043263,-1.067062,9.60,2,RUN
1759224764.64507,-4.33575,14.408755,0.112378,1.881125,-1.555089,-3.224217,9.62,2,RUN
1759224764.66435,0.873584,23.478888,5.860257,2.793952,-3.276157,-3.723241,9.64,2,RUN
1759224764.68525,3.1587,22.192005,8.325986,1.31407,-5.170951,-3.300062,9.66,2,RUN
1759224764.70542,4.718971,19.062634,5.119701,-0.07588,-6.593714,-2.659974,9.68,2,RUN
1759224764.72534,6.415862,14.121151,4.384083,-1.01071,-6.661449,-2.146297,9.70,2,RUN
1759224764.74525,9.79438,14.663737,5.072415,-2.522818,-2.1099,-1.930787,9.72,2,RUN
1759224764.76454,11.083807,11.779323,1.51119,-4.035596,3.062448,-1.983925,9.74,2,RUN
1759224764.78471,6.82123,8.583812,-4.822221,-3.940114,5.192178,-1.618413,9.76,2,RUN
1759224764.80524,2.694375,7.416489,-18.314296,-1.365547,9.798337,-1.710957,9.78,2,RUN
1759224764.82523,7.36202,2.475904,-6.714239,0.746217,-0.724879,-0.772955,9.80,2,RUN
1759224764.84461,5.91712,1.049109,0.090531,0.94476,-4.175236,0.004564,9.82,2,RUN
1759224764.86523,4.568436,-1.745074,-1.264737,0.885006,-3.282203,0.357236,9.84,2,RUN
1759224764.88527,6.144719,-3.165434,-3.639037,0.994096,-0.159609,0.533671,9.86,2,RUN
1759224764.90530,8.359954,-3.799598,-2.801665,1.143948,1.62686,1.073606,9.88,2,RUN
1759224764.92531,6.450279,-1.987038,-0.645537,1.536851,0.89889,1.987427,9.90,2,RUN
1759224764.94527,3.551499,1.267879,0.772878,1.975413,-0.976543,2.949274,9.92,2,RUN
1759224764.96489,6.731448,11.826458,1.153856,2.702662,-3.220221,3.531962,9.94,2,RUN
1759224764.98524,18.668787,46.694564,-0.238373,2.970215,-4.004093,6.923134,9.96,2,RUN
1759224765.00479,-0.833182,44.060942,0.02903,3.589704,-0.292012,5.812014,9.98,2,RUN
1759224765.02514,-9.745897,32.482433,8.494777,3.730743,7.492771,2.078597,10.00,2,RUN
1759224765.04524,-8.10976,21.272781,12.645126,-1.149149,8.620956,1.2248,10.02,2,RUN
1759224765.06524,-7.132925,17.085322,5.904849,-3.897286,3.804112,1.934001,10.04,2,RUN
1759224765.08475,-1.74253,15.542708,0.283264,-3.52767,-0.625993,0.806284,10.06,2,RUN
1759224765.10437,10.451438,11.722311,-10.965144,-1.137217,-1.68759,0.533401,10.08,2,RUN
1759224765.12525,2.276437,7.906252,-4.044555,0.496926,-3.324304,-0.279324,10.10,2,RUN
1759224765.14524,-3.812617,4.618265,0.170437,0.477652,-3.271406,-0.743095,10.12,2,RUN
1759224765.16523,-6.789806,2.121712,1.625813,-0.007696,-1.367592,-1.034211,10.14,2,RUN
1759224765.18524,-6.648848,-0.524929,1.672499,-0.259082,-1.027774,-0.855408,10.16,2,RUN
1759224765.20523,-4.636072,-3.211373,-2.519598,0.412335,-1.656566,-0.40759,10.18,2,RUN
1759224765.22524,-4.728399,-4.654927,-4.592079,0.830594,-2.045886,-0.254556,10.20,2,RUN
1759224765.24525,-3.030311,-7.959823,-5.340566,0.643991,0.793979,-0.184579,10.22,2,RUN
1759224765.26523,8.265083,-4.200028,2.499995,-1.285219,5.026457,-0.215489,10.24,2,RUN
1759224765.28524,4.072537,5.021838,8.180837,-1.812811,4.155152,0.068226,10.26,2,RUN
1759224765.30486,0.653767,5.353136,0.621295,-0.625515,2.661784,0.565686,10.28,2,RUN
1759224765.32456,5.465663,15.746814,0.226102,-0.051375,0.778788,1.189232,10.30,2,RUN
1759224765.34523,9.305813,56.513933,-16.269797,1.392932,1.48446,0.242795,10.32,2,RUN
1759224765.36524,-7.057358,14.239215,2.570475,2.127963,0.818779,-0.007857,10.34,2,RUN
1759224765.38524,-7.718906,5.064485,5.368698,1.396746,0.722581,-1.405741,10.36,2,RUN
1759224765.40525,-7.608623,4.699519,9.05098,0.644681,-1.21604,-2.797771,10.38,2,RUN
1759224765.42533,-1.373224,14.125491,7.297826,0.883014,-5.161944,-3.242918,10.40,2,RUN
1759224765.44524,2.368464,27.976546,5.973234,0.768102,-7.585148,-3.326029,10.42,2,RUN
1759224765.46524,6.818088,27.604247,5.86744,-0.59237,-7.968495,-2.500007,10.44,2,RUN
1759224765.48526,6.6065,14.199112,3.776255,-3.692736,-2.8134,-2.52221,10.46,2,RUN
1759224765.50532,10.039636,10.179697,0.075717,-3.75387,0.385727,-2.029838,10.48,2,RUN
1759224765.52526,10.477475,12.363208,-0.64,-2.844578,1.897039,-1.768395,10.50,2,RUN
1759224765.54525,6.929269,7.074567,-4.439299,-1.934245,5.318401,-1.370273,10.52,2,RUN
1759224765.56528,1.348384,8.728212,-11.913697,-0.727344,4.085091,-0.665464,10.54,2,RUN
1759224765.58525,0.983867,7.745991,-10.720786,0.452902,-1.445176,-0.963388,10.56,2,RUN
1759224765.60524,4.818032,3.695899,-0.802955,0.57403,-2.146491,-0.591585,10.58,2,RUN
1759224765.62528,4.48015,1.272369,1.132906,0.239649,-1.861642,-0.203491,10.60,2,RUN
1759224765.64523,3.769222,-1.433678,0.045939,-0.377155,-0.925294,-0.044186,10.62,2,RUN
1759224765.66522,5.902006,-3.782988,-5.703288,0.438039,2.873698,0.118425,10.64,2,RUN
1759224765.68526,10.557083,-4.829105,-5.756259,1.706991,3.480452,1.288956,10.66,2,RUN
1759224765.70525,8.127566,-3.330335,-0.489165,2.126686,-0.101581,2.616836,10.68,2,RUN
1759224765.72525,4.927716,2.644246,0.029628,2.256552,-3.995559,2.582819,10.70,2,RUN
1759224765.74433,7.930643,15.252711,1.819893,3.06101,-7.494044,3.364465,10.72,2,RUN
1759224765.76435,22.472575,52.566643,5.171176,2.261313,-4.78875,5.987324,10.74,2,RUN
1759224765.78525,-4.124611,36.309116,1.571494,3.92897,3.833919,1.924943,10.76,2,RUN
1759224765.80524,-5.799804,23.739407,10.963349,1.69124,7.812559,0.170716,10.78,2,RUN
1759224765.82531,-6.514024,20.167408,14.491354,-3.444553,4.125439,1.450901,10.80,2,RUN
1759224765.84502,-10.30195,20.025851,5.315876,-4.758414,1.592843,1.857282,10.82,2,RUN
1759224765.86460,-5.887043,17.683723,-5.43798,-2.645373,1.22382,0.798242,10.84,2,RUN
1759224765.88527,6.009297,10.920103,-8.341698,-0.381364,-1.647013,0.419249,10.86,2,RUN
1759224765.90525,1.233762,8.575133,-3.114707,0.145607,-2.603595,-0.276877,10.88,2,RUN
1759224765.92525,-2.687791,6.159832,-0.756418,-0.092371,-2.499161,-0.915458,10.90,2,RUN
1759224765.94526,-4.605097,2.866907,-0.30122,-0.425581,-1.324502,-1.223769,10.92,2,RUN
1759224765.96472,-5.848885,-0.150535,-2.846107,0.282622,-0.648161,-1.118635,10.94,2,RUN
1759224765.98526,-7.519888,-4.651485,-7.797017,1.586947,-0.813104,-1.247545,10.96,2,RUN
1759224766.00525,-5.96231,-5.742942,-4.039617,1.083879,0.200825,-1.380713,10.98,2,RUN
1759224766.02531,-0.825251,-2.760963,-0.420033,-0.260412,2.533942,-0.965225,11.00,2,RUN
1759224766.04530,5.629666,2.582146,4.935946,-1.16483,4.362484,-0.258156,11.02,2,RUN
1759224766.06498,4.616769,5.071667,5.331438,-0.839808,3.255066,0.136617,11.04,2,RUN
1759224766.08525,1.134103,8.829666,2.534562,0.006901,0.752225,0.520349,11.06,2,RUN
1759224766.10529,2.146103,19.453487,2.117671,-0.468125,-0.246998,0.75395,11.08,2,RUN
1759224766.12511,1.272817,31.55468,-0.415843,0.060536,-0.206356,0.384901,11.10,2,RUN
1759224766.14486,2.008137,27.379941,-3.440767,-0.691458,3.363537,-0.519624,11.12,2,RUN
1759224766.16509,-2.83264,6.903531,-0.642843,0.209186,1.800863,0.317418,11.14,2,RUN
1759224766.18528,-7.784597,9.210643,0.59885,0.945947,-0.892911,-0.647801,11.16,2,RUN
1759224766.20545,-5.52881,14.332739,1.576582,1.782653,-0.935086,-2.151774,11.18,2,RUN
1759224766.22531,-3.95986,22.873903,3.193117,2.554189,-0.065206,-3.291385,11.20,2,RUN
1759224766.24531,-0.210989,24.016087,7.496096,1.875474,-1.724662,-3.26391,11.22,2,RUN
1759224766.26525,1.624017,20.107852,9.248202,0.163837,-5.912048,-2.882933,11.24,2,RUN
1759224766.28526,4.749946,15.143326,6.736685,-1.482767,-8.085786,-2.196916,11.26,2,RUN
1759224766.30525,7.958775,15.748759,5.70658,-2.631741,-5.73795,-1.613878,11.28,2,RUN
1759224766.32525,10.433781,12.608764,1.626561,-4.627568,1.339176,-1.5242,11.30,2,RUN
1759224766.34525,10.555885,9.400085,-5.09112,-4.755632,5.796005,-1.560601,11.32,2,RUN
1759224766.36525,8.938902,6.466739,-26.581923,-1.379531,10.144501,-1.189533,11.34,2,RUN
1759224766.38526,8.29965,1.635838,-4.564545,0.804675,-1.694997,-0.117483,11.36,2,RUN
1759224766.40527,4.213346,1.316512,0.225803,0.726973,-4.840214,0.496614,11.38,2,RUN
1759224766.42529,2.231994,-0.252888,-0.172682,0.658844,-4.319157,0.597255,11.40,2,RUN
1759224766.44530,4.621707,-1.947085,-3.7164,0.910176,-1.508244,0.784686,11.42,2,RUN
1759224766.46546,4.786159,-2.827103,-3.256713,1.452853,1.357028,1.2099,11.44,2,RUN
1759224766.48445,3.872172,-1.736095,-0.970549,1.802129,1.672481,1.768945,11.46,2,RUN
1759224766.50528,2.833837,1.603068,0.31364,2.092855,-0.132942,2.538766,11.48,2,RUN
1759224766.52530,3.435829,6.12332,1.176152,2.401555,-1.705389,2.979746,11.50,2,RUN
1759224766.54546,15.478663,35.656696,-0.569072,2.769382,-2.324904,4.422447,11.52,2,RUN
1759224766.56545,5.084087,48.002995,0.035015,2.496455,-0.554929,5.579158,11.54,2,RUN
1759224766.58535,-7.483526,27.824215,6.196194,3.28989,5.313251,2.044957,11.56,2,RUN
1759224766.60545,-2.675221,21.475241,11.16087,0.521008,6.611694,1.037172,11.58,2,RUN
1759224766.62528,-6.48679,18.236335,7.126491,-2.579081,2.295317,1.802907,11.60,2,RUN
1759224766.64544,-5.477036,17.427095,1.672948,-2.618691,-1.105354,0.838134,11.62,2,RUN
1759224766.66534,3.570353,14.90196,-6.335058,-2.066284,-1.004131,-0.113026,11.64,2,RUN
1759224766.68483,4.73618,9.255235,-5.954679,-0.588782,-1.298038,0.094211,11.66,2,RUN
1759224766.70528,-1.409137,6.414665,-2.080112,0.070114,-2.61292,-0.532225,11.68,2,RUN
1759224766.72529,-4.147057,4.756979,0.717512,-0.20863,-2.581317,-0.981569,11.70,2,RUN
1759224766.74530,-5.898714,2.054225,1.467496,-0.501455,-0.860837,-0.869466,11.72,2,RUN
1759224766.76536,-6.178387,-0.471807,-0.33848,-0.368464,0.630124,-0.327641,11.74,2,RUN
1759224766.78506,-6.92059,-3.78239,-7.132327,0.055269,0.265599,0.098071,11.76,2,RUN
1759224766.80550,-6.733692,-4.629787,-6.207566,0.565497,0.285311,-0.192775,11.78,2,RUN
1759224766.82539,2.602647,-2.984971,0.219967,0.383359,2.234732,-0.941165,11.80,2,RUN
1759224766.84546,9.01806,1.520168,7.972093,-0.405527,3.911545,-0.711845,11.82,2,RUN
1759224766.86530,7.264606,4.267814,5.936722,-0.681814,1.532736,0.416987,11.84,2,RUN
1759224766.88522,0.734272,4.783765,0.228197,-0.531909,-0.750546,0.300378,11.86,2,RUN
1759224766.90536,-2.146701,16.724097,-16.281619,-0.202926,4.547835,0.158393,11.88,2,RUN
1759224766.92531,3.966594,28.132468,2.303372,1.597176,-1.002632,0.404137,11.90,2,RUN
1759224766.94528,-2.240823,30.44796,0.553509,0.546126,-0.176304,0.129114,11.92,2,RUN
1759224766.96530,-4.460098,9.652224,-0.802955,1.423428,1.222997,-0.431038,11.94,2,RUN
1759224766.98535,-6.06556,5.210232,1.412878,1.675583,-0.518408,-1.499076,11.96,2,RUN
1759224767.00527,-4.069395,11.245715,2.273893,1.763022,-2.749523,-2.451966,11.98,2,RUN
1759224767.02462,-0.574908,21.455189,6.533028,1.471422,-4.382103,-2.720943,12.00,2,RUN
1759224767.04525,1.268927,24.631846,7.772476,-0.26025,-7.24852,-2.913691,12.02,2,RUN
1759224767.06526,4.808455,21.016003,7.995586,-1.442713,-6.589181,-2.403667,12.04,2,RUN
1759224767.08527,7.974038,13.211055,6.628497,-2.481745,-4.0764,-1.722757,12.06,2,RUN
1759224767.10526,9.259575,14.619744,2.583643,-4.086753,1.625522,-1.440714,12.08,2,RUN
1759224767.12528,11.766454,11.726351,0.671274,-4.55757,4.752567,-0.971088,12.10,2,RUN
1759224767.14529,7.982717,8.428488,-0.767791,-4.073168,6.213359,-1.128139,12.12,2,RUN
1759224767.16545,2.861969,9.816227,-22.926875,-0.843849,10.567687,-0.814862,12.14,2,RUN
1759224767.18532,8.766519,7.116914,-17.124378,0.950656,-1.766134,0.067861,12.16,2,RUN
1759224767.20548,5.158307,2.827103,0.869544,0.785243,-5.045578,0.222666,12.18,2,RUN
1759224767.22536,2.713229,0.811485,0.258125,0.684227,-4.795439,0.313825,12.20,2,RUN
1759224767.24547,4.414908,-1.74657,-2.892345,0.62632,-0.949911,0.283513,12.22,2,RUN
1759224767.26534,4.797531,-3.219453,-4.026,0.983394,2.135874,0.395738,12.24,2,RUN
1759224767.28531,2.686294,-2.477251,-1.350479,1.223646,2.152664,0.627029,12.26,2,RUN
1759224767.30531,2.075773,-1.602768,0.418237,1.423689,0.850243,1.078427,12.28,2,RUN
1759224767.32531,4.162469,-0.191985,1.682376,1.821851,-1.469352,1.983943,12.30,2,RUN
1759224767.34545,9.099014,8.837148,2.905513,3.204828,-5.935999,3.773739,12.32,2,RUN
1759224767.36533,23.617153,44.649766,2.953697,2.995152,-3.62797,7.56059,12.34,2,RUN
1759224767.38530,0.838419,44.824393,1.316362,3.638595,4.250122,3.716171,12.36,2,RUN
1759224767.40536,-7.740304,31.41013,8.178294,1.205139,8.715025,0.986707,12.38,2,RUN
1759224767.42529,-6.447735,20.255844,11.498453,-4.003644,4.999398,1.097384,12.40,2,RUN
1759224767.44547,-7.690774,17.725173,5.849633,-5.121092,-0.082607,1.505396,12.42,2,RUN
1759224767.46530,-6.605303,18.85374,-4.332158,-2.952177,-1.330994,0.19324,12.44,2,RUN
1759224767.48537,6.782773,13.643358,-15.671097,0.332307,-1.898086,-0.081395,12.46,2,RUN
1759224767.50547,0.467468,9.566781,-5.741744,1.05594,-3.362702,-0.828952,12.48,2,RUN
1759224767.52535,-3.110218,7.700501,-1.959205,1.024631,-2.80875,-1.345859,12.50,2,RUN
1759224767.54545,-4.543147,3.985747,0.552013,0.795183,-0.973153,-1.35182,12.52,2,RUN
1759224767.56540,-4.913051,-0.385466,1.56476,0.687903,-0.129408,-0.997175,12.54,2,RUN
1759224767.58446,-3.987693,-3.918261,-0.258125,0.743899,-0.230871,-0.25117,12.56,2,RUN
1759224767.60531,-4.5213,-5.724387,-3.262998,0.31401,1.073919,0.266121,12.58,2,RUN
1759224767.62533,-3.288286,-5.73112,-0.512808,-0.480453,4.424613,0.406768,12.60,2,RUN
1759224767.64540,-1.000327,-5.440823,0.630722,-0.744492,7.324006,0.135729,12.62,2,RUN
1759224767.66539,0.17358,-0.009726,4.115633,-0.173886,4.862329,0.16789,12.64,2,RUN
1759224767.68460,0.523582,2.245612,4.003105,0.437656,1.411253,0.628412,12.66,2,RUN
1759224767.70527,2.697966,7.879916,3.988141,1.518521,-1.834317,0.916725,12.68,2,RUN
1759224767.72534,5.961861,55.252338,2.319532,-0.947777,0.081714,-0.961093,12.70,2,RUN
1759224767.74546,2.277484,27.437701,-3.289932,0.094708,3.945266,-1.511869,12.72,2,RUN
1759224767.76532,-0.733524,5.825691,-0.087089,1.082051,2.967278,-0.986512,12.74,2,RUN
1759224767.78496,-1.803133,3.68737,1.239598,1.596738,0.050916,-1.040699,12.76,2,RUN
1759224767.80539,0.772429,15.283686,0.939275,2.933446,-2.921778,-1.54856,12.78,2,RUN
1759224767.82530,2.619257,26.302101,6.729951,2.903338,-4.745405,-2.621918,12.80,2,RUN
1759224767.84527,8.569446,26.698641,11.687146,0.245143,-6.844346,-2.492944,12.82,2,RUN
1759224767.86532,5.71062,13.769054,10.020033,-2.452062,-7.257795,-2.216125,12.84,2,RUN
1759224767.88498,6.935404,13.549984,7.071724,-4.269797,-2.867111,-2.364982,12.86,2,RUN
1759224767.90547,7.262212,8.929774,1.732205,-4.671922,-0.502922,-2.504784,12.88,2,RUN
1759224767.92540,4.617816,6.32174,-4.571279,-6.129198,1.610855,-1.989352,12.90,2,RUN
1759224767.94546,5.585672,5.474192,-35.864542,0.210485,2.004455,-0.967366,12.92,2,RUN
1759224767.96535,5.043087,2.41141,1.756446,1.074295,-3.382666,-0.069638,12.94,2,RUN
1759224767.98529,2.450615,1.193659,0.030975,0.807863,-3.428843,0.205558,12.96,2,RUN
1759224768.00528,2.079215,-0.311994,-0.513856,0.789197,-2.445066,0.254366,12.98,2,RUN
1759224768.02535,3.612252,-1.813608,-4.705803,0.9875,0.133911,0.39269,13.00,2,RUN
1759224768.04546,3.335721,-2.671031,-3.848978,1.600883,2.665565,0.658839,13.02,2,RUN
1759224768.06534,2.640056,-0.243311,-0.438588,1.965857,1.409172,1.254895,13.04,2,RUN
1759224768.08530,3.808576,2.341978,0.954239,2.484989,-0.949676,1.980531,13.06,2,RUN
1759224768.10529,10.85142,15.462353,0.939126,3.630862,-3.540203,3.180599,13.08,2,RUN
1759224768.12530,20.12117,47.78617,-0.813131,4.086429,-1.673306,6.645537,13.10,2,RUN
1759224768.14534,-2.364573,31.82298,1.158943,3.769745,3.625136,4.693676,13.12,2,RUN
1759224768.16543,-6.507141,27.602601,8.764723,3.074306,8.658723,1.957242,13.14,2,RUN
1759224768.18549,-7.854179,20.468479,9.184008,-2.169117,6.766628,1.701585,13.16,2,RUN
1759224768.20435,-7.49026,16.20695,1.345092,-3.554814,1.123972,2.068709,13.18,2,RUN
1759224768.22537,-4.330662,16.580445,-4.291158,-2.664239,-1.263527,0.386447,13.20,2,RUN
1759224768.24546,6.190657,12.435334,-5.323507,-0.984429,-0.567954,-0.460287,13.22,2,RUN
1759224768.26542,5.423316,7.700052,-2.07278,-0.38485,-1.607455,-0.249331,13.24,2,RUN
1759224768.28535,-2.492514,5.444115,-0.587178,-0.486316,-1.770239,-0.763694,13.26,2,RUN
1759224768.30452,-5.385008,2.743605,0.176123,-0.47933,-1.522058,-1.197793,13.28,2,RUN
1759224768.32535,-6.184971,-0.438737,-3.830274,0.076811,-1.022087,-1.575123,13.30,2,RUN
1759224768.34546,-4.73214,-2.579603,-4.388123,0.966084,-0.59334,-1.926855,13.32,2,RUN
1759224768.36540,-0.077213,-2.365621,1.876007,0.38804,0.07344,-1.485855,13.34,2,RUN
1759224768.38548,4.625149,-1.830517,4.429123,-0.959754,1.556298,-0.759934,13.36,2,RUN
1759224768.40488,5.140201,-2.072032,0.846201,-1.039797,3.135128,-0.324789,13.38,2,RUN
1759224768.42531,4.013879,2.420837,1.404349,-0.553927,2.473617,0.339958,13.40,2,RUN
1759224768.44535,4.015675,10.137499,-0.358831,-0.403042,1.318231,1.34034,13.42,2,RUN
1759224768.46541,0.675315,31.382447,-3.173365,0.150016,0.334977,1.280668,13.44,2,RUN
1759224768.48537,-3.565565,30.094067,-8.911219,0.128611,2.864197,0.502171,13.46,2,RUN
1759224768.50495,-6.046407,11.86312,0.193781,1.630694,1.829013,-0.145081,13.48,2,RUN
1759224768.52533,-5.009268,4.287566,1.842338,1.754406,1.600028,-0.612093,13.50,2,RUN
1759224768.54535,-7.179463,7.172879,2.548628,1.586393,0.437978,-1.588204,13.52,2,RUN
1759224768.56538,-3.259406,13.783269,4.947318,2.057368,-2.032754,-2.996765,13.54,2,RUN
1759224768.58549,1.171812,26.003724,8.110358,1.921815,-5.56474,-3.460498,13.56,2,RUN
1759224768.60507,4.194192,27.421689,10.075698,0.179379,-8.734341,-3.02341,13.58,2,RUN
1759224768.62537,5.124938,16.834829,8.597728,-1.758712,-7.651784,-2.619811,13.60,2,RUN
1759224768.64535,9.711032,14.830134,7.074716,-3.767623,-1.395437,-2.244481,13.62,2,RUN
1759224768.66531,11.644948,13.647249,1.462708,-5.245457,4.182328,-1.899091,13.64,2,RUN
1759224768.68534,9.615264,10.588506,-7.294983,-2.75717,10.691834,-1.830446,13.66,2,RUN
1759224768.70529,8.156596,11.770045,-33.43772,1.143834,-1.440833,-0.974884,13.68,2,RUN
1759224768.72538,8.43163,5.166837,-1.635838,0.328643,-4.951444,-0.808603,13.70,2,RUN
1759224768.74547,6.117933,2.837129,0.974889,0.270638,-3.523527,-0.358871,13.72,2,RUN
1759224768.76542,4.710891,0.33025,0.998382,0.507837,-2.342937,-0.029366,13.74,2,RUN
1759224768.78549,4.141221,-2.142362,0.418536,0.429818,-1.35202,-0.040335,13.76,2,RUN
1759224768.80542,6.18108,-4.105308,-2.289755,0.737529,1.015755,0.14756,13.78,2,RUN
1759224768.82531,7.686884,-3.556437,-3.687968,1.534259,1.70901,1.374047,13.80,2,RUN
1759224768.84551,7.431602,2.833538,-2.199074,1.745334,-0.432256,2.301782,13.82,2,RUN
1759224768.86533,6.12332,14.407108,-0.10325,2.921271,-3.905393,3.673707,13.84,2,RUN
1759224768.88540,13.410522,34.239927,0.139462,4.436685,-5.572334,6.642974,13.86,2,RUN
1759224768.90532,0.339677,34.352305,-0.268749,5.995824,-1.881328,4.580077,13.88,2,RUN
1759224768.92536,-7.000795,37.422719,8.604461,4.300536,6.178587,1.162641,13.90,2,RUN
1759224768.94538,-6.738481,26.554091,16.567576,-1.051735,7.880513,0.837512,13.92,2,RUN
1759224768.96551,-6.039074,19.262549,10.598083,-4.359408,4.517884,1.945391,13.94,2,RUN
1759224768.98547,-7.901015,13.077429,4.591181,-5.18725,-0.068377,1.144356,13.96,2,RUN
1759224769.00534,6.93705,12.27193,-23.51121,-0.465171,-1.305254,0.688759,13.98,2,RUN
1759224769.02533,3.277064,10.64073,-10.276063,1.633875,-4.369266,-0.324894,14.00,2,RUN
1759224769.04550,-3.25387,6.543802,-0.101454,1.220605,-4.398768,-1.226495,14.02,2,RUN
1759224769.06549,-5.034557,2.680758,1.850119,0.863046,-4.449809,-1.849259,14.04,2,RUN
1759224769.08534,-3.932327,0.557999,2.061707,1.106437,-4.554552,-2.259399,14.06,2,RUN
1759224769.10479,-3.042432,-1.814954,0.448314,1.311636,-3.846436,-2.427717,14.08,2,RUN
1759224769.12538,-1.029357,-3.598934,0.657508,0.748579,-1.892654,-2.010072,14.10,2,RUN
1759224769.14550,1.551293,-4.333355,0.543334,-0.275992,1.152138,-1.13903,14.12,2,RUN
1759224769.16540,6.562806,-0.594061,1.893963,-1.476259,3.134222,0.101185,14.14,2,RUN
1759224769.18537,3.657143,1.583315,5.011962,-1.751135,1.369746,0.446691,14.16,2,RUN
1759224769.20539,-0.169839,3.068319,-0.688333,-1.102868,3.697931,1.122989,14.18,2,RUN
1759224769.22533,-4.331111,11.299584,-19.740043,-0.882988,1.933809,2.145189,14.20,2,RUN
1759224769.24537,1.128567,19.104383,5.659743,1.446386,-3.345332,2.427417,14.22,2,RUN
1759224769.26551,-2.559102,33.052552,5.745934,1.638766,-3.678102,-0.179993,14.24,2,RUN
1759224769.28538,-6.197241,24.254759,6.295404,-0.050536,-0.756979,-2.754005,14.26,2,RUN
1759224769.30542,-2.110339,7.846098,4.695927,-1.284686,-1.360512,-3.162804,14.28,2,RUN
1759224769.32530,-0.764947,6.806566,4.047398,-1.769034,-3.350398,-2.651862,14.30,2,RUN
1759224769.34468,-0.908001,13.301137,2.272397,-1.036945,-4.73533,-1.948179,14.32,2,RUN
1759224769.36538,-2.454206,21.321264,3.779397,-1.119384,-3.456756,-2.047038,14.34,2,RUN
1759224769.38531,-1.1356,28.016649,5.770176,-2.325706,-0.497636,-2.054051,14.36,2,RUN
1759224769.40445,1.453131,17.812411,1.797896,-3.962561,2.026895,-2.295573,14.38,2,RUN
1759224769.42532,3.653402,11.293449,0.785747,-5.606598,2.46021,-2.108585,14.40,2,RUN
1759224769.44532,2.50658,9.070134,-9.523685,-3.562675,7.870422,-0.960977,14.42,2,RUN
1759224769.46538,5.516241,7.847894,-17.935862,-0.49023,7.0361,0.589018,14.44,2,RUN
1759224769.48532,2.309507,6.784868,-2.410363,0.362198,1.180485,0.206018,14.46,2,RUN
1759224769.50464,1.784129,2.894739,-0.451906,0.553459,-1.514375,-0.251773,14.48,2,RUN
1759224769.52548,3.248782,1.407042,-0.356137,0.403743,-2.176441,-0.038931,14.50,2,RUN
1759224769.54533,7.341221,0.433051,-1.468543,0.281623,-1.060495,1.218467,14.52,2,RUN
1759224769.56539,12.626271,-2.311602,-7.01112,1.308231,2.912732,2.846178,14.54,2,RUN
1759224769.58532,7.97763,-2.341978,-0.720804,2.042348,2.561486,2.940788,14.56,2,RUN
1759224769.60496,6.700622,-1.205929,0.324863,2.729898,-0.933129,2.521318,14.58,2,RUN
1759224769.62533,5.913229,10.102633,0.022745,3.030246,-2.827778,2.442255,14.60,2,RUN
1759224769.64531,18.069339,37.581335,-0.428861,3.324536,-2.837679,4.831416,14.62,2,RUN
1759224769.66531,2.894291,41.855134,1.045518,2.952937,-2.239896,5.842511,14.64,2,RUN
1759224769.68501,-9.273491,30.788835,10.622325,2.414754,4.316344,2.307745,14.66,2,RUN
1759224769.70501,-6.575376,20.607941,13.092841,-0.637291,6.779552,1.150798,14.68,2,RUN
1759224769.72538,-9.013421,17.233015,4.065055,-2.827181,1.662125,1.973217,14.70,2,RUN
1759224769.74532,-2.949507,16.477045,-0.023194,-2.625612,0.760978,0.958867,14.72,2,RUN
1759224769.76531,6.013337,14.006529,-2.653823,-2.040505,1.392125,0.109936,14.74,2,RUN
1759224769.78532,4.658219,9.087043,-6.490381,-1.022304,-0.395948,-0.331965,14.76,2,RUN
1759224769.80519,0.698658,6.757185,-3.832069,-0.317733,-1.757162,-0.658017,14.78,2,RUN
1759224769.82533,-1.953669,4.493168,-1.242142,-0.153814,-2.069937,-1.099941,14.80,2,RUN
1759224769.84537,-2.875137,1.989881,-1.045967,-0.2112,-1.55178,-1.514554,14.82,2,RUN
1759224769.86534,-4.072687,-0.261716,-3.15047,0.116214,-0.719355,-1.581527,14.84,2,RUN
1759224769.88532,-5.238364,-2.63422,-4.894646,0.887107,-0.777627,-1.717242,14.86,2,RUN
1759224769.90531,-1.934515,-2.191143,-0.048183,0.711457,0.137749,-1.58773,14.88,2,RUN
1759224769.92531,2.400337,-0.872836,2.910302,-0.125538,1.608903,-0.749798,14.90,2,RUN
1759224769.94532,2.255787,0.866851,2.768595,-0.246008,2.814121,0.044147,14.92,2,RUN
1759224769.96533,1.063026,1.552041,2.019958,-0.174814,2.964339,0.437355,14.94,2,RUN
1759224769.98532,-0.244059,5.376928,1.871817,-0.455024,1.500659,0.721221,14.96,2,RUN
1759224770.00533,1.55264,17.455526,1.294665,0.04741,0.375924,1.045087,14.98,2,RUN
1759224770.02436,-0.855777,37.403715,1.543512,-0.082214,0.659405,-0.113601,15.00,2,RUN
1759224770.04530,-2.352752,17.196653,0.528221,-0.922538,5.033763,-1.297064,15.02,2,RUN
1759224770.06535,-1.206229,6.351069,-0.274585,-0.474736,3.292413,-0.761513,15.04,2,RUN
1759224770.08533,-3.826383,8.409633,-0.703596,0.236415,-0.47492,-1.487809,15.06,2,RUN
1759224770.10531,-3.370437,12.630611,-1.267281,1.902928,-2.466177,-2.600696,15.08,2,RUN
1759224770.12454,-1.676989,21.56637,0.499191,3.12608,-3.251162,-3.803183,15.10,2,RUN
1759224770.14537,3.543718,24.315811,4.165163,2.652236,-4.959337,-3.669698,15.12,2,RUN
1759224770.16552,7.797915,21.106683,7.099706,1.002608,-7.404421,-2.18924,15.14,2,RUN
1759224770.18539,9.408315,15.42225,12.157906,-2.079667,-5.32705,-0.997509,15.16,2,RUN
1759224770.20536,9.386019,13.803919,8.346636,-4.742459,2.663008,-0.71239,15.18,2,RUN
1759224770.22471,7.280019,11.245266,1.639878,-4.108824,3.796238,-1.206997,15.20,2,RUN
1759224770.24546,5.81387,8.650849,0.364218,-3.65991,2.476106,-1.372125,15.22,2,RUN
1759224770.26552,10.558878,8.897302,-47.946881,-2.768058,9.082301,-0.592558,15.24,2,RUN
1759224770.28541,7.097012,2.729689,-2.275988,0.987499,-0.780511,0.514114,15.26,2,RUN
1759224770.30545,2.167501,0.834379,0.925509,1.078521,-4.250776,0.563895,15.28,2,RUN
1759224770.32494,2.934543,-0.260369,0.181062,1.100394,-4.762165,0.718864,15.30,2,RUN
1759224770.34545,4.053234,-2.408268,-3.752313,1.116662,-2.723544,0.962739,15.32,2,RUN
1759224770.36441,5.07451,-3.72433,-2.717868,1.64084,1.418686,1.198952,15.34,2,RUN
1759224770.38534,5.084087,-1.849222,0.199766,1.896145,2.045205,1.99527,15.36,2,RUN
1759224770.40534,6.691345,4.172645,0.430358,1.298706,0.280832,3.246336,15.38,2,RUN
1759224770.42512,8.96434,16.08694,0.484676,1.59152,-3.111708,4.244215,15.40,2,RUN
1759224770.44531,12.51958,54.178539,-2.286762,3.993898,1.949196,6.579138,15.42,2,RUN
1759224770.46532,-10.171466,40.244585,7.191284,2.494718,10.023703,2.583987,15.44,2,RUN
1759224770.48537,-8.340201,23.387609,15.177144,-3.051417,5.846246,2.146804,15.46,2,RUN
1759224770.50540,-6.453421,16.134974,4.994305,-4.042922,-0.127513,2.674741,15.48,2,RUN
1759224770.52536,-6.23076,17.487847,-9.849147,-1.575151,1.255159,0.599823,15.50,2,RUN
1759224770.54534,8.749909,14.729727,-8.256404,0.067365,-0.782226,0.342766,15.52,2,RUN
1759224770.56532,4.26108,10.939107,-4.088249,0.603723,-2.641623,-0.492837,15.54,2,RUN
1759224770.58537,0.203956,7.672518,-1.019631,0.767501,-2.47126,-1.171855,15.56,2,RUN
1759224770.60551,-2.242319,3.930381,0.259472,0.74905,-1.696597,-1.465524,15.58,2,RUN
1759224770.62532,-3.566014,0.700154,1.918204,0.646142,-0.737432,-1.514841,15.60,2,RUN
1759224770.64532,-4.615871,-2.688389,2.801814,0.280661,-0.22069,-1.467955,15.62,2,RUN
1759224770.66533,-4.001609,-4.528932,2.838027,-0.453986,0.958459,-1.081252,15.64,2,RUN
1759224770.68534,-3.052009,-5.26455,1.423203,-0.977662,2.359237,-0.864853,15.66,2,RUN
1759224770.70532,0.056413,-4.572925,-0.675015,-0.640873,4.262795,-0.603631,15.68,2,RUN
1759224770.72534,3.76563,0.475399,2.003199,-0.273176,3.78185,-0.357971,15.70,2,RUN
1759224770.74533,3.374178,3.262998,0.968455,-0.401907,0.638365,0.034617,15.72,2,RUN
1759224770.76552,4.427178,12.018593,-2.277634,-0.225115,-0.98281,0.911399,15.74,2,RUN
1759224770.78539,3.43119,31.094245,-3.50975,1.290233,0.890324,0.532351,15.76,2,RUN
1759224770.80533,-2.835034,38.465693,-1.974169,1.725838,1.991634,-0.242985,15.78,2,RUN
1759224770.82533,-6.364536,11.661707,1.058985,1.98935,2.472442,-0.79854,15.80,2,RUN
1759224770.84541,-5.211728,3.518728,3.023278,1.201187,1.466151,-1.228811,15.82,2,RUN
1759224770.86553,-6.999149,7.152079,3.770568,0.833871,-0.407369,-2.568977,15.84,2,RUN
1759224770.88537,-3.15062,16.486922,2.179472,2.128272,-3.073226,-3.430547,15.86,2,RUN
1759224770.90534,-0.224007,26.964846,3.056947,2.744821,-6.400656,-3.708028,15.88,2,RUN
1759224770.92540,5.591808,29.303981,7.863456,0.982114,-8.911411,-2.805905,15.90,2,RUN
1759224770.94541,10.725275,17.541717,8.44809,-2.491245,-3.279724,-1.795793,15.92,2,RUN
1759224770.96553,11.445631,13.044209,8.803629,-4.884925,1.962296,-1.680457,15.94,2,RUN
1759224770.98538,10.439019,11.937938,2.559252,-3.868124,2.761115,-1.909719,15.96,2,RUN
1759224771.00552,8.195951,9.080309,0.601094,-4.533405,4.859697,-1.871739,15.98,2,RUN
1759224771.02553,8.876054,8.488193,-40.318206,-0.435003,2.607144,-0.820616,16.00,2,RUN
1759224771.04533,8.465897,5.001637,-7.68434,0.670002,-4.09628,-0.048139,16.02,2,RUN
1759224771.06536,5.12853,2.245911,1.3213,0.490736,-4.150775,0.314929,16.04,2,RUN
1759224771.08539,2.839822,1.031153,0.038756,0.670103,-2.851571,0.355975,16.06,2,RUN
1759224771.10554,2.369661,-2.195932,-0.805649,0.379222,-0.306326,0.111427,16.08,2,RUN
1759224771.12543,3.169324,-3.075651,-2.829348,0.822929,1.684206,0.264958,16.10,2,RUN
1759224771.14536,3.875913,-2.86152,-2.359037,1.51951,1.204869,0.875111,16.12,2,RUN
1759224771.16553,5.156213,-1.22239,-0.512808,1.844485,-0.548975,2.034628,16.14,2,RUN
1759224771.18538,6.209212,5.177461,1.817798,2.583982,-2.599509,3.226261,16.16,2,RUN
1759224771.20553,14.233978,31.45143,-1.534085,3.52093,-0.699172,6.19932,16.18,2,RUN
1759224771.22471,3.247735,53.538689,-2.692878,4.395354,6.188513,4.857693,16.20,2,RUN
1759224771.24541,-8.395118,32.039506,6.094291,1.588793,7.379512,2.390362,16.22,2,RUN
1759224771.26553,-9.964967,24.854357,10.048315,-2.054792,2.995424,2.089135,16.24,2,RUN
1759224771.28538,-6.959046,15.622914,4.554819,-2.425272,0.02291,2.398036,16.26,2,RUN
1759224771.30542,-8.015039,16.108189,3.346795,-2.438133,-1.123484,0.365418,16.28,2,RUN
1759224771.32489,7.587225,12.017396,-8.077587,-0.753613,-0.883221,0.321765,16.30,2,RUN
1759224771.34539,-4.145111,7.003788,-4.167707,0.869782,-3.411094,-0.4667,16.32,2,RUN
1759224771.36534,-4.705803,3.989339,0.881066,0.996953,-4.165018,-0.98603,16.34,2,RUN
1759224771.38534,-6.484994,2.100313,2.380585,0.477618,-3.421008,-1.041944,16.36,2,RUN
1759224771.40534,-6.072593,-0.718859,2.823961,-0.12406,-0.784598,-0.465512,16.38,2,RUN
1759224771.42488,-4.348169,-4.28592,1.591246,-1.185772,1.47401,0.683583,16.40,2,RUN
1759224771.44533,-10.179996,-9.117569,-12.431742,-0.48363,2.178574,1.020827,16.42,2,RUN
1759224771.46534,-0.545878,-7.297976,-2.555661,0.606842,3.405421,-0.157701,16.44,2,RUN
1759224771.48449,7.171981,2.243966,8.483854,0.113692,4.696422,-0.210493,16.46,2,RUN
1759224771.50534,3.373131,3.792864,4.437054,-0.292129,4.005426,0.378333,16.48,2,RUN
1759224771.52508,1.565808,11.811944,-17.223288,-0.669607,3.337109,-0.083209,16.50,2,RUN
1759224771.54533,3.180398,7.079505,6.699425,0.53594,1.916654,0.725229,16.52,2,RUN
1759224771.56534,2.617461,43.749397,4.276044,2.809808,-2.833431,2.248842,16.54,2,RUN
1759224771.58535,-4.911405,19.539978,6.0699,1.149208,-0.419615,-0.628017,16.56,2,RUN
1759224771.60535,-3.91856,8.324041,4.068646,-0.808836,2.094321,-1.896218,16.58,2,RUN
1759224771.62528,-3.95148,9.684097,2.041356,-1.140088,1.377814,-2.981047,16.60,2,RUN
1759224771.64533,-0.468515,16.941371,-0.04953,0.217191,-1.132809,-3.74816,16.62,2,RUN
1759224771.66535,3.00173,23.027432,2.111387,1.363182,-4.024215,-3.410587,16.64,2,RUN
1759224771.68535,6.93675,24.385842,3.310882,0.967451,-5.81935,-2.831956,16.66,2,RUN
1759224771.70534,7.464971,17.317261,1.99841,-0.92368,-4.292549,-2.623592,16.68,2,RUN
1759224771.72535,8.743475,15.415965,1.478868,-1.861632,-2.423807,-2.4737,16.70,2,RUN
1759224771.74535,11.818228,14.870387,4.089446,-1.817908,0.008638,-1.815659,16.72,2,RUN
1759224771.76536,10.550648,9.89733,3.127127,-1.512934,2.179597,-1.369595,16.74,2,RUN
1759224771.78535,5.630264,5.298518,-1.202039,-3.292303,4.096824,-0.976106,16.76,2,RUN
1759224771.80535,10.575189,6.316802,-31.181783,-1.124833,5.053966,-0.503215,16.78,2,RUN
1759224771.82536,7.516446,2.553715,-0.739808,0.820449,-3.464124,0.48619,16.80,2,RUN
1759224771.84446,1.876007,0.024391,1.030853,0.882739,-5.006855,0.588776,16.82,2,RUN
1759224771.86535,1.621024,-2.294842,0.076315,0.665781,-3.652398,0.310763,16.84,2,RUN
1759224771.88536,1.828871,-3.646968,-2.446126,0.12322,-1.040318,-0.32914,16.86,2,RUN
1759224771.90536,3.356222,-3.177704,-4.78137,0.862898,1.881968,-0.400399,16.88,2,RUN
1759224771.92537,4.297293,-0.193033,-0.382923,1.749064,1.371312,0.484172,16.90,2,RUN
1759224771.94537,4.716577,3.298162,0.921468,2.508877,-0.930784,1.724916,16.92,2,RUN
1759224771.96537,11.584943,21.267244,1.132757,3.85874,-4.288887,2.909457,16.94,2,RUN
1759224771.98544,17.083227,48.737267,0.823605,2.947201,-3.077734,6.221687,16.96,2,RUN
1759224772.00556,-2.109292,28.822297,1.317559,3.226336,0.243985,3.853189,16.98,2,RUN
1759224772.02538,-6.255001,25.92247,9.694721,3.473493,4.312977,1.441666,17.00,2,RUN
1759224772.04483,-4.416105,23.105692,13.728203,0.005964,4.551839,1.346366,17.02,2,RUN
1759224772.06555,-9.412505,19.826833,7.094319,-3.219818,3.645677,1.730876,17.04,2,RUN
1759224772.08542,-8.346486,16.759561,1.692701,-4.609206,1.877701,1.174968,17.06,2,RUN
1759224772.10546,5.719598,10.239103,-11.974749,-2.851199,-0.269714,0.258879,17.08,2,RUN
1759224772.12550,3.68333,6.765565,-7.794024,-0.190006,-2.116189,0.006724,17.10,2,RUN
1759224772.14545,-4.630835,5.359271,-1.395969,0.319,-2.642716,-0.581974,17.12,2,RUN
1759224772.16545,-7.719505,3.65445,0.650026,-0.222611,-1.880372,-0.977413,17.14,2,RUN
1759224772.18537,-8.479364,1.319055,-0.54109,-0.273193,-0.90972,-1.135301,17.16,2,RUN
1759224772.20535,-7.291541,-2.205359,-4.262427,0.640419,-0.149043,-1.502263,17.18,2,RUN
1759224772.22537,-3.770718,-4.521599,-3.483713,0.681568,1.373067,-1.171672,17.20,2,RUN
1759224772.24525,1.901894,-4.587889,1.025167,-0.322816,3.301322,-0.461515,17.22,2,RUN
1759224772.26535,5.002984,-1.632397,5.196016,-1.125244,4.018618,-0.032239,17.24,2,RUN
1759224772.28540,4.434361,1.417367,3.197905,-0.995999,2.836343,0.441929,17.26,2,RUN
1759224772.30538,-0.312443,2.937237,1.005565,-1.181426,1.14673,0.509332,17.28,2,RUN
1759224772.32557,-0.910694,14.023138,-2.483386,0.157187,0.380944,1.203795,17.30,2,RUN
1759224772.34537,-0.709133,33.783981,1.126921,1.118432,0.462218,-0.12556,17.32,2,RUN
1759224772.36555,-2.455703,30.651318,1.182885,-0.060927,3.459746,-1.474597,17.34,2,RUN
1759224772.38542,-3.638887,8.032397,0.914884,0.719506,2.191037,-1.012937,17.36,2,RUN
1759224772.40557,-4.854992,5.922806,0.601094,1.556003,-0.758595,-1.799597,17.38,2,RUN
1759224772.42547,-4.051438,11.661857,-0.16535,2.591453,-2.392144,-2.705204,17.40,2,RUN
1759224772.44538,-1.970877,22.190209,1.167921,2.978983,-3.430151,-3.422594,17.42,2,RUN
1759224772.46538,2.043451,29.108405,4.610484,1.840627,-5.873672,-3.019143,17.44,2,RUN
1759224772.48542,8.139537,23.259519,8.235006,-0.369245,-7.530169,-1.361991,17.46,2,RUN
1759224772.50554,9.887604,15.6907,11.406276,-3.311108,-2.861404,-0.607541,17.48,2,RUN
1759224772.52547,10.25242,13.36593,7.525275,-4.521684,2.525863,-1.279632,17.50,2,RUN
1759224772.54543,8.882787,11.018864,1.47408,-4.592453,3.967427,-2.084726,17.52,2,RUN
1759224772.56555,6.318149,8.767566,-3.455731,-4.173456,11.793411,-1.481667,17.54,2,RUN
1759224772.58501,9.954492,8.628104,-41.786899,1.073504,0.996021,0.028698,17.56,2,RUN
1759224772.60555,6.993313,2.969708,-1.154155,1.328497,-4.999228,0.431958,17.58,2,RUN
1759224772.62539,3.071761,0.236876,1.729811,0.947989,-5.664738,0.404581,17.60,2,RUN
1759224772.64542,3.536984,-1.665616,0.987758,0.37127,-2.733759,0.346905,17.62,2,RUN
1759224772.66556,4.398148,-4.020314,-2.449418,0.460651,1.495683,0.225788,17.64,2,RUN
1759224772.68540,3.737498,-3.894618,-3.161992,1.255395,3.266527,0.467397,17.66,2,RUN
1759224772.70548,3.810222,-1.437269,-0.383072,1.7944,1.462025,1.395939,17.68,2,RUN
1759224772.72539,5.398476,0.975338,0.914435,1.831455,-1.447221,2.693922,17.70,2,RUN
1759224772.74543,4.96752,6.399102,1.638981,2.436458,-4.483934,3.668646,17.72,2,RUN
1759224772.76556,16.483779,36.316747,-1.451784,3.037938,-3.393277,6.838007,17.74,2,RUN
1759224772.78538,3.60462,49.648261,0.562039,4.490989,2.583627,4.266788,17.76,2,RUN
1759224772.80551,-8.636035,34.194587,9.017162,2.195266,7.117218,1.227071,17.78,2,RUN
1759224772.82538,-5.506813,23.292739,15.204078,-2.782459,4.257484,1.36553,17.80,2,RUN
1759224772.84538,-7.078008,16.034268,7.227197,-4.288575,0.74424,1.698464,17.82,2,RUN
1759224772.86538,-7.363068,14.754118,1.570297,-4.242306,-0.629375,0.355251,17.84,2,RUN
1759224772.88507,2.38253,13.018023,-14.469358,-0.964787,-0.637512,-0.049737,17.86,2,RUN
1759224772.90493,-0.467019,7.669825,-6.86268,0.448089,-3.028898,-0.666047,17.88,2,RUN
1759224772.92536,-4.083311,4.36867,-2.99365,0.388112,-3.183589,-1.229845,17.90,2,RUN
1759224772.94438,-5.697003,2.340182,-0.729034,0.062247,-1.079271,-1.482808,17.92,2,RUN
1759224772.96539,-5.445911,0.47061,-2.038962,0.394604,0.465186,-1.570223,17.94,2,RUN
1759224772.98539,-5.467459,-2.959832,-6.072593,1.370842,0.84113,-1.601532,17.96,2,RUN
1759224773.00538,-2.89055,-1.908927,-3.052607,1.101518,1.3951,-1.237969,17.98,2,RUN
1759224773.02538,3.489399,-0.216975,4.461595,-0.587294,2.403466,-0.420465,18.00,2,RUN
1759224773.04456,7.077559,1.351676,6.461651,-1.31932,3.204711,0.407556,18.02,2,RUN
1759224773.06538,3.503914,1.906233,1.897704,-0.51669,2.88164,0.887796,18.04,2,RUN
1759224773.08544,1.746121,11.555465,1.295562,0.670644,1.068341,1.757079,18.06,2,RUN
1759224773.10537,-0.172383,21.238813,1.014992,-0.640247,0.671151,1.018311,18.08,2,RUN
1759224773.12542,-7.287351,26.131963,-6.831705,-0.61804,4.082829,0.076952,18.10,2,RUN
1759224773.14476,-7.303961,13.703363,-2.587683,1.262018,2.657087,-0.422554,18.12,2,RUN
1759224773.16538,-5.707029,6.39596,0.733673,1.757263,0.203016,-1.137997,18.14,2,RUN
1759224773.18538,-4.572476,10.939856,0.552761,2.474199,-1.464581,-2.724677,18.16,2,RUN
1759224773.20520,-1.633743,22.606351,2.942623,3.567645,-3.898754,-3.810745,18.18,2,RUN
1759224773.22537,6.349722,31.446492,11.403283,2.361344,-6.282883,-3.551845,18.20,2,RUN
1759224773.24493,10.075399,21.940614,9.941473,-0.207548,-7.680717,-1.656163,18.22,2,RUN
1759224773.26537,7.648876,13.660267,6.348974,-2.041032,-6.954339,-1.117806,18.24,2,RUN
1759224773.28545,8.647407,12.799701,4.610035,-4.741391,-1.424322,-2.111911,18.26,2,RUN
1759224773.30538,9.994894,11.523293,0.03292,-5.161424,1.626383,-2.311234,18.28,2,RUN
1759224773.32537,5.516839,7.477541,-5.643283,-4.599813,3.085986,-1.533906,18.30,2,RUN
1759224773.34512,2.618508,4.808155,-29.703214,-1.18548,6.542466,-1.160619,18.32,2,RUN
1759224773.36539,6.956353,1.416021,-3.386,0.569181,-2.148679,-0.030431,18.34,2,RUN
1759224773.38547,3.023727,-0.353294,0.182259,0.426428,-4.372813,0.327076,18.36,2,RUN
1759224773.40547,4.846014,-1.268179,-3.405303,0.529559,-3.591258,0.540045,18.38,2,RUN
1759224773.42557,7.474249,-2.920028,-5.479729,1.91078,0.399085,1.332631,18.40,2,RUN
1759224773.44551,4.38528,0.52029,-0.742203,2.387733,0.644715,1.90744,18.42,2,RUN
1759224773.46557,4.214842,4.992808,-0.254683,2.6967,-0.668967,2.516515,18.44,2,RUN
1759224773.48545,9.292046,18.646342,1.77156,2.822689,-2.88963,3.31248,18.46,2,RUN
1759224773.50538,12.945598,34.605791,1.374421,2.642479,-3.452235,6.669301,18.48,2,RUN
1759224773.52537,-1.65978,33.199497,-1.653645,3.783453,-0.747853,5.42612,18.50,2,RUN
1759224773.54552,-8.864831,30.017303,8.691251,4.792099,7.194774,2.081986,18.52,2,RUN
1759224773.56441,-8.372822,27.083508,16.8263,-0.11161,8.496079,0.912181,18.54,2,RUN
1759224773.58484,-8.071303,17.521217,4.875941,-3.608876,3.512401,1.620044,18.56,2,RUN
1759224773.60473,-7.086687,13.640665,1.620426,-3.643324,-0.643325,0.691439,18.58,2,RUN
1759224773.62540,9.652074,10.680983,-14.46008,-1.74777,-1.35605,-0.149733,18.60,2,RUN
1759224773.64537,6.447286,8.221389,-4.803517,0.306061,-1.874682,-0.177697,18.62,2,RUN
1759224773.66537,-3.84853,5.686528,0.256329,0.424247,-2.534201,-0.554792,18.64,2,RUN
1759224773.68493,-7.146093,2.945766,1.386692,-0.147751,-1.893783,-0.81738,18.66,2,RUN
1759224773.70541,-7.707085,-0.358681,-0.436343,-0.314411,-0.94789,-0.649673,18.68,2,RUN
1759224773.72539,-6.752995,-3.74094,-4.686949,0.437427,-1.205077,-0.571358,18.70,2,RUN
1759224773.74538,-5.760449,-6.077082,-4.795436,1.049731,-1.068479,-0.761588,18.72,2,RUN
1759224773.76478,2.53097,-4.564994,1.226579,0.271102,1.308827,-1.139792,18.74,2,RUN
1759224773.78539,11.252748,0.548871,7.117213,-0.8593,4.908713,-0.584167,18.76,2,RUN
1759224773.80539,5.710321,3.69964,6.266524,-1.071634,4.595831,0.414403,18.78,2,RUN
1759224773.82544,-1.15221,4.906168,1.138742,-0.459201,1.589746,0.156806,18.80,2,RUN
1759224773.84475,-1.259949,16.126594,-2.569278,-1.421528,-0.773906,0.04098,18.82,2,RUN
1759224773.86540,4.474314,46.696808,-0.753276,1.100013,-1.844244,0.367024,18.84,2,RUN
1759224773.88530,2.104054,18.19279,-2.066196,-0.043512,4.832115,0.018042,18.86,2,RUN
1759224773.90542,-3.075951,3.844639,-0.61935,0.031566,2.941618,0.748048,18.88,2,RUN
1759224773.92550,-8.498219,8.292467,-0.197821,1.065501,-1.163819,0.036648,18.90,2,RUN
1759224773.94515,-7.607725,9.951499,0.316334,1.920672,-1.853323,-2.425422,18.92,2,RUN
1759224773.96516,-3.36101,18.437148,2.040758,2.747617,-2.602467,-3.801883,18.94,2,RUN
1759224773.98543,0.683694,22.938397,7.23423,1.524576,-6.693846,-3.28678,18.96,2,RUN
1759224774.00539,3.312677,22.835746,9.725546,-0.717251,-9.64379,-2.427881,18.98,2,RUN
1759224774.02539,5.419575,17.891719,7.8247,-2.910569,-7.275939,-1.789357,19.00,2,RUN
1759224774.04538,11.121516,16.256629,3.465158,-5.327892,3.757183,-1.20908,19.02,2,RUN
1759224774.06540,13.138182,14.17517,-0.623241,-4.583068,6.389759,-0.560354,19.04,2,RUN
1759224774.08539,8.411728,7.340622,-6.804471,-1.666911,12.027076,-1.792754,19.06,2,RUN
1759224774.10538,8.279449,5.733963,-23.342119,0.257227,3.904346,-0.849834,19.08,2,RUN
1759224774.12539,11.171943,1.421707,-4.043208,0.574396,-3.492386,0.260622,19.10,2,RUN
1759224774.14542,4.155287,-0.691176,0.898723,0.146933,-5.016778,0.135816,19.12,2,RUN
1759224774.16511,4.113538,-2.681356,-0.335488,-0.224503,-3.315046,0.036474,19.14,2,RUN
1759224774.18539,11.697321,-5.077354,-6.665757,0.872311,0.738015,0.545784,19.16,2,RUN
1759224774.20540,10.5499,-2.605191,-2.222867,1.65304,1.043298,2.150354,19.18,2,RUN
1759224774.22448,5.574749,1.406444,-0.745644,2.223557,-0.786698,3.464567,19.20,2,RUN
1759224774.24539,3.473538,9.212888,0.137816,2.948063,-3.40793,4.351112,19.22,2,RUN
1759224774.26539,13.633482,34.417397,-1.355717,3.501651,-2.787997,8.710553,19.24,2,RUN
1759224774.28540,1.822736,44.675953,-1.822436,4.089778,1.178549,6.646911,19.26,2,RUN
1759224774.30539,-10.465355,34.52349,2.475006,3.571532,7.567706,2.045393,19.28,2,RUN
1759224774.32546,-13.309517,24.861091,12.622082,-0.962415,6.916311,0.13716,19.30,2,RUN
1759224774.34480,-5.828834,14.190433,4.417601,-2.185115,2.811688,1.59955,19.32,2,RUN
1759224774.36539,-1.474828,13.068899,1.075296,-1.558569,0.02284,0.876361,19.34,2,RUN
1759224774.38540,10.98759,14.133421,-4.067599,-0.763548,-0.979365,0.410841,19.36,2,RUN
1759224774.40540,12.710966,12.085032,-4.64131,0.125105,-3.115172,-0.337033,19.38,2,RUN
1759224774.42543,0.990751,8.832958,0.085443,0.216146,-3.542147,-0.93371,19.40,2,RUN
1759224774.44557,-4.777181,5.288642,2.872294,-0.317397,-2.162949,-1.5255,19.42,2,RUN
1759224774.46541,-6.540959,2.153884,2.494459,-0.637616,-0.81988,-1.804216,19.44,2,RUN
1759224774.48544,-7.345261,-1.340154,0.188394,-0.208316,-0.526412,-1.972347,19.46,2,RUN
1759224774.50546,-5.437232,-5.386954,-2.285265,0.308909,-0.662397,-1.497952,19.48,2,RUN
1759224774.52552,-0.310049,-8.482656,-2.059163,0.254025,0.125697,-0.770419,19.50,2,RUN
1759224774.54557,10.73979,-4.155586,0.496797,-0.603562,2.283209,0.075688,19.52,2,RUN
1759224774.56539,11.302278,3.520674,5.715408,-1.402447,3.611825,1.177304,19.54,2,RUN
1759224774.58540,1.18902,3.835361,1.161038,-1.285892,3.539263,0.805698,19.56,2,RUN
1759224774.60558,-2.073379,18.227506,-24.600721,-0.357148,2.760697,0.657499,19.58,2,RUN
1759224774.62540,0.05387,21.093515,1.902044,2.199443,-2.145145,0.127419,19.60,2,RUN
1759224774.64559,-0.799813,36.969466,1.732355,1.975729,-1.358877,-1.184237,19.62,2,RUN
1759224774.66554,-4.589834,12.377274,1.630451,1.979314,0.083135,-1.55014,19.64,2,RUN
1759224774.68545,-5.091868,5.771672,2.788347,1.597648,-0.128661,-2.070896,19.66,2,RUN
1759224774.70551,-4.030489,4.333206,5.868188,0.541446,-2.595793,-2.274077,19.68,2,RUN
1759224774.72552,-1.943792,11.766603,2.955043,0.520921,-3.48543,-2.394814,19.70,2,RUN
1759224774.74547,-1.419762,19.941755,2.908057,0.513024,-3.72272,-2.97919,19.72,2,RUN
1759224774.76466,3.520374,28.969391,5.313631,-0.359269,-4.939865,-2.636879,19.74,2,RUN
1759224774.78541,7.907001,21.771074,7.230489,-2.460086,-3.717648,-1.964247,19.76,2,RUN
1759224774.80542,8.876203,15.39322,5.767033,-5.2149,0.149529,-1.794336,19.78,2,RUN
1759224774.82545,10.861445,14.630817,2.962525,-5.340531,2.40979,-1.717486,19.80,2,RUN
1759224774.84540,7.768436,11.868357,-2.774431,-3.526363,7.693901,-2.225273,19.82,2,RUN
1759224774.86482,7.669376,14.362666,-28.54038,-0.274619,3.153665,-1.149247,19.84,2,RUN
1759224774.88542,8.778789,4.782717,-0.933739,0.429885,-4.457664,-0.623427,19.86,2,RUN
1759224774.90539,6.738181,2.570325,0.123601,0.41079,-3.52712,0.096804,19.88,2,RUN
1759224774.92540,4.943278,0.526724,1.694796,0.255769,-2.608347,0.640469,19.90,2,RUN
1759224774.94539,4.654478,-1.898003,-0.584036,0.270087,-1.974991,0.977298,19.92,2,RUN
1759224774.96503,5.496189,-5.697601,-8.329727,0.597886,2.371134,0.776878,19.94,2,RUN
1759224774.98525,4.664503,-5.307496,-4.922628,1.805523,3.375859,1.133168,19.96,2,RUN
1759224775.00560,3.261202,-0.528071,1.062277,2.167633,-0.076921,2.11008,19.98,2,RUN
1759224775.02547,5.250784,6.430377,1.675343,2.487626,-3.682091,2.687874,20.00,2,RUN
1759224775.04558,19.696798,33.375171,1.817349,3.382608,-7.180844,4.608095,20.02,2,RUN
1759224775.06519,9.434202,53.798908,-1.498022,2.841102,-0.671869,6.934272,20.04,2,RUN
1759224775.08542,-8.074595,31.065066,8.612093,3.756734,7.528037,2.794042,20.06,2,RUN
1759224775.10541,-7.895329,26.212767,12.960861,0.10861,8.512032,1.265685,20.08,2,RUN
1759224775.12542,-9.767445,22.060922,7.629423,-3.863351,3.172927,1.867011,20.10,2,RUN
1759224775.14540,-2.326117,16.489166,-8.159439,-3.394161,0.260262,1.403389,20.12,2,RUN
1759224775.16541,4.540753,13.059023,-6.864176,-0.64157,0.026448,0.759256,20.14,2,RUN
1759224775.18541,2.170643,7.879018,-2.003199,0.190047,-2.572721,-0.18821,20.16,2,RUN
1759224775.20540,-1.3418,4.897938,-0.782156,0.41618,-3.009139,-0.733875,20.18,2,RUN
1759224775.22543,-4.455909,0.932691,0.922665,0.273975,-2.114864,-1.105996,20.20,2,RUN
1759224775.24558,-6.892757,-1.288679,1.304092,-0.219779,-0.644923,-1.19192,20.22,2,RUN
1759224775.26558,-7.720403,-3.650858,-3.836259,-0.14066,-0.547524,-1.277946,20.24,2,RUN
1759224775.28544,-7.521534,-5.053112,-6.307674,0.831256,-0.644194,-1.757434,20.26,2,RUN
1759224775.30561,4.508731,-0.441431,0.400131,0.538465,0.526545,-1.558549,20.28,2,RUN
1759224775.32560,15.148862,2.437297,10.402507,-1.048721,2.885222,-0.022108,20.30,2,RUN
1759224775.34557,7.359028,2.834435,5.384859,-1.626266,3.061572,0.84902,20.32,2,RUN
1759224775.36546,0.155773,2.387019,1.82932,-1.070833,1.406924,0.084024,20.34,2,RUN
1759224775.38445,-2.999486,1.404199,-17.813309,-0.507069,-0.805971,-0.078395,20.36,2,RUN
1759224775.40543,-0.005836,7.288698,5.518485,1.010646,0.158233,-0.069212,20.38,2,RUN
1759224775.42542,-2.027141,24.874708,4.833145,1.859873,-0.417119,0.089539,20.40,2,RUN
1759224775.44548,-9.510667,41.76999,7.241861,2.396279,2.461721,-2.560662,20.42,2,RUN
1759224775.46542,-4.782867,11.71857,3.776703,-1.08307,2.709434,-1.471606,20.44,2,RUN
1759224775.48462,-6.653636,11.593173,0.449212,-0.743179,1.17049,-1.207082,20.46,2,RUN
1759224775.50541,-5.023035,14.695909,-0.108038,0.747167,-1.027073,-3.045646,20.48,2,RUN
1759224775.52541,-0.970549,21.002685,1.782034,2.057062,-3.457803,-4.104889,20.50,2,RUN
1759224775.54540,6.137237,31.029153,6.509535,1.560547,-6.52016,-4.040927,20.52,2,RUN
1759224775.56544,13.4198,22.99092,8.087164,-1.082334,-7.637547,-1.480653,20.54,2,RUN
1759224775.58482,10.287735,12.822446,2.294992,-3.657372,-3.443145,-0.715219,20.56,2,RUN
1759224775.60562,13.054983,11.375002,2.726996,-4.202681,0.628017,-0.933867,20.58,2,RUN
1759224775.62549,10.183737,7.965659,-1.11899,-3.774483,3.082907,-1.545349,20.60,2,RUN
1759224775.64559,7.791331,7.129484,-24.390481,-1.77287,10.743083,-1.745283,20.62,2,RUN
1759224775.66547,6.527492,3.013103,-9.635614,0.444935,-0.333719,-0.208024,20.64,2,RUN
1759224775.68502,3.667468,0.604536,0.262165,0.401144,-3.996777,0.473759,20.66,2,RUN
1759224775.70545,1.663372,0.06599,0.065392,0.470681,-4.198826,0.615824,20.68,2,RUN
1759224775.72545,1.51523,-2.847304,-2.240823,0.696465,-0.072888,0.363277,20.70,2,RUN
1759224775.74543,2.719813,-3.727473,-4.667346,1.048691,1.946964,0.221777,20.72,2,RUN
1759224775.76553,3.860201,-3.459322,-2.665195,1.949224,3.608222,0.661939,20.74,2,RUN
1759224775.78520,5.115661,-1.221492,0.984017,1.896815,0.577571,1.923386,20.76,2,RUN
1759224775.80542,6.749404,2.356343,1.489942,1.889576,-2.57861,3.083485,20.78,2,RUN
1759224775.82542,7.566126,10.661979,1.778593,3.071264,-5.077873,4.328948,20.80,2,RUN
1759224775.84541,20.365528,58.56307,-2.188899,3.729851,-0.9283,6.780451,20.82,2,RUN
1759224775.86545,-4.884022,41.426123,0.324414,4.543965,5.420728,3.101652,20.84,2,RUN
1759224775.88541,-8.650849,31.62082,11.222222,0.389673,5.510784,1.181466,20.86,2,RUN
1759224775.90543,-7.371897,20.671088,11.531523,-3.194564,2.395042,1.490526,20.88,2,RUN
1759224775.92543,-6.991967,16.531514,6.8338,-4.350204,0.536111,1.298345,20.90,2,RUN
1759224775.94541,-1.113154,14.237419,-5.492598,-2.700053,1.174875,0.46633,20.92,2,RUN
1759224775.96545,1.520019,8.617779,-10.736049,0.011554,-1.637013,0.109968,20.94,2,RUN
1759224775.98543,-4.50903,4.828357,-3.93098,0.194033,-2.831965,-0.433357,20.96,2,RUN
1759224776.00542,-5.626075,1.608455,0.27234,-0.386872,-1.961817,-0.754273,20.98,2,RUN
1759224776.02543,-8.108562,-0.238522,-0.967108,-0.458591,-0.052278,-1.081988,21.00,2,RUN
1759224776.04543,-8.126519,-2.090437,-5.063886,0.490548,1.052028,-1.881665,21.02,2,RUN
1759224776.06547,-2.119766,-2.710087,-4.64101,0.749145,0.851457,-1.763103,21.04,2,RUN
1759224776.08543,3.16708,-1.168969,0.093374,-0.222866,0.665666,-1.506807,21.06,2,RUN
1759224776.10545,9.227702,0.421679,5.184644,-0.988554,1.186617,-0.581741,21.08,2,RUN
1759224776.12551,7.31698,3.240103,2.876035,-0.619834,1.35617,0.407493,21.10,2,RUN
1759224776.14545,1.118242,5.244199,2.892196,0.196823,-0.169181,0.846825,21.12,2,RUN
1759224776.16542,-2.03971,9.412953,-1.532289,-0.417624,1.30536,1.120517,21.14,2,RUN
1759224776.18543,-1.567903,17.657237,-0.137218,0.412498,1.43957,0.562002,21.16,2,RUN
1759224776.20541,-6.782923,31.759085,0.896928,-0.209671,2.980376,-0.788932,21.18,2,RUN
1759224776.22542,-6.755988,13.500454,-0.118214,-0.447132,2.993337,-0.922719,21.20,2,RUN
1759224776.24545,-5.368099,8.957307,0.503381,0.279356,0.727892,-1.371778,21.22,2,RUN
1759224776.26546,-6.029498,12.12723,0.191087,1.733863,-1.405928,-2.628117,21.24,2,RUN
1759224776.28543,-3.251176,17.820492,-0.352097,3.116778,-2.774977,-3.281876,21.26,2,RUN
1759224776.30544,-1.157297,23.843256,2.844461,2.839128,-4.493868,-3.560488,21.28,2,RUN
1759224776.32520,5.598691,27.472267,6.58989,0.962874,-7.592806,-2.450819,21.30,2,RUN
1759224776.34452,10.790218,19.920955,9.187599,-2.687743,-4.927003,-1.093436,21.32,2,RUN
1759224776.36543,10.933272,17.509246,8.083423,-4.715437,1.038999,-1.080945,21.34,2,RUN
1759224776.38543,10.387543,13.601011,2.551471,-3.924894,3.11684,-1.839189,21.36,2,RUN
1759224776.40561,7.493552,7.46542,-3.741688,-2.489142,12.388228,-2.638532,21.38,2,RUN
1759224776.42543,6.261286,9.873688,-29.963883,0.788241,3.395955,-0.686135,21.40,2,RUN
1759224776.44546,9.115324,5.567566,-2.899977,1.703948,-5.391851,0.236312,21.42,2,RUN
1759224776.46542,5.247342,3.064578,-0.241216,1.583763,-5.496932,0.338989,21.44,2,RUN
1759224776.48544,4.712687,-0.997784,-2.244714,1.188678,-1.579333,0.08129,21.46,2,RUN
1759224776.50561,4.36448,-2.641553,-2.528876,1.26518,1.191309,0.318867,21.48,2,RUN
1759224776.52553,5.766135,-2.381333,-2.248305,1.643726,2.32139,1.227479,21.50,2,RUN
1759224776.54561,6.306776,-2.44433,-1.300201,2.061221,1.870912,2.285803,21.52,2,RUN
1759224776.56550,5.532551,-0.082301,1.12318,2.348557,-0.309888,3.333663,21.54,2,RUN
1759224776.58469,3.535488,4.384531,1.104176,3.265181,-2.981407,3.708517,21.56,2,RUN
1759224776.60545,22.829311,54.096987,0.363021,3.337065,-2.874312,5.396112,21.58,2,RUN
1759224776.62543,3.698742,29.740174,4.291457,3.027042,-1.510725,4.335462,21.60,2,RUN
1759224776.64532,-1.041627,27.951556,10.504859,2.107327,3.45447,2.445283,21.62,2,RUN
1759224776.66542,-4.823269,23.307104,13.524396,-0.309635,3.637789,2.351568,21.64,2,RUN
1759224776.68483,-7.54398,21.696405,11.312004,-3.461738,2.095024,2.321427,21.66,2,RUN
1759224776.70544,-8.563461,18.661605,5.757456,-5.477061,-0.396275,0.556086,21.68,2,RUN
1759224776.72543,4.531775,13.596222,-11.924022,-4.048487,-1.031069,-0.418192,21.70,2,RUN
1759224776.74557,-1.54441,9.054422,-6.995259,-0.704524,-2.9959,-0.800416,21.72,2,RUN
1759224776.76548,-7.273435,5.084686,0.78859,0.209445,-4.593675,-0.910445,21.74,2,RUN
1759224776.78502,-8.037185,-0.294786,1.343297,-0.699963,-5.087526,-0.389782,21.76,2,RUN
1759224776.80562,-15.059528,-4.300585,-21.916223,1.50321,-5.222109,-1.479066,21.78,2,RUN
1759224776.82545,1.830666,-1.022174,-12.079346,3.204432,-3.753471,-2.494662,21.80,2,RUN
1759224776.84546,8.841188,-1.695843,0.262614,2.219984,-1.594059,-2.043141,21.82,2,RUN
1759224776.86548,6.711995,1.113154,6.481403,-0.27473,1.098062,-0.870401,21.84,2,RUN
1759224776.88527,0.377685,2.340033,3.335422,-1.554901,3.006537,0.118852,21.86,2,RUN
1759224776.90543,-4.313603,3.173814,1.229273,-1.261311,3.819115,1.02825,21.88,2,RUN
1759224776.92551,-4.888511,3.23741,-1.742829,-1.036561,3.056927,1.482083,21.90,2,RUN
1759224776.94546,-3.750816,10.418219,0.201711,-0.007989,3.070868,1.481158,21.92,2,RUN
1759224776.96547,0.22715,22.044313,4.87235,1.591946,-0.944961,1.688488,21.94,2,RUN
1759224776.98546,-7.500884,46.219764,6.419603,1.696295,-0.742466,-0.613682,21.96,2,RUN
1759224777.00544,-4.297891,14.545074,4.369568,-0.707843,1.344828,-3.043901,21.98,2,RUN
1759224777.02550,-0.181211,10.860697,1.525555,-1.664702,-0.243844,-3.138607,22.00,2,RUN
1759224777.04548,0.521637,10.854413,0.932242,-0.401376,-3.354648,-2.522884,22.02,2,RUN
1759224777.06556,1.466748,17.499818,4.143016,0.372743,-4.535419,-2.695528,22.04,2,RUN
1759224777.08551,5.692663,26.216807,6.134842,-0.002604,-4.687218,-3.385094,22.06,2,RUN
1759224777.10563,9.520094,22.455367,6.133496,-1.347534,-5.621076,-2.313655,22.08,2,RUN
1759224777.12550,6.215647,13.947721,5.855768,-3.845285,-2.586057,-2.109113,22.10,2,RUN
1759224777.14562,6.523451,10.178649,3.02657,-6.23573,1.032812,-2.33974,22.12,2,RUN
1759224777.16556,-0.749235,7.924209,-29.714138,-4.182541,5.024041,-2.071727,22.14,2,RUN
1759224777.18550,0.278027,9.182512,-16.108189,0.433103,1.696811,-0.985324,22.16,2,RUN
1759224777.20474,3.218705,4.100669,-3.636493,0.659098,-1.859662,-0.491558,22.18,2,RUN
1759224777.22550,4.371214,2.152836,-0.200065,0.530502,-0.731672,-0.254634,22.20,2,RUN
1759224777.24544,3.558532,0.008978,0.952743,0.133601,-0.960881,-0.028565,22.22,2,RUN
1759224777.26562,4.351761,-1.475427,-0.69372,0.060705,-1.240237,0.376375,22.24,2,RUN
1759224777.28549,8.419659,-5.149329,-8.852411,0.969787,2.168968,0.731816,22.26,2,RUN
1759224777.30560,6.921936,-4.969016,-2.193238,1.80112,3.661912,1.182959,22.28,2,RUN
1759224777.32549,5.978322,0.666336,1.360355,2.111895,0.380735,1.718463,22.30,2,RUN
1759224777.34562,4.633977,3.031209,1.753902,2.66475,-2.614652,2.243679,22.32,2,RUN
1759224777.36555,10.996568,14.763545,2.993201,3.510801,-5.526072,2.587444,22.34,2,RUN
1759224777.38549,26.569803,56.06502,0.683993,3.162461,-3.108216,6.431392,22.36,2,RUN
1759224777.40499,0.950049,38.711248,5.53719,3.374512,2.290285,5.348514,22.38,2,RUN
1759224777.42548,-7.352743,32.548723,12.028619,2.100897,8.471791,2.670395,22.40,2,RUN
1759224777.44558,-10.057742,27.647193,11.435006,-3.573584,4.675351,2.483771,22.42,2,RUN
1759224777.46549,-8.961497,19.264495,3.799598,-4.871824,0.245361,2.404762,22.44,2,RUN
1759224777.48549,-4.364031,15.933113,-4.528034,-2.399944,-0.446444,0.034116,22.46,2,RUN
1759224777.50554,2.154931,9.630975,-7.600244,-1.01954,-2.590946,-0.128635,22.48,2,RUN
1759224777.52545,-4.355502,5.996577,-7.523479,-0.143466,-4.253133,-0.84105,22.50,2,RUN
1759224777.54544,-7.105093,4.467281,-3.92679,0.161666,-3.094465,-1.273193,22.52,2,RUN
1759224777.56551,-7.113472,2.494758,-2.788946,0.370615,-0.760228,-1.340711,22.54,2,RUN
1759224777.58547,-6.579117,-1.357662,-3.282899,0.48451,0.663498,-1.07602,22.56,2,RUN
1759224777.60539,-6.657976,-4.383783,-6.73459,1.142513,1.37527,-1.017046,22.58,2,RUN
1759224777.62547,0.537199,-2.34946,-0.602441,0.24574,2.054721,-0.520886,22.60,2,RUN
1759224777.64550,7.063194,-1.942595,5.662137,-1.450261,3.612803,0.356649,22.62,2,RUN
1759224777.66553,6.68925,-1.305738,3.731962,-1.348215,3.916207,0.741014,22.64,2,RUN
1759224777.68558,-1.179893,3.038092,4.753238,-0.541628,2.856823,0.746875,22.66,2,RUN
1759224777.70549,-3.342455,3.823241,0.958878,0.137294,1.611908,0.537476,22.68,2,RUN
1759224777.72558,-3.819201,-0.259322,-0.910246,-1.222536,-1.82936,0.440495,22.70,2,RUN
1759224777.74564,-4.973056,10.772411,-5.946149,1.474591,-0.48738,-0.244295,22.72,2,RUN
1759224777.76552,-2.901323,54.829163,5.279813,4.511586,-0.263546,-2.763575,22.74,2,RUN
1759224777.78559,2.352004,25.107245,11.913996,-0.737025,2.336001,-1.823644,22.76,2,RUN
1759224777.80548,-2.259977,4.250755,3.276166,-1.318908,2.854064,-1.413558,22.78,2,RUN
1759224777.82557,-4.294001,8.573636,1.072602,-0.453834,0.38476,-1.883064,22.80,2,RUN
1759224777.84563,-4.128202,14.201955,0.127641,0.859688,-1.347874,-2.24437,22.82,2,RUN
1759224777.86549,-3.609409,22.633136,2.354398,1.404752,-3.481576,-2.962605,22.84,2,RUN
1759224777.88550,1.234211,25.098117,5.142296,0.68519,-6.514399,-2.85813,22.86,2,RUN
1759224777.90548,7.166294,25.049784,4.743362,-0.940121,-5.82448,-1.801106,22.88,2,RUN
1759224777.92556,9.334693,16.639253,5.775563,-3.454987,0.801453,-1.357383,22.90,2,RUN
1759224777.94565,12.931981,13.787908,5.715109,-3.718949,4.601725,-1.44794,22.92,2,RUN
1759224777.96554,9.92247,10.644621,1.498172,-3.923493,5.004982,-2.119215,22.94,2,RUN
1759224777.98549,12.033557,9.407267,-12.57749,-2.141361,10.661409,-0.248356,22.96,2,RUN
1759224778.00548,16.208895,4.399495,-22.068255,1.52541,-1.012426,1.15266,22.98,2,RUN
1759224778.02557,6.472724,-0.857723,-1.799542,1.918734,-5.178439,0.857873,23.00,2,RUN
1759224778.04548,1.74253,-2.617012,1.211017,1.398895,-5.659399,0.245297,23.02,2,RUN
1759224778.06560,2.486528,-3.347393,0.949151,0.549415,-3.831888,-0.336379,23.04,2,RUN
1759224778.08550,3.003227,-3.335572,-1.344644,0.248227,-0.595348,-0.328641,23.06,2,RUN
1759224778.10545,3.265541,-2.124106,-3.489998,0.730832,2.061967,0.823334,23.08,2,RUN
1759224778.12467,2.948459,1.324592,-3.273023,1.689281,2.36767,2.291791,23.10,2,RUN
1759224778.14546,2.891298,3.035997,-1.428141,2.73164,1.041299,3.414486,23.12,2,RUN
1759224778.16547,1.056441,4.602254,0.15697,3.30742,-0.61582,3.915977,23.14,2,RUN
1759224778.18547,8.409484,23.621343,0.659453,3.337126,-2.106638,6.640023,23.16,2,RUN
1759224778.22546,-9.910349,37.647923,9.664943,-1.068486,6.692831,1.095814,23.20,2,RUN
1759224778.24545,-3.954922,16.697911,2.89878,-3.214963,4.013774,2.151517,23.22,2,RUN
1759224778.26546,-2.97719,12.681188,-3.164835,-1.866199,2.224402,2.049793,23.24,2,RUN
1759224778.28547,-2.310255,14.949545,-2.79972,-0.564524,0.891111,0.716064,23.26,2,RUN
1759224778.30458,-2.130839,12.017845,-1.993323,0.100315,-2.146491,-0.644691,23.28,2,RUN
1759224778.32483,0.633566,8.857948,-5.137657,0.82755,-2.864314,-1.227426,23.30,2,RUN
1759224778.34457,0.837522,7.536797,-2.309507,0.905972,-2.662617,-1.387534,23.32,2,RUN
1759224778.36547,-1.876007,5.166837,-0.023194,0.750234,-1.342506,-1.538928,23.34,2,RUN
1759224778.38549,-3.887735,0.062997,2.768595,0.391228,0.193945,-1.637053,23.36,2,RUN
1759224778.40482,-3.714155,-1.287183,3.099444,-0.371483,1.078029,-1.426098,23.38,2,RUN
1759224778.42547,-3.750367,-3.225588,0.518494,-1.095848,2.578075,-1.302443,23.40,2,RUN
1759224778.44547,0.399981,-1.595586,0.345513,-1.027135,2.74432,-1.534265,23.42,2,RUN
1759224778.46546,7.1642,2.053178,2.152537,-0.6399,2.322912,-1.28556,23.44,2,RUN
1759224778.48548,4.591331,4.144513,2.81199,-0.234157,0.287372,-0.162952,23.46,2,RUN
1759224778.50494,-0.03696,5.22325,-0.717063,0.439755,-1.28047,0.1455,23.48,2,RUN
1759224778.52548,-0.011821,14.094665,-3.337517,-0.512484,2.524974,0.921406,23.50,2,RUN
1759224778.54547,-1.079935,23.64738,0.307056,1.653176,1.184636,0.924559,23.52,2,RUN
1759224778.56546,-5.811176,27.074829,1.642722,0.262779,2.07018,0.435998,23.54,2,RUN
1759224778.58547,-6.539612,14.063092,0.679355,-0.051067,3.801847,-0.423969,23.56,2,RUN
1759224778.60527,-5.863998,9.386617,0.849343,0.23472,2.343651,-1.569202,23.58,2,RUN
1759224778.62551,-2.951302,11.530326,-0.332944,1.208774,-0.77372,-2.368363,23.60,2,RUN
1759224778.64556,-1.039981,16.85907,-0.054019,2.658584,-2.914955,-2.920625,23.62,2,RUN
1759224778.66567,3.314024,22.972215,2.765153,2.981268,-5.334069,-3.433245,23.64,2,RUN
1759224778.68551,9.033921,21.942709,7.249194,1.162165,-7.757781,-2.236147,23.66,2,RUN
1759224778.70533,8.286482,14.532654,15.791855,-2.679769,-5.256102,-0.997207,23.68,2,RUN
1759224778.72548,8.755446,15.511434,6.89156,-4.884149,-0.031405,-1.427592,23.70,2,RUN
1759224778.74548,8.996362,12.56073,0.563535,-3.587213,0.523533,-1.858827,23.72,2,RUN
1759224778.76548,6.146065,6.399551,-1.144129,-3.515297,1.329877,-1.649854,23.74,2,RUN
1759224778.78549,3.608212,5.843947,-29.550883,-2.956319,12.493439,-1.326424,23.76,2,RUN
1759224778.80546,10.53329,2.558953,-10.082582,0.671554,1.196997,-0.278264,23.78,2,RUN
1759224778.82548,6.158934,-0.708684,-0.954688,1.285186,-4.512862,0.474189,23.80,2,RUN
1759224778.84549,2.728791,-1.121235,0.758962,1.237773,-5.46924,0.760304,23.82,2,RUN
1759224778.86554,6.322638,-3.003526,-5.121796,1.484191,-3.250904,1.055193,23.84,2,RUN
1759224778.88557,6.205322,-3.396025,-3.310882,2.112295,0.580707,1.662374,23.86,2,RUN
1759224778.90560,2.243816,0.951695,-0.50368,2.262263,0.627102,2.223192,23.88,2,RUN
1759224778.92449,3.444358,5.931934,0.131531,2.375558,-0.668535,2.803434,23.90,2,RUN
1759224778.94546,10.567108,22.163873,0.256628,3.515747,-3.161563,3.735313,23.92,2,RUN
1759224778.96548,13.405734,49.774255,-0.73906,3.781881,-1.623601,7.352058,23.94,2,RUN
1759224778.98549,-6.88303,36.209307,2.558055,5.018543,3.123636,4.812798,23.96,2,RUN
1759224779.00546,-12.936021,30.911388,18.677616,2.917229,8.315235,1.051379,23.98,2,RUN
1759224779.02465,-8.111406,25.988909,13.20477,-2.359231,5.059361,0.422954,24.00,2,RUN
1759224779.04555,-6.979846,18.801067,7.763947,-4.104351,1.72044,0.434038,24.02,2,RUN
1759224779.06549,-0.638354,13.359496,0.52837,-4.848821,-0.50608,-0.129735,24.04,2,RUN
1759224779.08555,9.9099,8.112004,-18.524836,-2.125359,0.446802,-0.206089,24.06,2,RUN
1759224779.10528,-2.31654,6.332663,-7.723994,0.121353,-2.895579,-0.951281,24.08,2,RUN
1759224779.12484,-6.103867,3.420267,-2.02744,0.505384,-3.806885,-1.466134,24.10,2,RUN
1759224779.14549,-6.017976,0.431256,-0.046537,0.340608,-2.755698,-1.496551,24.12,2,RUN
1759224779.16549,-5.633856,-2.71712,-3.587113,0.62087,-1.284705,-1.286062,24.14,2,RUN
1759224779.18549,-4.863372,-7.231836,-7.594707,2.006298,-0.657474,-1.296987,24.16,2,RUN
1759224779.20549,-0.713322,-4.295946,0.015712,1.2693,0.999446,-1.435408,24.18,2,RUN
1759224779.22509,5.981314,-1.095198,5.809081,-0.411776,2.733849,-1.400122,24.20,2,RUN
1759224779.24547,10.555736,3.904494,6.22657,-1.820249,4.837882,-0.175233,24.22,2,RUN
1759224779.26548,5.031415,5.365256,4.492271,-0.923771,2.351129,1.027896,24.24,2,RUN
1759224779.28551,-0.369755,6.127061,2.782062,0.288192,-0.609018,0.934443,24.26,2,RUN
1759224779.30552,2.226757,19.033754,2.33315,-0.172487,-2.731818,1.067103,24.28,2,RUN
1759224779.32518,7.614609,47.653741,-1.606509,-3.379052,7.082323,0.206753,24.30,2,RUN
1759224779.34489,0.737115,14.518738,-16.736367,-1.272605,8.306993,0.766297,24.32,2,RUN
1759224779.36550,-10.198701,5.840206,-1.834258,2.701475,-4.605083,2.028126,24.34,2,RUN
1759224779.38549,-7.210737,5.98715,0.230891,3.789242,-4.801909,0.056521,24.36,2,RUN
1759224779.40549,-11.82975,13.007847,6.019622,2.615717,-4.526204,-3.542337,24.38,2,RUN
1759224779.42538,-4.072088,20.516662,8.928876,0.611939,-4.523918,-4.640427,24.40,2,RUN
1759224779.44547,1.063175,24.60147,12.577938,-0.994386,-6.655229,-3.077919,24.42,2,RUN
1759224779.46565,2.193238,21.916522,13.574824,-2.556592,-8.204605,-2.382928,24.44,2,RUN
1759224779.48553,5.303905,14.99713,9.090185,-5.657158,0.066616,-2.351496,24.46,2,RUN
1759224779.50567,11.289708,14.491354,-0.160412,-5.650945,7.820958,-1.907137,24.48,2,RUN
1759224779.52555,15.416414,17.523162,-0.855478,-4.122787,8.315168,0.478786,24.50,2,RUN
1759224779.54550,11.4582,7.394193,-17.691953,-2.072881,10.96612,-0.54738,24.52,2,RUN
1759224779.56486,11.21459,6.868067,-24.58471,0.918423,-3.39687,-0.885391,24.54,2,RUN
1759224779.58550,6.114492,3.677045,0.947505,0.186646,-5.404843,-0.388149,24.56,2,RUN
1759224779.60548,4.518158,1.313669,0.459986,0.036796,-3.762036,-0.170832,24.58,2,RUN
1759224779.62549,5.042338,-1.218499,0.781557,-0.119768,-2.181926,0.089304,24.60,2,RUN
1759224779.64547,6.58166,-3.045873,-2.720262,0.436547,1.023974,0.407866,24.62,2,RUN
1759224779.66550,6.889764,-5.069872,-6.499809,1.486153,3.114333,1.275904,24.64,2,RUN
1759224779.68550,4.223072,-1.258901,-3.063082,1.682451,0.076362,2.516284,24.66,2,RUN
1759224779.70548,1.386093,4.236839,-0.843806,1.9398,-3.894437,2.744668,24.68,2,RUN
1759224779.72549,5.433042,16.827497,0.42108,4.009512,-5.916901,4.771028,24.70,2,RUN
1759224779.74549,12.214469,52.719423,-2.543839,4.788417,-2.259622,6.297417,24.72,2,RUN
1759224779.76494,-8.225729,36.997598,1.819294,5.614573,4.919136,2.241473,24.74,2,RUN
1759224779.78549,-7.9281,27.804462,11.995848,2.583043,6.587997,0.545667,24.76,2,RUN
1759224779.80548,-6.477812,20.390817,17.017088,-2.286303,5.47836,1.060882,24.78,2,RUN
1759224779.82548,-7.3499,18.518252,8.364592,-4.222346,3.083522,1.175104,24.80,2,RUN
1759224779.84493,-0.312443,16.830789,3.298162,-3.941411,1.664678,0.628769,24.82,2,RUN
1759224779.86549,14.671518,11.530625,-15.846473,-0.488739,0.05758,0.638485,24.84,2,RUN
1759224779.88550,2.918681,7.864504,-6.870311,0.873753,-2.925555,-0.214358,24.86,2,RUN
1759224779.90558,-3.342904,5.103241,-1.608006,0.729463,-2.766384,-0.722034,24.88,2,RUN
1759224779.92555,-6.914305,2.798223,1.425897,0.214738,-1.654727,-1.192411,24.90,2,RUN
1759224779.94554,-8.063222,-0.116568,0.351499,0.357268,-0.849104,-1.566754,24.92,2,RUN
1759224779.96569,-5.877615,-2.87798,-0.383372,0.409272,-0.133078,-1.490307,24.94,2,RUN
1759224779.98561,-2.784457,-6.646902,-1.538574,0.185006,0.880333,-1.057327,24.96,2,RUN
1759224780.00550,1.809568,-7.48622,-1.247529,-0.077329,2.3373,-0.800064,24.98,2,RUN
1759224780.02559,6.762872,-0.790087,3.924545,-0.876397,3.244125,-0.285964,25.00,2,RUN
1759224780.04552,5.077054,3.768324,5.230433,-0.5517,1.640632,0.618848,25.02,2,RUN
1759224780.06550,-1.28,3.712659,2.182464,-0.02457,0.907547,0.428207,25.04,2,RUN
1759224780.08559,-0.703746,21.126286,-5.203498,-1.301046,2.134196,0.576349,25.06,2,RUN
1759224780.10558,5.001188,30.130878,1.96968,0.377764,1.577998,0.834931,25.08,2,RUN
1759224780.12461,-1.211765,29.714586,-1.731606,0.386874,3.371181,-0.616636,25.10,2,RUN
1759224780.14552,-3.362507,5.682638,-1.934964,1.055799,1.190726,-0.098016,25.12,2,RUN
1759224780.16556,-7.146692,5.632509,0.806098,1.60837,-1.479775,-1.154821,25.14,2,RUN
1759224780.18555,-3.738247,12.968642,1.752855,2.067325,-1.814681,-2.601818,25.16,2,RUN
1759224780.20555,-0.102202,23.276578,4.532972,2.320359,-2.483309,-3.233517,25.18,2,RUN
1759224780.22487,1.947533,24.509293,7.062895,1.454659,-5.462958,-3.015938,25.20,2,RUN
1759224780.24558,5.90066,17.784728,6.672341,0.164359,-8.534839,-2.127529,25.22,2,RUN
1759224780.26557,8.418163,11.664251,7.917326,-1.767182,-7.981112,-1.574062,25.24,2,RUN
1759224780.28557,11.695226,12.977471,5.092168,-4.545189,1.76704,-1.275219,25.26,2,RUN
1759224780.30570,10.261399,12.149376,1.01559,-4.332357,4.705317,-1.0346,25.28,2,RUN
1759224780.32497,6.7717,8.861389,-1.855207,-4.134795,4.463168,-0.945865,25.30,2,RUN
1759224780.34559,5.598242,10.117298,-45.215546,-0.954179,6.672801,-0.803084,25.32,2,RUN
1759224780.36556,6.181679,3.739444,-0.363919,1.147573,-2.811515,-0.114985,25.34,2,RUN
1759224780.38550,1.812411,1.649156,1.469292,0.972829,-5.108672,0.047998,25.36,2,RUN
1759224780.40549,2.312051,-0.568623,1.431882,0.789473,-4.828643,0.155117,25.38,2,RUN
1759224780.42524,2.822165,-2.338686,-1.580323,0.62264,-2.25755,0.09468,25.40,2,RUN
1759224780.44555,4.270657,-2.664896,-2.957587,1.148123,0.61487,0.280579,25.42,2,RUN
1759224780.46570,4.474015,-1.919252,-0.716465,1.78677,1.302802,0.992625,25.44,2,RUN
1759224780.48555,7.637803,3.234417,0.026187,1.910115,0.545992,2.113633,25.46,2,RUN
1759224780.50551,13.281684,20.531776,-1.555333,2.575776,-1.242757,3.187953,25.48,2,RUN
1759224780.52554,14.394838,42.757898,-2.350657,3.176617,-0.266071,6.405754,25.50,2,RUN
1759224780.54557,-3.361459,34.075475,-0.859518,4.105467,2.047561,5.049687,25.52,2,RUN
1759224780.56556,-9.131186,32.025889,5.231331,3.519882,4.047058,1.813707,25.54,2,RUN
1759224780.58553,-7.789984,23.11063,8.702773,0.251202,4.379826,0.682785,25.56,2,RUN
1759224780.60569,-8.681375,18.906412,7.225551,-1.650031,3.103796,0.818566,25.58,2,RUN
1759224780.62554,-6.857442,14.377331,7.638551,-3.297698,0.803485,0.74769,25.60,2,RUN
1759224780.64549,5.758654,11.037419,-5.365406,-3.952377,-1.05494,0.196105,25.62,2,RUN
1759224780.66550,6.865074,6.73878,-11.320234,-0.685488,-0.205989,0.156891,25.64,2,RUN
1759224780.68554,-5.347599,4.847959,-4.703409,0.535133,-1.81385,-0.352677,25.66,2,RUN
1759224780.70569,-7.768137,1.876007,-0.317381,0.276723,-1.990728,-0.822875,25.68,2,RUN
1759224780.72571,-7.39928,-1.186925,1.76333,0.210303,-0.937068,-1.220285,25.70,2,RUN
1759224780.74556,-4.727351,-3.424157,1.194856,0.275331,-0.527963,-1.408744,25.72,2,RUN
1759224780.76572,-2.763807,-5.8839,-3.052009,0.210536,-0.722391,-1.238203,25.74,2,RUN
1759224780.78556,2.975544,-6.591536,-2.775628,0.228682,1.820461,-0.971259,25.76,2,RUN
1759224780.80554,5.82195,-1.316961,3.258957,-0.020765,5.068947,-0.765937,25.78,2,RUN
1759224780.82570,5.455488,0.850839,6.212953,-0.308261,4.871905,-0.185597,25.80,2,RUN
1759224780.84466,5.418827,4.750246,6.008548,-0.955614,0.020173,0.823824,25.82,2,RUN
1759224780.86565,2.976442,18.986767,2.212242,-0.708522,-2.440895,1.223068,25.84,2,RUN
1759224780.88556,3.197157,55.930496,-4.66166,-1.21989,2.435458,0.342019,25.86,2,RUN
1759224780.90570,-3.705177,12.547861,-3.602525,-0.706839,5.420452,0.099148,25.88,2,RUN
1759224780.92572,-4.515764,1.649455,-1.097891,0.020713,0.649704,0.713569,25.90,2,RUN
1759224780.94559,-5.624878,4.589086,-0.273238,0.973245,-2.736334,0.318821,25.92,2,RUN
1759224780.96556,-7.756316,12.141446,1.364695,1.771902,-3.010046,-1.826935,25.94,2,RUN
1759224780.98555,-5.591508,23.02818,3.306542,2.095504,-2.310927,-4.467277,25.96,2,RUN
1759224781.00553,0.961571,26.010308,4.477307,2.030896,-2.516256,-4.98638,25.98,2,RUN
1759224781.02478,5.550957,21.573253,6.451925,1.378168,-4.57616,-3.219528,26.00,2,RUN
1759224781.04502,7.655609,14.08045,6.105065,-0.122674,-5.914915,-1.629749,26.02,2,RUN
1759224781.06553,10.284144,12.808829,8.125621,-4.225262,-0.574241,-0.812305,26.04,2,RUN
1759224781.08555,9.908104,14.327501,2.507777,-4.336598,1.311277,-1.274677,26.06,2,RUN
1759224781.10559,8.923339,11.168502,-0.584036,-4.243783,4.33311,-1.675042,26.08,2,RUN
1759224781.12564,6.726061,7.73372,-16.50817,-1.608766,11.28427,-1.217454,26.10,2,RUN
1759224781.14526,9.734824,3.509451,-19.311182,0.505523,-0.457051,-0.011949,26.12,2,RUN
1759224781.16571,6.061819,-0.440982,-2.7873,0.789524,-4.932974,0.541553,26.14,2,RUN
1759224781.18552,1.984045,-0.905457,-0.379481,0.652699,-4.746103,0.539921,26.16,2,RUN
1759224781.20570,4.135684,-2.096124,-5.05835,1.408239,-0.872895,0.754767,26.18,2,RUN
1759224781.22571,3.586963,-2.363975,-2.287809,1.868951,0.098149,1.041648,26.20,2,RUN
1759224781.24538,3.642479,-0.284012,0.28506,2.052227,-1.103135,1.813246,26.22,2,RUN
1759224781.26551,5.210681,2.651279,0.908899,2.122409,-2.49045,2.819474,26.24,2,RUN
1759224781.28555,11.946168,20.283676,-0.19423,2.641479,-2.082598,5.698135,26.26,2,RUN
1759224781.30557,11.750891,39.265955,-0.41719,3.137265,-0.741503,5.25834,26.28,2,RUN
1759224781.32569,-1.552939,27.571776,-0.461183,4.603984,1.551268,2.611713,26.30,2,RUN
1759224781.34559,-5.552303,28.207586,6.067206,3.519791,5.037371,0.744898,26.32,2,RUN
1759224781.36540,-3.858705,22.816443,11.503391,-0.580225,4.342371,1.262297,26.34,2,RUN
1759224781.38562,-6.589292,18.772037,7.781754,-2.668723,2.614905,1.290048,26.36,2,RUN
1759224781.40570,-7.005883,16.011523,4.369717,-3.593792,0.706984,0.672878,26.38,2,RUN
1759224781.42556,1.23032,12.794913,-3.258359,-2.45473,-0.663953,0.098172,26.40,2,RUN
1759224781.44563,8.17171,9.132233,-9.978135,0.041242,-1.260463,-0.164093,26.42,2,RUN
1759224781.46571,-1.426196,7.157017,-3.927688,0.468877,-1.580661,-0.545454,26.44,2,RUN
1759224781.48558,-5.97084,5.084087,-0.238373,0.136877,-1.191855,-0.802593,26.46,2,RUN
1759224781.50554,-7.133225,1.98614,0.202909,0.22201,-0.851826,-0.949365,26.48,2,RUN
1759224781.52552,-6.035483,-1.63509,-0.893187,0.410225,-1.111148,-1.037928,26.50,2,RUN
1759224781.54552,-4.197335,-4.187758,-3.292775,0.609018,-0.864928,-1.095667,26.52,2,RUN
1759224781.56554,-0.658405,-5.826589,-1.706318,0.267781,1.653542,-1.090074,26.54,2,RUN
1759224781.58554,4.516213,-2.610727,3.636643,-0.334201,4.052923,-0.6551,26.56,2,RUN
1759224781.60478,6.167463,2.310554,5.042338,-0.801464,3.576325,0.49486,26.58,2,RUN
1759224781.62552,1.925986,6.159233,0.932691,-1.590098,2.895031,0.961216,26.60,2,RUN
1759224781.64553,1.336413,19.210476,-1.35003,-0.413638,1.991679,1.621704,26.62,2,RUN
1759224781.66552,-0.68145,34.887409,-3.025373,-0.153568,2.88236,0.126638,26.64,2,RUN
1759224781.68553,-4.911555,20.2325,-3.721338,1.212803,2.428501,-0.788374,26.66,2,RUN
1759224781.70554,-4.815637,7.420678,0.438139,1.989306,0.241159,-1.40561,26.68,2,RUN
1759224781.72552,-4.874595,5.302558,2.253243,2.166417,-1.885696,-2.306699,26.70,2,RUN
1759224781.74551,-1.392228,12.053908,4.623203,1.798857,-4.588453,-2.607788,26.72,2,RUN
1759224781.76555,1.477671,23.756915,6.016778,1.210336,-6.102411,-2.765516,26.74,2,RUN
1759224781.78559,4.981436,27.077373,5.687127,0.49923,-7.189327,-2.503608,26.76,2,RUN
1759224781.80571,7.464373,18.083405,4.867113,-0.512529,-6.428609,-1.910519,26.78,2,RUN
1759224781.82559,11.285967,11.903522,5.788731,-2.843538,1.097055,-1.596409,26.80,2,RUN
1759224781.84556,13.380894,11.985224,4.996849,-3.670378,4.972579,-1.264251,26.82,2,RUN
1759224781.86569,11.291504,13.137433,1.520318,-2.92076,3.779046,-0.853294,26.84,2,RUN
1759224781.88556,5.986402,9.123704,-0.60678,-4.089866,7.735136,-0.80263,26.86,2,RUN
1759224781.90554,2.520945,9.885958,-32.253637,-0.355433,3.109577,-0.691633,26.88,2,RUN
1759224781.92556,6.533627,2.028787,0.046687,0.480011,-4.530941,0.07834,26.90,2,RUN
1759224781.94467,4.397251,0.447267,-0.240617,0.502537,-5.609185,0.36974,26.92,2,RUN
1759224781.96552,4.78152,-1.87062,-4.154838,0.690372,-3.351539,0.541046,26.94,2,RUN
1759224781.98553,7.013066,-3.712659,-3.940407,1.39075,0.165294,0.764883,26.96,2,RUN
1759224782.00552,4.651635,-2.303521,-0.695067,1.983314,0.841321,1.277732,26.98,2,RUN
1759224782.02553,4.069694,0.092925,0.321571,2.236961,-0.05183,2.039636,27.00,2,RUN
1759224782.04476,5.62383,5.307047,0.590769,2.437849,-1.734936,2.925855,27.02,2,RUN
1759224782.06555,12.167333,28.546515,-1.783082,2.478618,-1.724383,4.039462,27.04,2,RUN
1759224782.08560,9.328408,49.815705,-1.198298,2.782092,-0.382953,6.221339,27.06,2,RUN
1759224782.10556,-9.962423,32.451458,7.693019,3.839472,6.858576,2.820619,27.08,2,RUN
1759224782.12537,-6.506842,24.58067,18.000057,-0.344963,8.396931,1.006835,27.10,2,RUN
1759224782.14497,-7.716063,17.775451,8.255656,-3.831414,4.170887,1.336558,27.12,2,RUN
1759224782.16554,-4.655525,15.300295,2.259827,-4.330304,0.65971,0.646861,27.14,2,RUN
1759224782.18499,10.448446,11.977143,-16.455348,-2.494499,-0.593371,-0.331978,27.16,2,RUN
1759224782.20555,6.00376,7.766042,-7.201759,0.009338,-2.771643,-0.696209,27.18,2,RUN
1759224782.22553,-2.472911,5.546019,-1.934665,0.636841,-3.778454,-1.291911,27.20,2,RUN
1759224782.24514,-5.563376,3.714454,0.105345,0.485431,-3.341891,-1.7553,27.22,2,RUN
1759224782.26554,-5.654356,0.686238,0.012121,0.362214,-2.118153,-1.61377,27.24,2,RUN
1759224782.28558,-4.74007,-2.417545,-0.065392,0.73224,-1.022922,-1.387881,27.26,2,RUN
1759224782.30557,-3.828029,-4.998495,-1.770512,0.960036,-0.321721,-1.063111,27.28,2,RUN
1759224782.32553,-0.452205,-5.818808,-0.658705,0.458835,0.576954,-0.880194,27.30,2,RUN
1759224782.34528,6.438158,-1.389385,3.867085,-0.851942,3.160338,-0.588757,27.32,2,RUN
1759224782.36554,5.562329,2.982726,2.639757,-1.08903,4.472483,0.211106,27.34,2,RUN
1759224782.38555,2.593519,4.344578,2.819023,-0.540309,2.495294,0.629192,27.36,2,RUN
1759224782.40553,1.818695,15.939846,2.434604,-1.31759,-0.18823,0.986159,27.38,2,RUN
1759224782.42555,6.683564,43.630435,0.082899,-0.379879,-1.32265,1.379714,27.40,2,RUN
1759224782.44554,0.390105,21.557541,-4.538509,-0.780156,3.982054,-0.399583,27.42,2,RUN
1759224782.46554,-4.542249,5.968745,-2.575562,0.078545,2.764781,0.114861,27.44,2,RUN
1759224782.48561,-7.93214,6.310367,-0.003292,0.913878,-1.756349,0.311481,27.46,2,RUN
1759224782.50553,-8.331074,9.413552,1.005864,1.554088,-3.511632,-1.612453,27.48,2,RUN
1759224782.52501,-6.430826,17.729363,3.156605,1.860072,-4.128228,-3.770042,27.50,2,RUN
1759224782.54559,-2.013374,22.68521,4.345775,1.7855,-4.920332,-4.890847,27.52,2,RUN
1759224782.56554,4.247613,24.297705,7.009923,1.129016,-5.804813,-4.134364,27.54,2,RUN
1759224782.58555,8.344391,17.688063,7.332392,-0.763448,-6.422578,-2.46467,27.56,2,RUN
1759224782.60532,11.058219,12.999168,7.637054,-3.480249,-1.72397,-1.333771,27.58,2,RUN
1759224782.62555,12.485163,15.75669,2.497452,-4.475659,1.922369,-1.052433,27.60,2,RUN
1759224782.64492,11.353304,12.870779,-0.462081,-3.537597,2.157209,-1.310733,27.62,2,RUN
1759224782.66454,8.24578,6.299294,-13.331064,-3.450147,8.144127,-1.751499,27.64,2,RUN
1759224782.68555,9.613019,4.061015,-28.601881,-0.939414,5.925014,-0.88012,27.66,2,RUN
1759224782.70555,7.602488,0.760608,-1.114351,0.916497,-3.489104,0.54629,27.68,2,RUN
1759224782.72556,2.316989,-0.599149,0.849193,0.692103,-5.059291,0.992024,27.70,2,RUN
1759224782.74553,1.832163,-1.660229,-2.375198,0.724779,-4.136415,0.936721,27.72,2,RUN
1759224782.76472,2.799271,-2.946813,-4.549582,1.691107,-0.278724,0.928763,27.74,2,RUN
1759224782.78555,1.806126,-1.909376,-0.651821,2.343642,1.460655,1.512268,27.76,2,RUN
1759224782.80525,1.952621,0.484527,1.088763,2.299289,0.937298,1.961006,27.78,2,RUN
1759224782.82554,2.701557,5.449353,1.381454,2.182616,-1.661382,2.869396,27.80,2,RUN
1759224782.84487,17.703924,36.48883,-0.895581,2.591765,-2.544686,4.751556,27.82,2,RUN
1759224782.86490,2.632275,41.973647,-1.540818,2.75558,-0.640094,6.599016,27.84,2,RUN
1759224782.88555,-6.4003,27.577911,1.993472,3.649042,6.418147,2.206143,27.86,2,RUN
1759224782.90554,-5.645827,26.139744,14.80305,-0.566445,6.139357,1.158936,27.88,2,RUN
1759224782.92554,-6.350919,18.276288,8.71235,-3.107216,3.720276,1.243024,27.90,2,RUN
1759224782.94553,-4.385729,17.328483,3.634697,-3.411854,-0.483472,0.572601,27.92,2,RUN
1759224782.96508,7.332991,16.254534,-7.369951,-1.717428,-0.274877,0.435645,27.94,2,RUN
1759224782.98555,9.479841,11.425879,-7.171083,0.147188,-2.21842,-0.203868,27.96,2,RUN
1759224783.00556,-1.064821,7.595605,-3.553295,0.697224,-3.472069,-0.681121,27.98,2,RUN
1759224783.02555,-5.62802,5.300164,0.180463,0.566103,-2.797038,-1.137092,28.00,2,RUN
1759224783.04553,-6.764817,2.311153,2.411859,0.414698,-0.659311,-1.098129,28.02,2,RUN
1759224783.06534,-5.959916,-0.766593,1.85416,0.133668,0.134796,-0.712324,28.04,2,RUN
1759224783.08555,-3.524265,-2.9109,0.490362,-0.263681,0.478623,-0.006612,28.06,2,RUN
1759224783.10555,-4.506187,-5.400122,-4.569633,0.129302,1.857758,0.161824,28.08,2,RUN
1759224783.12558,1.195156,-5.048174,0.796371,-0.005604,4.651778,0.031926,28.10,2,RUN
1759224783.14555,3.45214,-1.003919,8.110957,-0.540506,3.54785,0.051065,28.12,2,RUN
1759224783.16548,0.9496,1.681178,4.531476,-0.064441,1.271807,-0.058911,28.14,2,RUN
1759224783.18556,-0.122852,3.283049,0.515202,-2.173112,0.174096,-0.342614,28.16,2,RUN
1759224783.20515,4.179678,17.820342,-0.897526,0.17272,-1.999498,0.059747,28.18,2,RUN
1759224783.22556,14.843302,51.86978,-3.123984,0.916326,3.773241,0.345886,28.20,2,RUN
1759224783.24554,-0.300772,13.325378,-0.320374,1.0806,4.697988,-0.238213,28.22,2,RUN
1759224783.26555,-5.195567,5.584026,2.057966,0.690431,1.380095,-0.288064,28.24,2,RUN
1759224783.28556,-6.114192,5.970989,0.83812,1.087979,-0.72624,-1.484755,28.26,2,RUN
1759224783.30555,-4.411616,10.792163,0.754772,2.018015,-2.618467,-2.805731,28.28,2,RUN
1759224783.32555,-0.956932,21.667076,3.498677,2.320017,-5.46656,-3.701787,28.30,2,RUN
1759224783.34557,4.862624,26.300754,6.892757,0.77466,-8.453314,-3.109103,28.32,2,RUN
1759224783.36556,6.865673,19.059042,7.290943,-1.712088,-9.164575,-2.403865,28.34,2,RUN
1759224783.38557,9.540744,12.786833,4.69488,-4.094061,-1.933911,-2.028381,28.36,2,RUN
1759224783.40558,12.777405,11.164911,2.012326,-3.556723,3.007398,-1.833216,28.38,2,RUN
1759224783.42493,12.51524,10.064176,0.055067,-2.836746,4.164894,-1.433196,28.40,2,RUN
1759224783.44473,7.411102,5.931186,-3.390339,-2.799486,9.185452,-0.938984,28.42,2,RUN
1759224783.46563,4.85589,7.186496,-27.59093,0.300513,2.680165,-0.263933,28.44,2,RUN
1759224783.48557,6.526743,1.831265,-4.853496,0.816545,-4.146428,0.324183,28.46,2,RUN
1759224783.50560,3.31552,-0.108936,0.859219,0.468348,-5.250205,0.516346,28.48,2,RUN
1759224783.52563,2.816778,-1.086219,-0.774375,0.780241,-3.402698,0.681731,28.50,2,RUN
1759224783.54573,4.855142,-2.374749,-4.726304,1.661428,0.151814,0.846235,28.52,2,RUN
1759224783.56559,3.149123,-1.752406,-0.864606,2.060687,0.419299,1.371251,28.54,2,RUN
1759224783.58557,2.928857,0.955436,1.037288,2.304788,-0.960132,2.139866,28.56,2,RUN
1759224783.60576,5.872977,6.885275,1.217003,2.623162,-2.752627,3.27014,28.58,2,RUN
1759224783.62560,24.635587,40.661924,0.278775,1.992704,-0.993273,6.793559,28.60,2,RUN
1759224783.64556,3.983952,31.439309,1.426795,2.593537,0.448685,4.345973,28.62,2,RUN
1759224783.66556,-2.624644,25.973796,0.801908,3.836824,4.521439,2.417603,28.64,2,RUN
1759224783.68557,-5.208735,22.981942,10.441562,0.871352,6.206117,1.859962,28.66,2,RUN
1759224783.70556,-7.500286,18.513164,5.667225,-2.30613,4.504796,1.724976,28.68,2,RUN
1759224783.72562,-7.134122,16.038158,1.978508,-2.848808,0.954752,1.025509,28.70,2,RUN
1759224783.74555,7.013664,12.20998,-9.218873,-1.520103,-0.975702,0.089326,28.72,2,RUN
1759224783.76551,8.530391,8.493879,-4.351761,-0.256006,-1.452043,0.117941,28.74,2,RUN
1759224783.78520,1.027412,6.500706,-1.628656,0.059847,-1.952034,-0.607513,28.76,2,RUN
1759224783.80559,-5.18599,4.947767,-0.369306,-0.21509,-1.487754,-1.081261,28.78,2,RUN
1759224783.82566,-7.922862,3.104082,-0.845901,-0.158284,-0.59705,-1.506035,28.80,2,RUN
1759224783.84573,-7.611915,-0.706738,-0.172233,0.10531,0.234325,-1.736189,28.82,2,RUN
1759224783.86475,-5.205294,-3.347692,-1.460912,0.473906,0.110988,-1.914018,28.84,2,RUN
1759224783.88561,0.968305,-3.797054,1.794155,0.320218,0.339987,-1.625495,28.86,2,RUN
1759224783.90563,5.957522,-1.831115,3.948188,-0.059157,1.798672,-0.92285,28.88,2,RUN
1759224783.92555,6.712893,1.522563,4.556764,-0.439665,1.897213,0.059107,28.90,2,RUN
1759224783.94576,2.000954,2.25055,-0.16909,-0.264662,1.937991,0.290732,28.92,2,RUN
1759224783.96484,1.921646,14.560038,-4.33964,-1.618942,4.719689,0.310399,28.94,2,RUN
1759224783.98557,7.650671,32.805351,1.72577,0.880789,-0.101347,1.454727,28.96,2,RUN
1759224784.00556,-0.947206,29.431173,-3.194912,0.347231,1.447743,0.19666,28.98,2,RUN
1759224784.02556,-5.765537,6.959495,-1.184232,1.288949,2.028388,-0.273142,29.00,2,RUN
1759224784.04557,-5.907244,5.900809,0.566079,1.604838,-0.011199,-0.730225,29.02,2,RUN
1759224784.06502,-5.476287,8.618976,1.889474,1.68688,-1.494328,-2.435476,29.04,2,RUN
1759224784.08557,-0.216526,19.579332,4.00954,1.933849,-4.181852,-3.526578,29.06,2,RUN
1759224784.10556,4.783914,25.640104,7.273734,1.332364,-7.280509,-3.344603,29.08,2,RUN
1759224784.12556,5.340416,20.17908,7.943063,-0.260862,-9.549969,-2.683733,29.10,2,RUN
1759224784.14561,7.946804,14.277073,6.85011,-2.015405,-7.977045,-1.993669,29.12,2,RUN
1759224784.16520,13.868862,12.49474,5.922207,-4.166181,0.652439,-1.234542,29.14,2,RUN
1759224784.18526,11.436054,9.491064,1.749413,-4.276383,4.784162,-0.936256,29.16,2,RUN
1759224784.20526,8.035539,7.860912,-0.000599,-3.889508,4.689965,-1.00466,29.18,2,RUN
1759224784.22498,1.987038,9.270498,-35.947142,-3.434745,11.945208,-0.909173,29.20,2,RUN
1759224784.24557,8.982596,4.869507,-10.203938,1.198804,0.57013,-0.374336,29.22,2,RUN
1759224784.26549,4.516213,0.998831,1.373374,0.947325,-4.831365,0.116072,29.24,2,RUN
1759224784.28559,2.67582,-0.538246,1.051952,0.654868,-5.40767,0.161492,29.26,2,RUN
1759224784.30567,4.616919,-1.637335,-1.549497,0.607365,-3.655414,0.275053,29.28,2,RUN
1759224784.32557,6.801179,-2.119018,-3.328988,1.095174,-0.243204,0.667871,29.30,2,RUN
1759224784.34556,3.606416,0.937779,-0.69776,1.849844,0.808387,1.593865,29.32,2,RUN
1759224784.36559,2.753631,4.937442,0.424971,2.384168,-0.274875,1.893882,29.34,2,RUN
1759224784.38558,14.875624,25.12969,0.538695,2.703254,-2.099128,3.443677,29.36,2,RUN
1759224784.40556,7.851335,33.122733,-0.138116,2.461848,-0.326243,6.442324,29.38,2,RUN
1759224784.42556,-1.720533,24.719534,-1.260996,3.280711,1.871503,4.784003,29.40,2,RUN
1759224784.44556,-5.411943,28.592155,5.775563,4.029191,4.443264,2.571916,29.42,2,RUN
1759224784.46556,-4.693982,25.907058,10.880001,0.826092,6.032959,1.428777,29.44,2,RUN
1759224784.48559,-4.253299,20.833595,8.652196,-2.379057,5.245327,1.28592,29.46,2,RUN
1759224784.50564,-0.49949,15.840637,5.76853,-3.240649,-0.37363,0.629745,29.48,2,RUN
1759224784.52560,10.043676,11.765257,-11.69777,-2.950099,-1.898236,-0.218024,29.50,2,RUN
1759224784.54561,7.5974,7.749133,-6.571635,-0.348423,-1.603076,-0.031727,29.52,2,RUN
1759224784.56561,-4.371363,6.366781,-1.604265,0.317687,-3.025294,-0.589076,29.54,2,RUN
1759224784.58558,-7.298724,4.547337,1.632995,0.02598,-2.376845,-0.75985,29.56,2,RUN
1759224784.60563,-7.409755,1.971326,0.896479,0.201608,-0.775547,-0.39791,29.58,2,RUN
1759224784.62565,-4.947767,-1.514033,1.315464,-0.059578,0.018111,0.09529,29.60,2,RUN
1759224784.64557,-4.528782,-4.510826,-2.787,0.274063,0.235376,0.316194,29.62,2,RUN
1759224784.66576,-2.896236,-7.823503,-6.060772,0.809586,2.096238,0.102734,29.64,2,RUN
1759224784.68492,3.613449,-3.569006,4.05488,0.206305,4.498901,-0.16793,29.66,2,RUN
1759224784.70558,2.987515,0.34671,6.689699,-0.362528,3.729516,-0.189649,29.68,2,RUN
1759224784.72561,0.06599,2.344522,3.021782,-1.738853,1.719479,-0.52551,29.70,2,RUN
1759224784.74577,1.985841,9.427169,-0.7431,-0.472636,-0.003851,0.041134,29.72,2,RUN
1759224784.76562,13.679271,48.982972,-2.71712,0.272543,3.047391,0.587308,29.74,2,RUN
1759224784.78561,1.778443,24.349779,-3.40635,0.789492,4.414708,-0.026235,29.76,2,RUN
1759224784.80576,-3.924396,7.248894,1.343746,1.048235,0.832644,0.004901,29.78,2,RUN
1759224784.82565,-6.66022,6.78427,2.270152,1.223967,-1.847711,-1.75558,29.80,2,RUN
1759224784.84575,-4.447828,10.048764,2.102408,1.717332,-3.603993,-3.196962,29.82,2,RUN
1759224784.86561,0.379631,19.804238,4.161571,1.759805,-5.543235,-3.732334,29.84,2,RUN
1759224784.88528,3.984999,24.627506,5.32246,0.804878,-6.625227,-3.069775,29.86,2,RUN
1759224784.90564,6.750452,20.168306,7.831284,-1.114609,-6.57415,-2.307341,29.88,2,RUN
1759224784.92561,7.691223,14.037803,4.171896,-2.98797,-2.684592,-2.000886,29.90,2,RUN
1759224784.94576,11.890204,12.505813,2.298284,-3.434748,2.39026,-1.594623,29.92,2,RUN
1759224784.96558,12.55654,9.782558,1.533935,-3.010437,3.832653,-1.523797,29.94,2,RUN
1759224784.98560,7.756016,5.746683,-0.370054,-3.788168,6.926911,-1.246009,29.96,2,RUN
1759224785.00564,5.711518,6.108207,-19.657144,-0.767278,8.645865,-0.763171,29.98,2,RUN
1759224785.02557,12.54023,2.901174,-11.802516,0.796823,-2.221857,0.11603,30.00,2,RUN
1759224785.04562,5.245845,-0.357185,-0.085293,0.480949,-4.987948,0.380546,30.02,2,RUN
1759224785.06565,3.083732,-1.621922,0.159065,0.100444,-4.257225,0.232268,30.04,2,RUN
1759224785.08560,5.522376,-3.968689,-5.416582,0.890068,0.722885,0.090375,30.06,2,RUN
1759224785.10558,7.740753,-2.249502,-3.621978,1.923275,1.759404,1.09933,30.08,2,RUN
1759224785.12566,5.402516,0.894085,0.22311,2.107498,-0.6352,2.300465,30.10,2,RUN
1759224785.14568,6.573131,6.656928,1.100734,2.424514,-3.810723,3.200793,30.12,2,RUN
1759224785.16564,18.062306,29.343036,1.032649,2.936234,-4.771617,6.974362,30.14,2,RUN
1759224785.18560,10.048315,37.50053,0.26441,3.382415,-2.094412,5.48786,30.16,2,RUN
1759224785.20559,-1.134852,30.725987,0.427964,4.932884,2.384184,2.903685,30.18,2,RUN
1759224785.22566,-4.316297,29.882031,9.85603,2.73638,4.76515,1.047257,30.20,2,RUN
1759224785.24565,-4.764312,23.11497,14.405911,-1.729161,5.535343,0.614646,30.22,2,RUN
1759224785.26559,-5.532252,20.304626,7.992743,-4.070024,3.613599,0.90731,30.24,2,RUN
1759224785.28538,-2.39884,14.705636,4.875642,-4.648657,-1.726986,0.064867,30.26,2,RUN
1759224785.30558,6.401796,10.945542,-15.595979,-1.240768,-1.423375,-0.258275,30.28,2,RUN
1759224785.32559,2.944718,7.76275,-8.073398,0.440218,-2.659307,-0.498892,30.30,2,RUN
1759224785.34559,-4.669741,6.014085,-1.869572,0.29651,-2.858717,-1.066652,30.32,2,RUN
1759224785.36559,-6.436662,3.589357,-0.333093,0.021846,-1.897529,-1.290923,30.34,2,RUN
1759224785.38561,-6.166117,-0.823755,-0.513257,-0.0844,-1.354728,-1.313838,30.36,2,RUN
1759224785.40492,-5.883451,-3.931578,-5.439925,0.787882,-1.292513,-1.568485,30.38,2,RUN
1759224785.42558,-2.412457,-6.712743,-5.33892,1.103545,0.185998,-1.722733,30.40,2,RUN
1759224785.44557,2.687342,-0.894833,2.644545,0.533806,1.581982,-1.670149,30.42,2,RUN
1759224785.46558,3.335572,0.565481,3.677793,0.269258,3.086936,-0.916846,30.44,2,RUN
1759224785.48559,0.168342,1.444003,1.699434,0.39051,2.195941,-0.265621,30.46,2,RUN
1759224785.50559,0.360028,13.296498,-0.996437,-1.52915,2.327806,0.309706,30.48,2,RUN
1759224785.52562,5.973683,32.528222,1.115249,0.102283,-0.003312,1.461905,30.50,2,RUN
1759224785.54561,-0.684143,36.562452,-0.479589,0.81322,2.609567,0.180138,30.52,2,RUN
1759224785.56562,-2.239177,6.781875,1.053898,0.725088,5.03853,-0.678522,30.54,2,RUN
1759224785.58559,-3.879953,3.805434,2.536806,0.540158,3.277653,-0.762776,30.56,2,RUN
1759224785.60561,-4.052037,10.329933,1.145625,0.769888,0.256572,-1.836021,30.58,2,RUN
1759224785.62561,-0.888398,21.213973,2.881122,1.421409,-3.298989,-2.663075,30.60,2,RUN
1759224785.64560,1.374272,24.252215,4.291008,1.51595,-5.873592,-3.154654,30.62,2,RUN
1759224785.66559,5.611709,20.64565,6.828413,0.198062,-8.222155,-2.613546,30.64,2,RUN
1759224785.68469,6.373215,13.587543,5.464167,-1.808608,-7.330322,-1.95633,30.66,2,RUN
1759224785.70559,13.220482,12.335974,5.424662,-4.137503,0.260067,-1.44274,30.68,2,RUN
1759224785.72561,11.207707,13.538612,0.522385,-3.760795,4.076568,-1.102638,30.70,2,RUN
1759224785.74579,8.249222,10.371083,-0.482881,-3.609369,4.882477,-1.48616,30.72,2,RUN
1759224785.76559,9.622446,10.0751,-30.425814,-3.056697,10.691017,-1.37227,30.74,2,RUN
1759224785.78490,9.727941,3.757251,-8.314913,1.102394,-0.747238,-0.308256,30.76,2,RUN
1759224785.80511,4.006248,0.580744,1.002123,0.779232,-5.617173,-0.169459,30.78,2,RUN
1759224785.82571,2.951901,-1.092654,0.593762,0.273479,-6.030858,-0.112837,30.80,2,RUN
1759224785.84562,6.505794,-3.34051,-5.267693,0.314666,-3.130452,-0.080063,30.82,2,RUN
1759224785.86562,7.187244,-3.813664,-4.9756,1.497725,1.418269,0.276084,30.84,2,RUN
1759224785.88507,5.21487,-0.043395,-0.174029,2.083339,1.540896,1.366813,30.86,2,RUN
1759224785.90560,3.087323,2.416198,0.958878,2.214856,-0.670899,2.471293,30.88,2,RUN
1759224785.92568,6.562656,11.571925,1.248277,2.64745,-3.615996,3.348149,30.90,2,RUN
1759224785.94566,19.205238,43.528681,-1.124826,3.267491,-4.420587,6.859126,30.92,2,RUN
1759224785.96562,-0.462829,34.3544,-0.122703,3.970083,0.310853,5.14678,30.94,2,RUN
1759224785.98527,-7.557447,25.87698,11.426926,3.726593,5.580971,1.737316,30.96,2,RUN
1759224786.00476,-2.334945,21.191528,14.764593,0.227286,5.518209,0.741954,30.98,2,RUN
1759224786.02559,-5.300613,18.529026,7.133374,-2.744193,3.443389,1.336796,31.00,2,RUN
1759224786.04561,-5.626524,16.809241,3.627365,-3.858582,0.887444,1.015848,31.02,2,RUN
1759224786.06559,10.050709,13.318046,-16.02903,-2.587549,0.299808,0.047793,31.04,2,RUN
1759224786.08541,5.796213,8.10153,-7.087735,0.011159,-1.654615,-0.180928,31.06,2,RUN
1759224786.10560,-3.102287,6.061221,-1.829619,0.435186,-3.158226,-0.73244,31.08,2,RUN
1759224786.12569,-6.233154,4.238635,1.531691,0.159344,-2.587527,-1.15089,31.10,2,RUN
1759224786.14567,-6.465392,2.147749,1.361403,-0.157995,-1.314762,-1.339198,31.12,2,RUN
1759224786.16561,-5.608717,-1.456273,-0.650325,-0.064292,-0.493026,-1.070353,31.14,2,RUN
1759224786.18561,-6.7922,-5.321712,-7.229591,0.588012,-0.420134,-0.822938,31.16,2,RUN
1759224786.20567,1.835604,-3.883994,-1.632696,0.547146,1.379524,-0.982563,31.18,2,RUN
1759224786.22580,6.012289,0.047136,4.844817,-0.151808,4.146041,-0.39857,31.20,2,RUN
1759224786.24561,3.689614,2.008885,5.654805,-0.398592,4.889202,0.667008,31.22,2,RUN
1759224786.26566,0.78021,4.194342,4.254047,-0.981367,2.544815,1.340391,31.24,2,RUN
1759224786.28562,0.254683,13.8943,0.835127,-1.092566,1.437626,1.227113,31.26,2,RUN
1759224786.30560,6.120178,38.453123,-3.478775,-0.654322,2.376601,0.385992,31.28,2,RUN
1759224786.32561,1.016638,23.65157,-3.654001,1.008082,2.481696,-1.221968,31.30,2,RUN
1759224786.34579,-0.232686,7.749283,-0.515502,1.497316,-1.356133,-1.352048,31.32,2,RUN
1759224786.36573,-2.734478,8.995913,0.436643,1.966526,-3.771328,-2.246642,31.34,2,RUN
1759224786.38565,-1.108964,11.965621,1.116446,2.31315,-5.6264,-2.700651,31.36,2,RUN
1759224786.40477,1.001973,18.985421,2.974347,2.161542,-6.389667,-2.814438,31.38,2,RUN
1759224786.42576,2.495656,19.915119,4.403835,0.492934,-7.4029,-2.556045,31.40,2,RUN
1759224786.44578,4.867711,17.923443,7.59336,-0.748748,-6.243552,-1.796689,31.42,2,RUN
1759224786.46572,8.96015,15.714193,10.242544,-2.758147,0.74265,-0.96762,31.44,2,RUN
1759224786.48578,11.292851,14.556896,7.586627,-3.81831,5.091881,-0.507608,31.46,2,RUN
1759224786.50572,7.154473,11.187356,1.77964,-3.783061,5.146235,-0.78524,31.48,2,RUN
1759224786.52576,4.605546,8.806323,0.241216,-4.091874,4.447772,-1.423104,31.50,2,RUN
1759224786.54576,4.71957,7.786991,-16.825252,-1.794879,6.182706,-1.019243,31.52,2,RUN
1759224786.56571,11.189301,3.702932,-14.891037,0.730422,-1.163542,-0.319274,31.54,2,RUN
1759224786.58581,2.954146,2.048688,-0.811934,1.104734,-2.779204,-0.200862,31.56,2,RUN
1759224786.60517,2.220173,0.764499,-0.001796,1.297257,-2.832524,0.022406,31.58,2,RUN
1759224786.62564,2.08939,-0.307805,0.144849,1.364282,-2.523133,0.207973,31.60,2,RUN
1759224786.64579,2.98931,-0.995689,-0.723199,1.200698,-1.105776,0.276647,31.62,2,RUN
1759224786.66570,5.389348,-1.106869,-0.269797,1.453392,-1.261895,0.81505,31.64,2,RUN
1759224786.68581,7.819912,0.197821,0.722151,1.806871,-2.811591,1.739447,31.66,2,RUN
1759224786.70564,10.528502,8.221838,0.471807,2.892596,-4.047228,2.707096,31.68,2,RUN
1759224786.72572,27.530177,42.518029,-2.27943,3.251609,-0.448849,5.473134,31.70,2,RUN
1759224786.74582,3.610306,26.904392,0.814477,4.300878,0.404316,3.778091,31.72,2,RUN
1759224786.76568,-0.011522,26.978463,3.169773,4.486378,2.66248,2.598329,31.74,2,RUN
1759224786.78564,-3.215263,27.545889,9.779117,1.405387,5.383658,2.00106,31.76,2,RUN
1759224786.80552,-8.053945,23.902812,10.3226,-2.54614,4.958737,1.399001,31.78,2,RUN
1759224786.82573,-10.403554,22.366632,5.23971,-4.244461,1.425416,0.720765,31.80,2,RUN
