SamplingTime,AccelerationX,AccelerationY,AccelerationZ,GyroX,GyroY,GyroZ,Durations,Subject,Activity
1759319638.36846,1.695095,37.150827,-1.012598,-5.315883,-3.731637,0.282212,4.68,4,RUN
1759319638.38777,-3.150919,26.821194,-8.897003,-3.742187,-1.873086,1.134569,4.70,4,RUN
1759319638.40810,-5.639991,19.789423,-6.469731,-3.269153,-2.695226,2.044836,4.72,4,RUN
1759319638.42875,-7.518092,12.101642,-8.129661,-2.744629,-0.847018,2.426888,4.74,4,RUN
1759319638.44818,-8.312519,2.943222,-10.506804,-1.560832,2.13825,1.263921,4.76,4,RUN
1759319638.46833,-4.69907,5.825691,-2.078167,-0.725194,3.167104,0.073261,4.78,4,RUN
1759319638.48872,-2.294693,0.599598,-2.415301,-1.505521,2.466877,-0.224824,4.80,4,RUN
1759319638.50871,2.35769,-0.179266,-2.356343,-0.282353,2.602622,-0.578463,4.82,4,RUN
1759319638.52873,3.664625,3.518579,6.936301,-0.494584,1.824238,-0.355258,4.84,4,RUN
1759319638.54804,3.327042,1.912668,5.305551,-0.15026,-0.088949,0.055615,4.86,4,RUN
1759319638.56819,2.796428,-0.744447,1.145925,1.599117,-0.530191,0.813146,4.88,4,RUN
1759319638.58872,1.84997,-2.892645,3.932925,3.971425,-0.706571,0.975957,4.90,4,RUN
1759319638.60855,-2.622848,2.53546,1.998859,4.073777,-3.601947,0.105262,4.92,4,RUN
1759319638.62875,-4.239533,8.496872,-2.957737,4.151949,-2.995,-1.213385,4.94,4,RUN
1759319638.64788,-14.941315,39.641994,-10.841244,3.334233,0.16803,-0.184929,4.96,4,RUN
1759319638.66803,-10.31467,35.754409,-10.437971,2.75009,5.296474,1.017528,4.98,4,RUN
1759319638.68872,-5.460276,23.344065,-2.006191,1.797469,5.54261,-0.74726,5.00,4,RUN
1759319638.70870,-2.070984,18.564939,-1.199196,1.474883,3.38562,-0.933767,5.02,4,RUN
1759319638.72875,7.316082,22.501605,2.67582,0.952957,0.839712,-0.928092,5.04,4,RUN
1759319638.74778,8.511537,17.348236,1.862839,0.828334,-0.670555,0.120983,5.06,4,RUN
1759319638.76789,7.655161,8.87755,8.501062,0.996244,-2.785781,0.561494,5.08,4,RUN
1759319638.78875,-1.224335,-2.107197,4.598214,1.964068,-5.399232,0.107109,5.10,4,RUN
1759319638.80775,-2.729839,-9.434202,0.58239,1.58557,-5.166624,0.303666,5.12,4,RUN
1759319638.82873,-3.117251,-13.280936,0.350751,-0.259409,-3.364718,-0.343296,5.14,4,RUN
1759319638.84871,-4.342483,-9.640852,0.268599,-2.879025,0.351881,-0.164087,5.16,4,RUN
1759319638.86773,-5.711518,-4.163966,1.353472,-3.944215,1.972656,1.382195,5.18,4,RUN
1759319638.88873,-5.781847,-2.709787,-3.770568,-4.002957,1.1392,1.159881,5.20,4,RUN
1759319638.90870,-1.39986,9.261819,-12.256218,0.076142,2.638693,-0.301651,5.22,4,RUN
1759319638.92873,2.637662,15.378406,-6.109853,2.867758,1.966386,-0.629469,5.24,4,RUN
1759319638.94870,6.228516,10.764181,0.555754,3.915877,-0.796178,-0.145593,5.26,4,RUN
1759319638.96838,-5.878663,9.733926,7.20535,2.470597,2.72332,-0.204007,5.28,4,RUN
1759319638.98872,-7.206996,16.568324,6.836792,-0.971008,2.194421,-0.462655,5.30,4,RUN
1759319639.00870,-3.896862,20.619314,8.733748,-4.084592,-1.265447,-1.870367,5.32,4,RUN
1759319639.02872,0.320524,33.885136,8.73704,-3.52783,-4.292455,-1.399458,5.34,4,RUN
1759319639.04843,0.356137,30.792576,-0.546028,-3.683496,-5.086292,0.330464,5.36,4,RUN
1759319639.06824,-7.428908,22.16926,-16.454151,-3.555759,-3.140202,2.205464,5.38,4,RUN
1759319639.08872,-9.553762,16.6403,-12.594548,-3.663999,0.602192,2.715129,5.40,4,RUN
1759319639.10870,-9.478046,9.441385,-8.51423,-2.625809,3.202693,2.259787,5.42,4,RUN
1759319639.12873,-4.821174,3.536385,-3.813963,-0.745302,3.590884,0.845853,5.44,4,RUN
1759319639.14856,-2.07712,2.573617,2.182614,-0.711937,3.381174,-0.124554,5.46,4,RUN
1759319639.16809,-0.283114,-2.289306,0.242413,-1.686299,2.417169,-0.642097,5.48,4,RUN
1759319639.18859,4.019715,-1.404349,-3.905691,-0.304006,1.601135,-0.779563,5.50,4,RUN
1759319639.20826,4.234445,2.949507,4.656872,-0.357749,0.750506,-0.636386,5.52,4,RUN
1759319639.22794,3.744082,2.30412,2.458995,0.201442,-0.517602,-0.54604,5.54,4,RUN
1759319639.24870,1.715296,-1.467646,-1.630751,2.212545,-0.021271,0.258679,5.56,4,RUN
1759319639.26794,0.353294,-1.510143,1.734449,2.944673,-1.520708,-0.091124,5.58,4,RUN
1759319639.28872,-2.540398,2.987814,-1.215955,3.616895,-1.325232,-0.247633,5.60,4,RUN
1759319639.30870,-4.644751,11.881974,0.646883,3.564545,-0.796354,-0.580827,5.62,4,RUN
1759319639.32873,-10.293122,41.365221,-6.510433,3.156154,1.009181,1.120237,5.64,4,RUN
1759319639.34873,-9.471611,40.937856,-8.55957,2.606695,5.339128,0.857747,5.66,4,RUN
1759319639.36779,-5.227889,24.760834,-1.617433,1.473375,5.249986,0.385073,5.68,4,RUN
1759319639.38872,-1.638981,18.937836,0.037709,1.121356,2.736744,-0.483524,5.70,4,RUN
1759319639.40870,6.888417,18.472313,6.241534,1.519096,-1.148461,-0.582221,5.72,4,RUN
1759319639.42873,7.354988,15.189863,3.949834,1.950348,-2.583897,0.649476,5.74,4,RUN
1759319639.44873,5.509657,5.134515,7.573309,2.278141,-2.845029,0.369711,5.76,4,RUN
1759319639.46873,-1.43697,-4.212747,5.595399,2.568137,-6.300441,0.237211,5.78,4,RUN
1759319639.48818,-4.029292,-10.323947,1.231817,1.419723,-5.444547,-0.428061,5.80,4,RUN
1759319639.50871,-4.915446,-14.138958,-2.50643,-1.185252,-1.26824,-0.757761,5.82,4,RUN
1759319639.52875,-5.061492,-9.100061,0.544232,-3.091732,2.241034,0.092953,5.84,4,RUN
1759319639.54838,-6.03279,-3.813963,1.37098,-4.048742,1.036889,0.498664,5.86,4,RUN
1759319639.56873,-2.915539,1.399261,-4.786009,-2.935906,1.443305,0.041114,5.88,4,RUN
1759319639.58873,0.818069,12.728474,-10.380809,0.840437,1.983654,-0.182885,5.90,4,RUN
1759319639.60870,5.868488,15.658977,-5.434538,2.980577,0.82358,-0.185522,5.92,4,RUN
1759319639.62873,0.867748,10.334123,2.420987,4.010466,-0.437368,-0.402447,5.94,4,RUN
1759319639.64870,-9.920075,9.692477,7.873631,1.07869,3.242367,-0.274828,5.96,4,RUN
1759319639.66872,-5.700145,12.582876,5.861455,-2.882967,-0.761016,-0.949728,5.98,4,RUN
1759319639.68873,-3.148824,26.962003,12.588263,-3.536525,-2.715679,-2.074966,6.00,4,RUN
1759319639.70824,0.603788,35.243846,2.863914,-3.513879,-5.08948,-1.0863,6.02,4,RUN
1759319639.72877,0.47091,29.681816,-0.919074,-3.446544,-3.989604,1.578778,6.04,4,RUN
1759319639.74873,-11.432911,17.123031,-25.469966,-4.652049,-1.746497,3.088329,6.06,4,RUN
1759319639.76873,-11.919533,11.734282,-13.61777,-3.225491,1.872452,2.151119,6.08,4,RUN
1759319639.78876,-4.599261,3.736601,-4.012383,-1.58253,3.618292,1.081725,6.10,4,RUN
1759319639.80870,-3.224391,2.177377,1.508796,-0.872029,4.270882,-0.18962,6.12,4,RUN
1759319639.82873,-0.670676,0.508618,3.663129,-1.685835,1.659097,-0.591004,6.14,4,RUN
1759319639.84873,3.645022,-0.346411,-3.527108,-0.927262,0.6656,-0.387323,6.16,4,RUN
1759319639.86871,4.296993,2.026093,-0.815226,-0.650669,0.40658,-0.139536,6.18,4,RUN
1759319639.88874,2.884115,2.736722,1.455375,0.270997,0.366933,-0.062607,6.20,4,RUN
1759319639.90871,2.130241,0.490961,-1.276109,1.097773,0.006413,0.241452,6.22,4,RUN
1759319639.92873,0.526275,-2.111836,2.259677,3.02629,-0.8019,0.245389,6.24,4,RUN
1759319639.94841,-1.634492,3.573346,0.997634,3.530333,-2.196067,-0.24906,6.26,4,RUN
1759319639.96873,-4.364031,12.016648,1.390582,3.89685,-1.871888,-0.509183,6.28,4,RUN
1759319639.98874,-7.573758,33.025468,-2.851793,3.391057,-0.708352,0.625798,6.30,4,RUN
1759319640.00871,-9.822212,38.692094,-9.585935,3.478323,4.140003,1.070911,6.32,4,RUN
1759319640.02854,-8.176947,27.928662,-2.291401,1.486154,5.349317,0.212316,6.34,4,RUN
1759319640.04873,-7.343615,21.690569,-2.104354,1.511995,2.843775,0.049529,6.36,4,RUN
1759319640.06866,2.055871,19.12608,2.760066,1.352431,0.574069,-0.674708,6.38,4,RUN
1759319640.08873,7.226,15.983241,4.813842,1.441617,-1.857542,0.214553,6.40,4,RUN
1759319640.10820,6.378452,4.832696,5.124489,1.566295,-2.923818,0.354711,6.42,4,RUN
1759319640.12873,-0.490662,-3.198504,-1.363199,2.000441,-4.87334,-0.053055,6.44,4,RUN
1759319640.14874,0.046837,-10.437522,0.755221,0.83827,-3.66278,0.068457,6.46,4,RUN
1759319640.16873,-1.671751,-9.1252,2.736722,-0.668019,-1.346277,-0.803594,6.48,4,RUN
1759319640.18873,-3.730316,-8.017134,3.47653,-1.754181,0.53637,-0.585423,6.50,4,RUN
1759319640.20848,-6.895899,-4.46758,0.817021,-3.119372,1.147854,1.063166,6.52,4,RUN
1759319640.22874,-5.639692,-2.983475,-3.983353,-3.581558,-0.301769,1.151039,6.54,4,RUN
1759319640.24859,-1.772757,9.376891,-10.9216,0.166767,2.899921,-0.334895,6.56,4,RUN
1759319640.26832,2.880225,16.886454,-3.68303,2.27678,2.382093,-0.40565,6.58,4,RUN
1759319640.28880,10.71076,8.822483,-0.742651,3.267609,-1.470944,0.021748,6.60,4,RUN
1759319640.30853,-3.309834,6.056582,9.056666,2.332977,0.226858,0.117317,6.62,4,RUN
1759319640.32874,-10.627712,16.195278,-0.777816,0.406423,3.204684,0.196729,6.64,4,RUN
1759319640.34873,-6.996306,14.781801,2.845658,-4.212964,-1.90397,-0.959871,6.66,4,RUN
1759319640.36873,-2.286911,32.313792,12.491149,-4.069276,-2.225464,-1.660175,6.68,4,RUN
1759319640.38872,1.738041,33.081881,-0.31813,-3.739715,-4.286997,0.545606,6.70,4,RUN
1759319640.40871,-0.521038,25.733328,-3.557933,-3.572042,-4.076097,1.695629,6.72,4,RUN
1759319640.42858,-7.881413,19.347843,-8.874857,-4.017107,-2.044381,2.947675,6.74,4,RUN
1759319640.44852,-13.278542,9.644892,-15.203181,-3.22557,1.194818,2.889044,6.76,4,RUN
1759319640.46803,-9.366267,3.544765,-9.912743,-1.075623,3.640862,0.543198,6.78,4,RUN
1759319640.48873,-2.573168,0.829741,-1.09819,-1.589787,3.435097,-0.470481,6.80,4,RUN
1759319640.50871,-1.212663,-2.107795,-3.03495,-0.489722,3.551642,-0.954992,6.82,4,RUN
1759319640.52845,4.662857,2.03163,-0.093524,-0.32097,3.264216,-0.641323,6.84,4,RUN
1759319640.54858,4.047548,3.02657,6.405836,-0.136793,-0.22494,0.173928,6.86,4,RUN
1759319640.56871,3.752761,-1.300351,-0.519991,1.812934,-0.116415,1.148015,6.88,4,RUN
1759319640.58872,3.097947,-6.597223,2.232443,2.804989,-1.058676,1.241093,6.90,4,RUN
1759319640.60871,-1.364246,-0.775123,-0.772429,3.494565,-2.932282,0.273242,6.92,4,RUN
1759319640.62829,-2.37011,2.274043,1.265934,3.639597,-2.670139,-0.302885,6.94,4,RUN
1759319640.64842,-6.86253,12.990489,-3.312378,3.873206,-0.879213,-1.879203,6.96,4,RUN
1759319640.66878,-17.485753,44.11541,-10.652551,3.448303,2.35198,0.860916,6.98,4,RUN
1759319640.68844,-11.626842,39.78834,-10.736797,2.186688,5.354374,0.46934,7.00,4,RUN
1759319640.70871,-3.081487,27.476606,-1.352425,1.713402,4.76868,-0.354872,7.02,4,RUN
1759319640.72814,-0.7639,23.877822,-2.755427,1.044669,2.672785,-0.004105,7.04,4,RUN
1759319640.74827,8.422801,20.783765,5.7187,0.895115,-0.942675,0.566511,7.06,4,RUN
1759319640.76876,6.424242,12.594548,6.921338,0.982573,-3.84112,1.49618,7.08,4,RUN
1759319640.78873,0.574758,-3.407548,3.885041,2.109532,-4.830063,0.477588,7.10,4,RUN
1759319640.80872,-5.137957,-9.582343,-5.95004,1.314368,-4.460484,0.116542,7.12,4,RUN
1759319640.82799,-2.133383,-12.184392,0.339977,-0.640808,-1.123688,-0.961098,7.14,4,RUN
1759319640.84813,-3.655796,-7.822755,7.343765,-1.373879,1.058139,-1.400137,7.16,4,RUN
1759319640.86873,-5.303755,-5.619939,3.230077,-2.22491,1.285651,-0.132758,7.18,4,RUN
1759319640.88875,-4.734683,-3.387795,1.273715,-4.533672,-0.465886,1.337069,7.20,4,RUN
1759319640.90871,-3.998167,1.915062,-6.01618,-4.221642,1.027783,0.717913,7.22,4,RUN
1759319640.92787,1.298256,15.920693,-10.597934,1.606609,2.129525,-0.321461,7.24,4,RUN
1759319640.94797,6.755539,15.32738,-5.325303,3.925525,-0.659901,-0.645764,7.26,4,RUN
1759319640.96875,3.077297,5.328595,0.550517,4.324597,-1.598841,-0.736447,7.28,4,RUN
1759319640.98875,-7.713669,9.012374,7.709928,1.475092,4.862459,-0.200297,7.30,4,RUN
1759319641.00872,-5.948544,16.020202,8.568399,-3.875017,-0.499534,-0.767056,7.32,4,RUN
1759319641.02874,-2.710685,29.436859,13.155689,-4.165532,-1.992927,-1.835921,7.34,4,RUN
1759319641.04783,1.057788,37.033811,4.644751,-3.768267,-5.460793,-1.122211,7.36,4,RUN
1759319641.06874,-1.517176,26.329784,-7.101052,-2.808631,-5.588324,1.025481,7.38,4,RUN
1759319641.08874,-8.001572,20.156634,-15.160534,-3.768825,-2.913888,2.772301,7.40,4,RUN
1759319641.10871,-11.269806,10.598233,-12.428002,-3.425283,2.50508,2.784918,7.42,4,RUN
1759319641.12874,-7.82066,1.543213,-6.513875,-1.522114,4.116788,1.318209,7.44,4,RUN
1759319641.14874,-4.778527,2.507328,-1.230769,-1.134489,3.115196,-0.378636,7.46,4,RUN
1759319641.16874,0.178667,2.414552,1.20967,-1.440682,2.351694,-0.957727,7.48,4,RUN
1759319641.18876,4.472069,3.318812,0.552013,-1.494323,1.955589,-0.497023,7.50,4,RUN
1759319641.20871,4.494365,2.644246,0.732326,-0.342296,1.789079,0.379518,7.52,4,RUN
1759319641.22874,3.569755,-1.106869,2.005593,0.753438,1.097502,0.399732,7.54,4,RUN
1759319641.24820,0.967257,-3.467103,1.664269,1.969777,-0.551921,0.442435,7.56,4,RUN
1759319641.26874,-2.038363,-2.589928,3.006369,3.188509,-1.776151,-0.093442,7.58,4,RUN
1759319641.28874,-3.700987,3.153313,-0.256329,4.173746,-1.388668,-0.184788,7.60,4,RUN
1759319641.30871,-5.525668,7.058406,-2.075623,3.975383,-1.77408,-0.339428,7.62,4,RUN
1759319641.32874,-7.83308,27.515363,-3.813514,3.969483,-0.095366,-0.206982,7.64,4,RUN
1759319641.34873,-5.394735,44.329691,-9.146898,3.50555,3.396687,1.137088,7.66,4,RUN
1759319641.36872,-7.672967,37.039497,-3.607014,1.831615,5.498314,0.004928,7.68,4,RUN
1759319641.38860,-6.260538,23.822307,-4.214393,1.824413,2.364423,0.441882,7.70,4,RUN
1759319641.40871,4.919785,22.55338,1.105822,1.169156,-0.475605,0.004016,7.72,4,RUN
1759319641.42874,9.874885,16.232687,8.050054,1.214616,-3.856573,0.751506,7.74,4,RUN
1759319641.44788,6.583157,5.024831,2.500145,2.112098,-4.59467,0.958572,7.76,4,RUN
1759319641.46876,-1.684919,-9.214534,-2.301875,1.824225,-5.600507,0.45474,7.78,4,RUN
1759319641.48877,-2.570924,-16.139313,-2.615965,0.210912,-2.932263,-0.441086,7.80,4,RUN
1759319641.50872,-3.547908,-10.845434,3.416077,-1.341799,0.320763,-1.070542,7.82,4,RUN
1759319641.52875,-3.853168,-6.485593,7.603386,-2.077002,0.862566,-0.953637,7.84,4,RUN
1759319641.54875,-5.089025,-2.620154,1.698536,-3.179517,0.404693,0.088071,7.86,4,RUN
1759319641.56874,-5.271882,0.291644,-0.11163,-3.749091,0.563149,0.491398,7.88,4,RUN
1759319641.58877,-2.314445,9.398888,-8.014291,-1.685036,2.449366,-0.527684,7.90,4,RUN
1759319641.60809,-0.461183,21.208586,-9.986963,1.956274,3.136209,-0.492188,7.92,4,RUN
1759319641.62874,7.5769,7.839664,-4.041861,3.761655,-0.654449,-0.120178,7.94,4,RUN
1759319641.64874,-1.757793,5.213673,7.273136,4.070611,-0.378952,-0.530113,7.96,4,RUN
1759319641.66783,-11.365126,8.388385,6.927024,0.053609,4.712688,-0.192329,7.98,4,RUN
1759319641.68877,-6.038326,12.813318,5.613954,-4.006606,-0.389127,-1.086612,8.00,4,RUN
1759319641.70872,-2.671331,28.990789,14.679898,-4.438524,-1.23996,-2.455919,8.02,4,RUN
1759319641.72875,-0.016011,42.042181,5.017349,-4.494537,-4.835424,-1.360433,8.04,4,RUN
1759319641.74875,-2.828151,28.681788,-16.885257,-4.405975,-4.339287,0.798956,8.06,4,RUN
1759319641.76875,-5.368399,19.132065,-11.300931,-4.078308,-1.205698,2.56303,8.08,4,RUN
1759319641.78875,-6.94109,11.467029,-7.530662,-3.378061,0.736346,2.796454,8.10,4,RUN
1759319641.80872,-7.974338,2.231845,-10.20723,-1.527447,2.248019,1.786979,8.12,4,RUN
1759319641.82875,-4.818032,2.461987,-0.488118,-0.808974,4.035466,-0.144605,8.14,4,RUN
1759319641.84872,-2.693477,0.004938,1.302745,-1.68831,1.722727,-0.583096,8.16,4,RUN
1759319641.86809,0.8257,-1.974917,-8.147019,-0.077209,0.260436,-1.086509,8.18,4,RUN
1759319641.88874,6.446538,5.282207,-0.981772,0.108611,1.574513,-0.599505,8.20,4,RUN
1759319641.90776,2.114828,4.321085,7.640945,-0.151635,0.731191,-0.91684,8.22,4,RUN
1759319641.92875,3.797802,1.923891,-1.01155,0.473272,-0.707073,-0.286188,8.24,4,RUN
1759319641.94874,5.052963,-4.104859,1.775301,2.788179,1.020384,0.796911,8.26,4,RUN
1759319641.96875,-0.496946,0.80535,-1.921347,3.289027,-1.421024,0.380161,8.28,4,RUN
1759319641.98875,-2.426972,4.517559,1.88289,4.133235,-2.088001,0.003913,8.30,4,RUN
1759319642.00872,-8.763526,17.592893,0.699855,3.551091,-1.266365,-0.366859,8.32,4,RUN
1759319642.02873,-13.876045,45.83729,-10.742035,4.206935,2.919939,2.110682,8.34,4,RUN
1759319642.04867,-9.378986,41.589677,-9.03048,1.854924,5.291663,-0.395891,8.36,4,RUN
1759319642.06875,-4.093037,24.07669,-1.227627,2.163007,3.124401,0.184338,8.38,4,RUN
1759319642.08876,3.364452,20.08825,2.736423,1.796808,0.50772,-0.233195,8.40,4,RUN
1759319642.10872,9.0839,17.806426,5.635203,1.861857,-2.311278,0.793182,8.42,4,RUN
1759319642.12876,6.761525,8.216601,4.770896,2.174982,-3.158182,0.914424,8.44,4,RUN
1759319642.14854,-0.863559,-3.038541,5.868039,2.477144,-5.142442,0.719033,8.46,4,RUN
1759319642.16875,-3.754856,-11.19813,0.706439,1.64115,-4.552344,0.159032,8.48,4,RUN
1759319642.18876,-3.652654,-13.033585,-0.496647,-0.245739,-1.556442,-0.65556,8.50,4,RUN
1759319642.20873,-4.471022,-9.037064,5.459378,-1.768898,0.853204,-0.84371,8.52,4,RUN
1759319642.22876,-5.251083,-5.644929,2.562843,-2.921723,1.439198,0.294083,8.54,4,RUN
1759319642.24842,-6.073341,-2.435801,2.21314,-4.61033,-0.911284,1.234188,8.56,4,RUN
1759319642.26877,-3.538331,5.613056,-15.430929,-2.085399,-0.167256,-0.141328,8.58,4,RUN
1759319642.28876,0.919673,17.342549,-14.779556,2.652642,2.1253,-1.003686,8.60,4,RUN
1759319642.30873,10.334721,10.729315,-3.62557,3.674447,-1.02691,-0.623458,8.62,4,RUN
1759319642.32877,-1.726219,6.533178,8.344242,2.50974,1.100674,-0.05541,8.64,4,RUN
1759319642.34827,-16.065542,18.703803,11.368118,-0.696591,6.34384,0.367389,8.66,4,RUN
1759319642.36876,-8.472331,23.538444,10.07076,-6.372289,-0.602454,-1.58978,8.68,4,RUN
1759319642.38874,3.034501,36.57158,10.431537,-1.599544,-4.970161,-1.481564,8.70,4,RUN
1759319642.40867,1.723676,27.379641,-1.335965,-1.102986,-5.368869,-0.964775,8.72,4,RUN
1759319642.42877,-3.874716,24.121282,-10.915614,-2.589466,-5.033507,1.701245,8.74,4,RUN
1759319642.44815,-7.58498,13.455862,-11.174487,-3.640378,0.208494,3.30047,8.76,4,RUN
1759319642.46877,-13.297097,4.429273,-9.852289,-1.925691,2.3325,1.625959,8.78,4,RUN
1759319642.48877,-5.225495,0.263661,-7.502081,-0.482823,2.612829,0.063502,8.80,4,RUN
1759319642.50853,-1.874211,-0.191985,-1.831864,-1.3005,3.814096,-0.74503,8.82,4,RUN
1759319642.52869,2.003498,0.741005,-0.298078,-1.497589,1.942305,-0.30837,8.84,4,RUN
1759319642.54801,5.178209,3.16304,1.011999,-1.355112,1.631652,0.037287,8.86,4,RUN
1759319642.56877,3.76578,3.208978,0.652869,-0.74319,1.072593,0.218045,8.88,4,RUN
1759319642.58878,5.024681,0.511461,-1.111807,0.325618,0.257551,0.465797,8.90,4,RUN
1759319642.60839,1.254861,-2.975993,2.94831,2.213058,-0.545341,0.731516,8.92,4,RUN
1759319642.62856,-2.550124,1.387141,2.942025,3.350656,-1.616012,0.025629,8.94,4,RUN
1759319642.64877,-5.034856,6.267122,1.405546,4.288557,-2.864493,-0.209269,8.96,4,RUN
1759319642.66879,-8.409184,20.493468,-1.469741,4.060028,-2.280473,-0.479464,8.98,4,RUN
1759319642.68878,-10.201544,44.176762,-13.229161,3.758706,1.41243,1.037695,9.00,4,RUN
1759319642.70823,-8.500613,35.563172,-10.700136,1.589228,5.832796,-0.269434,9.02,4,RUN
1759319642.72843,-4.386776,24.769363,-1.703026,1.340029,4.703349,0.444917,9.04,4,RUN
1759319642.74878,1.640926,20.041563,1.342549,0.918656,1.89507,-0.28587,9.06,4,RUN
1759319642.76878,6.53213,16.507422,5.398326,1.422818,-1.529487,-0.148509,9.08,4,RUN
1759319642.78878,7.177667,11.921029,10.45473,1.856188,-4.18216,0.539185,9.10,4,RUN
1759319642.80809,-0.44173,1.107767,5.854122,2.74034,-5.038816,0.358925,9.12,4,RUN
1759319642.82828,-4.635324,-9.985766,-0.602291,1.544871,-4.755732,0.388631,9.14,4,RUN
1759319642.84823,-3.764433,-13.584102,-0.086491,-0.271138,-2.60456,-0.587931,9.16,4,RUN
1759319642.86878,-2.875885,-11.375451,3.596689,-2.0195,-0.047158,-0.478425,9.18,4,RUN
1759319642.88879,-3.47279,-6.432172,1.02801,-2.843427,1.346913,0.584005,9.20,4,RUN
1759319642.90805,-4.477007,-2.364274,2.252495,-4.190541,0.523067,1.224208,9.22,4,RUN
1759319642.92810,-3.523517,4.968717,-3.476979,-2.835069,1.256127,0.230648,9.24,4,RUN
1759319642.94878,0.06195,22.43771,-13.295002,2.098284,2.330963,0.182527,9.26,4,RUN
1759319642.96878,6.834548,11.573122,-2.689137,3.70938,-0.956504,0.250133,9.28,4,RUN
1759319642.98879,6.384588,-2.028787,-1.970428,3.942928,-2.834527,-0.055336,9.30,4,RUN
1759319643.00790,-6.496367,1.873313,4.591031,1.03652,2.944049,0.152314,9.32,4,RUN
1759319643.02796,-12.246192,16.708086,12.077251,-1.174148,5.79201,0.434122,9.34,4,RUN
1759319643.04879,-10.692056,29.204771,10.130466,-6.042266,-1.088639,-1.127467,9.36,4,RUN
1759319643.06879,4.196587,42.215761,-5.785139,-3.134676,-1.806163,-1.549628,9.38,4,RUN
1759319643.08880,0.890643,28.640488,-0.791284,-3.659635,-6.554858,-0.427143,9.40,4,RUN
1759319643.10777,-2.689886,22.139781,-4.597915,-2.6693,-4.623839,1.742344,9.42,4,RUN
1759319643.12796,-6.729652,16.170288,-6.940791,-3.959627,-2.25328,3.245455,9.44,4,RUN
1759319643.14879,-15.169512,5.379771,-19.989639,-3.147092,3.516794,2.963734,9.46,4,RUN
1759319643.16884,-8.401104,2.542044,-5.605125,-1.145094,3.62658,-0.204486,9.48,4,RUN
1759319643.18879,-0.584036,1.063175,-1.687763,-0.788329,3.260547,-0.77309,9.50,4,RUN
1759319643.20800,2.880075,1.543811,-1.433678,-1.170251,4.003371,-0.899288,9.52,4,RUN
1759319643.22780,4.588637,6.060922,3.982156,-0.677618,2.98354,-0.278659,9.54,4,RUN
1759319643.24880,4.235343,3.343503,3.80723,0.112816,1.149904,0.154664,9.56,4,RUN
1759319643.26880,3.403956,-2.430264,0.70195,1.47949,0.224108,1.011678,9.58,4,RUN
1759319643.28880,1.136947,-5.973832,4.256591,2.813221,-2.047092,0.833116,9.60,4,RUN
1759319643.30877,-1.138144,-2.133832,0.516848,3.458704,-2.833545,0.010199,9.62,4,RUN
1759319643.32879,-3.91871,1.672799,-0.121206,3.910303,-2.62175,-0.712498,9.64,4,RUN
1759319643.34881,-6.73863,10.152313,-3.395277,4.081173,-1.319761,-1.620811,9.66,4,RUN
1759319643.36881,-13.333908,35.677645,-10.42181,3.859339,1.827065,0.49158,9.68,4,RUN
1759319643.38878,-4.758775,39.703046,-12.543971,2.962343,3.628381,0.199775,9.70,4,RUN
1759319643.40878,-0.833631,30.45619,-3.305345,2.240459,4.504562,-0.402598,9.72,4,RUN
1759319643.42878,-0.232387,23.038056,-4.329764,1.308572,2.583972,0.010587,9.74,4,RUN
1759319643.44882,6.218041,18.686744,2.543091,1.258703,-1.008118,0.132201,9.76,4,RUN
1759319643.46882,8.738986,20.185065,7.934983,1.22994,-5.025512,1.590491,9.78,4,RUN
1759319643.48880,-0.554856,2.099864,5.084536,1.849563,-6.076853,0.731489,9.80,4,RUN
1759319643.50878,-10.351929,-13.581857,-11.189301,1.326383,-4.124806,0.315482,9.82,4,RUN
1759319643.52865,-3.255965,-14.027777,1.700482,-0.633535,-0.480396,-1.367545,9.84,4,RUN
1759319643.54879,0.356137,-5.748927,7.083395,-0.994283,1.325398,-1.143641,9.86,4,RUN
1759319643.56881,-2.798672,-4.41401,5.91308,-2.247584,1.446665,-0.03075,9.88,4,RUN
1759319643.58815,-5.144092,-3.911677,2.6634,-3.172012,1.164431,0.450762,9.90,4,RUN
1759319643.60831,-4.151695,-1.127669,0.197522,-4.428917,0.056729,0.550887,9.92,4,RUN
1759319643.62880,3.596241,16.64868,-14.962863,-0.204665,3.02928,-0.570466,9.94,4,RUN
1759319643.64815,7.988553,19.725079,-10.519823,1.7673,2.716576,-0.535067,9.96,4,RUN
1759319643.66880,-2.561796,6.618322,7.067234,3.884629,0.284867,-0.672996,9.98,4,RUN
1759319643.68852,-9.919776,7.708581,8.867824,0.204522,3.859264,0.425792,10.00,4,RUN
1759319643.70879,-6.810456,16.93778,7.146393,-4.877079,-1.846556,-1.412363,10.02,4,RUN
1759319643.72885,-0.888847,37.9261,15.670349,-4.584324,-3.589411,-2.626721,10.04,4,RUN
1759319643.74880,3.200748,38.351819,3.866486,-4.225137,-6.759717,0.098638,10.06,4,RUN
1759319643.76881,-7.370699,23.427563,-19.486856,-3.616271,-5.349989,2.141377,10.08,4,RUN
1759319643.78880,-9.550321,15.365687,-17.576583,-4.526896,0.851008,3.175624,10.10,4,RUN
1759319643.80832,-10.327688,7.91972,-7.025635,-2.497366,4.149783,2.240399,10.12,4,RUN
1759319643.82881,-5.707926,1.272518,-3.360561,-0.71178,3.535583,0.662723,10.14,4,RUN
1759319643.84883,-2.443881,0.976535,0.533608,-1.252827,3.574805,-0.363419,10.16,4,RUN
1759319643.86883,1.115099,-0.409558,-0.11163,-0.730666,1.632598,-0.399595,10.18,4,RUN
1759319643.88883,5.253627,0.779762,-2.317438,-0.144719,0.157285,-0.117853,10.20,4,RUN
1759319643.90880,4.122217,0.543633,-2.108843,0.546128,0.419949,-0.104981,10.22,4,RUN
1759319643.92883,1.268179,1.11091,4.624849,0.62799,-0.519985,-0.188158,10.24,4,RUN
1759319643.94883,1.933168,-1.31711,2.926313,1.339408,-1.485691,0.13212,10.26,4,RUN
1759319643.96891,1.425298,-1.163582,0.447566,2.84799,-1.279318,0.333045,10.28,4,RUN
1759319643.98884,-1.835006,3.287389,0.427964,4.126881,-1.192643,0.025591,10.30,4,RUN
1759319644.00881,-5.894973,11.106702,0.974739,3.74022,-1.783545,-0.035257,10.32,4,RUN
1759319644.02825,-10.835558,28.580333,-3.470844,3.29897,0.052581,1.264148,10.34,4,RUN
1759319644.04884,-8.665963,40.058435,-6.87076,4.205619,4.13198,1.25166,10.36,4,RUN
1759319644.06885,-8.61329,36.090645,-6.459257,1.897374,4.909524,0.089199,10.38,4,RUN
1759319644.08883,-3.541772,24.439113,-5.711967,2.181241,2.812071,0.21127,10.40,4,RUN
1759319644.10882,5.389498,18.104953,1.256208,1.736997,1.20139,-0.625496,10.42,4,RUN
1759319644.12844,9.907655,18.598009,5.227141,1.408417,-1.629363,0.442418,10.44,4,RUN
1759319644.14882,8.683769,9.551069,9.89748,1.549851,-3.742926,1.260853,10.46,4,RUN
1759319644.16886,-5.101146,-3.529951,-0.936582,2.436998,-5.528853,0.392335,10.48,4,RUN
1759319644.18884,-3.427449,-17.012299,-3.656694,0.707217,-3.084702,-0.153651,10.50,4,RUN
1759319644.20827,-2.468123,-10.814459,4.605397,-1.158167,-0.035898,-1.131426,10.52,4,RUN
1759319644.22787,-4.223671,-6.38354,5.01271,-1.603828,0.900495,-1.023157,10.54,4,RUN
1759319644.24885,-6.535722,-4.396203,2.924817,-2.690096,1.075797,0.39252,10.56,4,RUN
1759319644.26887,-6.221483,-1.731157,2.360982,-4.345939,-0.939454,1.439427,10.58,4,RUN
1759319644.28885,-2.825008,7.977779,-12.279411,-2.845348,1.538457,0.029512,10.60,4,RUN
1759319644.30882,3.339013,20.956447,-9.701006,2.452353,2.616956,-0.468819,10.62,4,RUN
1759319644.32884,12.502521,7.830685,1.545008,3.34907,-1.598729,-0.221395,10.64,4,RUN
1759319644.34847,5.441571,-1.267431,3.465308,3.208138,-2.148213,-0.29084,10.66,4,RUN
1759319644.36888,-7.488464,5.568913,6.373664,1.839258,4.342433,0.066469,10.68,4,RUN
1759319644.38890,-12.582428,19.380165,12.507758,-2.816032,1.639701,0.657424,10.70,4,RUN
1759319644.40835,-7.945607,27.584196,7.541885,-6.565353,-0.643114,-1.223438,10.72,4,RUN
1759319644.42886,5.3473,40.984842,-2.355146,-3.121587,-1.613471,-1.574542,10.74,4,RUN
1759319644.44879,-0.973991,31.340848,-3.60462,-3.851337,-5.782221,0.12906,10.76,4,RUN
1759319644.46886,-4.05473,21.81417,-4.432565,-3.54937,-3.803623,2.205059,10.78,4,RUN
1759319644.48885,-11.427973,13.125762,-13.688399,-4.227062,-0.008005,3.578496,10.80,4,RUN
1759319644.50883,-11.633725,0.996586,-16.156671,-2.394637,3.623121,1.449581,10.82,4,RUN
1759319644.52864,-6.037877,4.166659,-1.206827,-1.089859,3.929737,-0.241405,10.84,4,RUN
1759319644.54886,-1.561169,1.096095,-0.710629,-1.691232,4.352032,-1.109629,10.86,4,RUN
1759319644.56887,6.312462,6.419004,3.965546,-0.89245,3.13763,-0.713751,10.88,4,RUN
1759319644.58886,5.597643,3.70787,1.469591,-0.210752,0.457275,0.147587,10.90,4,RUN
1759319644.60885,4.272154,-0.604835,0.959626,0.91482,0.535567,-0.068703,10.92,4,RUN
1759319644.62848,3.01819,-2.731934,0.820762,1.3965,-1.077364,-0.062971,10.94,4,RUN
1759319644.64892,0.95798,-4.010737,3.534739,2.394798,-2.191108,0.065318,10.96,4,RUN
1759319644.66889,-1.301548,-1.54022,-0.159364,3.572964,-2.458862,-0.092456,10.98,4,RUN
1759319644.68887,-2.198925,2.00694,1.937957,4.174932,-1.887533,-0.396377,11.00,4,RUN
1759319644.70885,-7.725191,9.539098,-1.857751,4.049379,-0.918149,-0.907536,11.02,4,RUN
1759319644.72835,-14.082993,32.685491,-7.245153,4.345058,1.418246,0.724106,11.04,4,RUN
1759319644.74844,-5.390096,44.103589,-12.444611,3.384086,3.990668,0.686097,11.06,4,RUN
1759319644.76861,-5.17806,38.10746,-4.868459,2.292604,4.247971,-0.342569,11.08,4,RUN
1759319644.78884,0.002693,23.720553,-3.016395,1.772372,1.963344,0.22576,11.10,4,RUN
1759319644.80885,9.511265,19.731514,3.406799,1.222723,-1.52676,0.618701,11.12,4,RUN
1759319644.82888,9.763255,14.298322,6.403143,1.344519,-4.642618,1.446076,11.14,4,RUN
1759319644.84888,2.602946,0.367959,7.194127,1.975173,-6.006753,0.904914,11.16,4,RUN
1759319644.86891,-7.843255,-12.122442,-8.889222,1.442722,-4.2495,0.579288,11.18,4,RUN
1759319644.88869,-3.641281,-16.550817,0.996736,-0.69403,-1.131211,-0.719034,11.20,4,RUN
1759319644.90881,-2.684648,-9.139566,8.917204,-1.295993,0.659266,-1.268114,11.22,4,RUN
1759319644.92806,-4.821174,-4.118176,2.753781,-2.145406,1.216762,-0.416727,11.24,4,RUN
1759319644.94891,-5.832874,-1.98629,1.548899,-3.850743,1.035535,0.808015,11.26,4,RUN
1759319644.96824,-4.677971,2.532467,-1.770213,-3.905585,0.760359,0.296335,11.28,4,RUN
1759319644.98856,0.405069,15.179987,-10.45907,-0.366075,2.670702,-0.228959,11.30,4,RUN
1759319645.00867,6.323685,15.006706,-8.360702,2.726142,1.333865,-0.25482,11.32,4,RUN
1759319645.02889,8.959402,2.932747,-2.749441,3.493952,-1.048838,-0.460414,11.34,4,RUN
1759319645.04817,-2.13892,1.208623,11.729792,2.353588,0.568997,-0.717578,11.36,4,RUN
1759319645.06893,-10.799047,9.902568,8.302493,0.353906,4.292912,-0.039515,11.38,4,RUN
1759319645.08841,-8.362647,16.221913,4.749946,-4.686708,-1.605246,-0.498686,11.40,4,RUN
1759319645.10853,-2.909105,32.543036,11.608586,-4.917809,-1.778716,-1.777842,11.42,4,RUN
1759319645.12890,1.898752,37.045183,-8.198495,-4.50415,-3.436356,-1.176934,11.44,4,RUN
1759319645.14887,0.133177,30.018201,-2.302175,-4.425964,-4.219316,0.723405,11.46,4,RUN
1759319645.16834,-2.8699,17.839197,-6.240187,-3.816671,-2.733383,2.38225,11.48,4,RUN
1759319645.18827,-12.934525,12.003929,-18.447623,-3.918465,0.061756,2.932064,11.50,4,RUN
1759319645.20839,-7.416788,3.639187,-9.912444,-1.51452,3.950989,0.945386,11.52,4,RUN
1759319645.22891,-2.495806,4.908712,-2.926612,-1.730528,3.223022,0.018822,11.54,4,RUN
1759319645.24813,-0.001347,1.570447,1.345092,-1.038592,3.72024,-0.310624,11.56,4,RUN
1759319645.26813,3.455731,2.629282,4.149301,-0.331061,-0.269733,-0.402367,11.58,4,RUN
1759319645.28811,2.556858,2.550124,-0.344017,0.237172,-0.910563,-0.206124,11.60,4,RUN
1759319645.30824,2.521843,-0.07033,0.869394,1.119819,-0.47814,-0.166312,11.62,4,RUN
1759319645.32890,1.756745,-2.790592,1.284938,2.284274,-0.449585,0.048385,11.64,4,RUN
1759319645.34896,0.155174,-3.17531,2.481141,2.957056,-1.059855,-0.022062,11.66,4,RUN
1759319645.36893,-3.085228,1.883189,0.858172,4.194247,-0.432931,-0.536009,11.68,4,RUN
1759319645.38798,-6.577022,10.274567,1.257255,4.291227,-0.33936,0.610161,11.70,4,RUN
1759319645.40810,-7.645733,34.900727,-4.462642,4.62231,0.27493,1.494201,11.72,4,RUN
1759319645.42892,-7.841609,45.056032,-13.643807,3.45211,1.6454,-0.431909,11.74,4,RUN
1759319645.44892,-7.932289,33.381755,-6.108506,2.446657,5.267447,-0.143015,11.76,4,RUN
1759319645.46893,-1.956512,23.998879,-2.158223,2.427541,2.715474,-0.083124,11.78,4,RUN
1759319645.48793,9.954193,18.278832,6.158336,2.026212,-1.513852,0.016248,11.80,4,RUN
1759319645.50796,10.977714,17.700931,4.049642,1.624948,-4.977129,1.64885,11.82,4,RUN
1759319645.52892,0.999579,-0.731429,4.74037,1.941677,-6.516482,0.826738,11.84,4,RUN
1759319645.54821,-7.796418,-16.769288,-10.377667,1.221461,-3.237086,0.12394,11.86,4,RUN
1759319645.56892,-2.884714,-11.275792,3.128324,-0.394194,0.356247,-0.940997,11.88,4,RUN
1759319645.58892,-2.124106,-7.013963,8.550293,-0.655386,0.84299,-0.648261,11.90,4,RUN
1759319645.60796,-3.510349,-6.896947,5.901408,-1.781034,0.977745,0.141591,11.92,4,RUN
1759319645.62892,-5.852925,-4.458153,2.692429,-3.232793,0.782488,0.459839,11.94,4,RUN
1759319645.64791,-5.332186,-0.467169,-1.142483,-4.023289,0.217093,0.383563,11.96,4,RUN
1759319645.66893,-0.476895,8.140286,-6.21415,-2.208158,2.327367,-0.515435,11.98,4,RUN
1759319645.68892,3.713407,20.791995,-7.486818,1.527032,2.3834,-0.898927,12.00,4,RUN
1759319645.70860,7.208492,10.281749,-4.623952,3.305858,-1.361733,-0.401752,12.02,4,RUN
1759319645.72893,1.80837,4.663157,1.950526,4.015388,-0.399079,-0.480102,12.04,4,RUN
1759319645.74893,-11.713632,7.080702,9.352799,0.457417,4.491435,0.589697,12.06,4,RUN
1759319645.76893,-8.244284,15.152753,7.780108,-4.099582,-0.348499,-0.100568,12.08,4,RUN
1759319645.78893,-2.181716,23.202508,13.120375,-5.73818,0.450081,-2.60343,12.10,4,RUN
1759319645.80846,4.200926,41.77433,1.093103,-4.500744,-3.634404,-1.89985,12.12,4,RUN
1759319645.82894,-0.901118,31.455171,-6.961291,-3.923392,-4.644665,0.606422,12.14,4,RUN
1759319645.84891,-5.072715,21.883153,-10.540473,-3.877745,-3.089458,2.67772,12.16,4,RUN
1759319645.86894,-11.659164,11.440244,-15.8764,-3.633446,0.634749,3.244994,12.18,4,RUN
1759319645.88894,-8.516175,2.074875,-10.943896,-2.131614,4.301538,1.367852,12.20,4,RUN
1759319645.90832,-3.61719,2.348113,-1.279701,-1.910395,3.712745,-0.146896,12.22,4,RUN
1759319645.92894,-0.210989,0.750582,0.508768,-1.942987,3.488493,-0.370167,12.24,4,RUN
1759319645.94892,4.910508,4.487781,5.763741,-1.260318,1.422933,-0.178173,12.26,4,RUN
1759319645.96894,4.117129,2.20476,-1.472135,0.150681,-0.81974,0.079837,12.28,4,RUN
1759319645.98895,2.799271,-1.583615,0.587178,1.328636,-0.752787,0.057187,12.30,4,RUN
1759319646.00818,1.428889,-3.87726,2.765901,1.713548,-1.313705,-0.157146,12.32,4,RUN
1759319646.02876,0.522535,-3.4683,2.645742,2.86242,-1.268462,-0.413796,12.34,4,RUN
1759319646.04867,-1.554585,1.666065,0.436194,4.264334,-0.414739,-0.163477,12.36,4,RUN
1759319646.06895,-3.629909,5.546617,2.053776,4.287494,-1.512474,0.213008,12.38,4,RUN
1759319646.08896,-9.431957,22.773347,-1.356016,4.463485,-1.448647,0.757011,12.40,4,RUN
1759319646.10803,-8.772804,42.206783,-12.076952,5.003156,1.675272,1.061154,12.42,4,RUN
1759319646.12896,-11.531074,43.486932,-14.280964,2.224914,6.078532,-0.629278,12.44,4,RUN
1759319646.14896,-2.492514,28.315325,-4.687697,2.156292,3.410713,0.150719,12.46,4,RUN
1759319646.16897,8.492533,22.92897,7.2468,1.854314,0.361468,0.325699,12.48,4,RUN
1759319646.18893,10.281001,19.405453,6.208315,1.544891,-4.398786,1.755294,12.50,4,RUN
1759319646.20893,6.122871,3.475782,8.983344,1.939935,-6.237922,1.094695,12.52,4,RUN
1759319646.22900,-7.692271,-10.77286,-8.344691,2.214164,-6.027099,0.399098,12.54,4,RUN
1759319646.24896,-4.000112,-17.464205,-1.598728,0.211392,-0.949135,-0.785887,12.56,4,RUN
1759319646.26896,-1.306935,-6.548291,8.933664,-0.706351,0.331851,-1.253846,12.58,4,RUN
1759319646.28897,-4.087351,-6.175544,7.834875,-1.552576,1.438097,-0.30169,12.60,4,RUN
1759319646.30847,-5.596297,-5.253627,3.512443,-2.994255,1.789811,0.390018,12.62,4,RUN
1759319646.32896,-7.699004,-1.360505,3.919907,-4.509037,0.258962,0.57782,12.64,4,RUN
1759319646.34897,-3.583372,4.54195,-7.219416,-3.259624,0.955248,-0.253763,12.66,4,RUN
1759319646.36897,4.74441,19.051112,-12.778453,0.959504,3.01575,-0.969061,12.68,4,RUN
1759319646.38896,8.897153,15.282937,-3.95552,3.612301,-0.557608,-0.588476,12.70,4,RUN
1759319646.40894,3.570353,8.463204,-3.393781,4.947692,-0.880156,-0.446549,12.72,4,RUN
1759319646.42898,-12.720244,8.91077,10.056096,1.10793,6.544672,0.066233,12.74,4,RUN
1759319646.44897,-8.284387,14.126538,8.805724,-4.116684,-0.271362,-0.402989,12.76,4,RUN
1759319646.46897,-4.531326,23.638552,12.423512,-5.41241,-0.929788,-2.588069,12.78,4,RUN
1759319646.48895,0.002245,36.188059,8.219893,-5.028637,-5.573755,-2.159638,12.80,4,RUN
1759319646.50895,-0.117017,34.846109,-1.831415,-3.710169,-5.815907,0.13232,12.82,4,RUN
1759319646.52895,-6.682067,19.758299,-22.946178,-4.005,-4.500623,1.983759,12.84,4,RUN
1759319646.54898,-7.833678,12.0364,-15.367483,-4.183372,0.710036,2.553906,12.86,4,RUN
1759319646.56900,-7.368754,4.708646,-7.590218,-1.997066,4.096015,2.094624,12.88,4,RUN
1759319646.58896,-6.317999,0.005237,-3.211672,-2.7275,5.199625,0.549439,12.90,4,RUN
1759319646.60848,-4.007295,-1.61444,1.059434,-2.331554,4.616264,0.051529,12.92,4,RUN
1759319646.62900,4.471321,1.699135,2.543091,-0.612386,-0.066785,-0.106978,12.94,4,RUN
1759319646.64896,3.402909,-0.231489,-0.332644,0.956852,0.295902,0.300963,12.96,4,RUN
1759319646.66897,2.471265,-1.645116,4.749797,0.665254,-1.062315,-0.310367,12.98,4,RUN
1759319646.68872,2.082058,-2.7665,2.969558,1.220337,-1.553423,-0.380085,13.00,4,RUN
1759319646.70897,-0.108188,-1.536329,3.909731,3.562083,-1.838246,-0.40529,13.02,4,RUN
1759319646.72897,-1.463755,4.16621,2.9109,3.780813,-2.203874,-0.199637,13.04,4,RUN
1759319646.74897,-7.732822,22.199187,1.801188,4.444101,-1.594814,-0.287344,13.06,4,RUN
1759319646.76898,-11.026047,41.971851,-9.403377,4.989629,0.992727,1.741215,13.08,4,RUN
1759319646.78898,-13.22138,41.250898,-6.672191,3.3885,6.752953,0.393659,13.10,4,RUN
1759319646.80897,-6.931363,29.721021,-4.603751,2.535875,4.171112,0.503605,13.12,4,RUN
1759319646.82899,1.100136,20.870106,-1.328782,2.601355,1.812404,-0.514681,13.14,4,RUN
1759319646.84899,12.505364,22.030546,10.099341,2.078792,-2.116286,0.451709,13.16,4,RUN
1759319646.86900,8.883236,11.03712,9.251345,2.142874,-4.703805,1.560227,13.18,4,RUN
1759319646.88901,-1.634342,-6.012289,1.637933,3.431565,-7.053758,0.474658,13.20,4,RUN
1759319646.90851,-5.28535,-20.268114,-8.899696,1.131756,-3.026347,-0.394794,13.22,4,RUN
1759319646.92899,-3.034501,-10.58282,6.240936,-0.770387,0.456233,-1.482424,13.24,4,RUN
1759319646.94900,-2.466327,-7.07726,9.97589,-1.58151,0.853864,-1.071088,13.26,4,RUN
1759319646.96901,-4.502745,-3.615544,1.074548,-2.753052,0.898139,-0.126891,13.28,4,RUN
1759319646.98900,-5.95019,-1.404199,2.224064,-4.033585,0.549978,0.307989,13.30,4,RUN
1759319647.00863,-3.48491,3.400515,-5.236718,-2.944499,0.815283,-0.244219,13.32,4,RUN
1759319647.02873,1.985691,14.713117,-10.952724,0.532317,2.892093,-0.425781,13.34,4,RUN
1759319647.04807,6.049399,17.674146,-1.857152,2.46263,0.864394,-0.418182,13.36,4,RUN
1759319647.06895,6.062568,10.515483,-9.613917,5.10218,-1.1129,-0.021934,13.38,4,RUN
1759319647.08901,-10.662876,6.951116,10.045621,1.740592,4.183553,-0.059795,13.40,4,RUN
1759319647.10824,-7.828441,11.862371,7.318326,-1.351039,1.505826,-0.544118,13.42,4,RUN
1759319647.12813,-4.957045,16.778116,5.705532,-4.804361,-0.961019,-2.306463,13.44,4,RUN
1759319647.14901,-0.263661,35.332132,11.127052,-4.365922,-3.956524,-1.917651,13.46,4,RUN
1759319647.16880,0.463428,38.050748,0.741155,-4.509377,-5.39395,0.122849,13.48,4,RUN
1759319647.18895,-1.918354,25.832987,-4.412663,-5.174238,-3.925623,2.936256,13.50,4,RUN
1759319647.20899,-17.22658,14.62528,-34.348115,-5.702736,0.328126,3.204605,13.52,4,RUN
1759319647.22901,-11.031583,4.552724,-10.744279,-2.145067,5.486775,1.640928,13.54,4,RUN
1759319647.24902,-3.688717,5.371391,2.717419,-1.286698,4.832488,0.273889,13.56,4,RUN
1759319647.26865,-2.904765,0.343418,5.228488,-1.663792,2.895561,-0.036578,13.58,4,RUN
1759319647.28878,5.361815,-0.481534,3.033454,-0.560064,-0.232386,-0.496919,13.60,4,RUN
1759319647.30833,5.426608,0.94541,-4.194492,-0.098254,-1.763217,-0.003438,13.62,4,RUN
1759319647.32904,4.584597,-1.099836,-4.327968,0.904625,-0.582376,0.12534,13.64,4,RUN
1759319647.34902,1.756297,-1.956512,2.719963,0.988486,-0.384696,-0.340664,13.66,4,RUN
1759319647.36852,0.833631,-1.806724,6.306028,1.631927,-1.276065,-0.558594,13.68,4,RUN
1759319647.38852,-1.319205,1.422754,-3.092111,3.161032,-0.977503,-0.03667,13.70,4,RUN
1759319647.40870,-1.291522,4.022259,3.586065,3.830121,-0.696625,-0.267985,13.72,4,RUN
1759319647.42857,-5.060444,12.205341,1.20997,3.559567,-1.154712,-0.511705,13.74,4,RUN
1759319647.44903,-7.263858,37.962013,-4.270059,4.269384,0.116145,0.927964,13.76,4,RUN
1759319647.46830,-7.842357,45.87859,-5.532551,4.332091,4.991409,0.735627,13.78,4,RUN
1759319647.48837,-9.634417,36.502597,-4.140772,2.505198,3.609937,0.420907,13.80,4,RUN
1759319647.50901,-3.217807,22.467488,-5.148132,2.693841,0.891737,-0.042225,13.82,4,RUN
1759319647.52867,8.415768,17.010055,3.573047,2.271867,-2.006729,-0.023282,13.84,4,RUN
1759319647.54904,11.779622,11.875988,7.561338,1.821265,-3.616158,1.331671,13.86,4,RUN
1759319647.56808,3.103783,-0.064643,2.37849,2.18887,-5.352421,0.879783,13.88,4,RUN
1759319647.58823,-5.27308,-12.981212,-3.240702,1.744765,-3.865396,0.155946,13.90,4,RUN
1759319647.60901,-2.755128,-14.537144,2.909853,-0.302659,-1.062476,-0.80979,13.92,4,RUN
1759319647.62902,-2.823063,-8.090007,9.553164,-1.324874,0.557296,-0.952932,13.94,4,RUN
1759319647.64909,-4.144513,-6.299893,4.180875,-2.372211,1.736462,-0.143627,13.96,4,RUN
1759319647.66904,-6.535273,-2.811391,3.419818,-3.920362,1.221001,0.831623,13.98,4,RUN
1759319647.68808,-4.640262,0.534356,-3.25372,-3.823296,-0.559013,0.487521,14.00,4,RUN
1759319647.70902,-0.559645,14.087931,-14.977976,0.397075,2.456238,-0.684644,14.02,4,RUN
1759319647.72904,4.205266,20.807258,-3.049165,3.142147,1.967332,-0.844702,14.04,4,RUN
1759319647.74905,8.297555,5.974581,-6.450578,4.373509,-2.436967,-0.136924,14.06,4,RUN
1759319647.76904,-6.083517,5.147982,5.740697,1.817343,2.548899,-0.17585,14.08,4,RUN
1759319647.78903,-9.976189,13.406332,7.112575,-0.920855,5.165476,-0.004897,14.10,4,RUN
1759319647.80881,-7.424868,17.719486,3.211223,-6.089446,0.042845,-2.249546,14.12,4,RUN
1759319647.82905,2.335993,38.924631,18.985271,-4.548894,-3.930688,-2.551696,14.14,4,RUN
1759319647.84882,1.041178,35.902251,1.255011,-3.216581,-7.625463,-0.227695,14.16,4,RUN
1759319647.86905,-5.8429,22.87944,-19.359215,-3.044769,-5.806163,2.228287,14.18,4,RUN
1759319647.88905,-8.63828,15.233557,-17.796251,-4.732931,0.446714,3.638187,14.20,4,RUN
1759319647.90903,-12.546066,7.578097,-10.25242,-2.475038,5.639496,2.842598,14.22,4,RUN
1759319647.92904,-6.084115,2.320281,0.778564,-1.564555,4.17693,0.708458,14.24,4,RUN
1759319647.94906,-2.184859,0.929698,-0.180463,-1.727495,3.247211,-0.348111,14.26,4,RUN
1759319647.96906,3.103634,-0.393397,0.84216,-1.632338,1.682479,-0.629106,14.28,4,RUN
1759319647.98905,5.283554,1.609203,-0.371849,-0.163344,-0.183799,-0.043107,14.30,4,RUN
1759319648.00903,3.093757,-0.023792,1.631798,0.498506,-0.158533,-0.25488,14.32,4,RUN
1759319648.02906,2.50643,-1.269226,1.804031,1.177674,-0.755282,-0.070361,14.34,4,RUN
1759319648.04905,0.569221,-3.610905,4.592528,2.511821,-1.350424,0.079643,14.36,4,RUN
1759319648.06906,-1.675193,1.190218,-0.631321,3.882192,-1.634315,-0.104435,14.38,4,RUN
1759319648.08907,-3.486556,5.844994,3.196858,4.610374,-1.842743,-0.145566,14.40,4,RUN
1759319648.10904,-7.780856,11.313501,-1.708562,4.11064,-2.328374,0.025973,14.42,4,RUN
1759319648.12880,-9.681403,33.587507,-8.189516,4.44453,0.201438,0.456393,14.44,4,RUN
1759319648.14907,-7.904606,42.69909,-11.644948,3.513624,4.89623,0.15824,14.46,4,RUN
1759319648.16907,-6.616526,34.336144,-3.601029,1.973179,5.122421,-0.050246,14.48,4,RUN
1759319648.18907,-1.419313,22.629545,-4.068646,1.790893,1.764363,-0.178875,14.50,4,RUN
1759319648.20904,8.464251,17.261296,5.684284,1.520953,-1.450414,0.043484,14.52,4,RUN
1759319648.22908,9.50513,15.440356,7.362619,1.661603,-4.80255,0.932805,14.54,4,RUN
1759319648.24908,2.874089,1.704821,5.320664,2.07503,-4.993459,0.759453,14.56,4,RUN
1759319648.26907,-6.340445,-13.000665,-6.019771,1.495255,-4.814034,0.368195,14.58,4,RUN
1759319648.28858,-2.534562,-14.815918,-0.30137,-0.649287,-0.419367,-0.808609,14.60,4,RUN
1759319648.30905,-1.351228,-7.13502,10.664522,-1.49171,0.772739,-1.126759,14.62,4,RUN
1759319648.32908,-2.668787,-4.687697,4.343231,-2.370588,0.973266,-0.23304,14.64,4,RUN
1759319648.34908,-5.980117,-2.539051,1.582268,-3.968318,1.531832,0.839449,14.66,4,RUN
1759319648.36907,-5.835118,0.478391,-1.182287,-4.092407,0.927799,0.607597,14.68,4,RUN
1759319648.38849,-1.105373,15.076737,-12.891728,-0.510984,3.08631,-0.577531,14.70,4,RUN
1759319648.40905,5.961712,20.506487,-4.179528,2.935826,1.343482,-0.766157,14.72,4,RUN
1759319648.42908,7.833229,4.938041,-6.90398,4.954273,-2.293854,-0.334899,14.74,4,RUN
1759319648.44908,-7.636456,3.971382,7.660099,1.817238,3.330973,-0.328077,14.76,4,RUN
1759319648.46908,-10.400412,14.405612,4.301333,-0.343779,4.86806,-0.237206,14.78,4,RUN
1759319648.48831,-6.395661,16.724097,4.166509,-5.851705,-0.9311,-1.98392,14.80,4,RUN
1759319648.50906,0.700603,40.398861,15.31481,-5.167293,-3.934003,-2.308021,14.82,4,RUN
1759319648.52909,1.217601,36.341138,2.794333,-4.126328,-7.253088,-0.206286,14.84,4,RUN
1759319648.54876,-4.639963,21.443518,-20.63308,-3.378525,-5.304482,1.585783,14.86,4,RUN
1759319648.56910,-6.529736,15.510686,-14.754717,-4.760672,0.114343,3.396246,14.88,4,RUN
1759319648.58886,-13.107506,7.537695,-9.723601,-2.164282,5.011598,2.921996,14.90,4,RUN
1759319648.60907,-7.719355,-0.964115,-1.287033,-1.661916,4.554154,0.974298,14.92,4,RUN
1759319648.62908,-3.041384,-2.975394,0.962768,-1.7597,3.14111,-0.411265,14.94,4,RUN
1759319648.64909,5.669619,3.299958,3.727922,-0.931021,0.990364,-0.824942,14.96,4,RUN
1759319648.66910,7.192331,3.130269,-5.13257,-0.000183,-0.932331,-0.163929,14.98,4,RUN
1759319648.68841,3.273622,0.710479,-0.813879,0.942538,0.640684,0.017564,15.00,4,RUN
1759319648.70818,1.111059,-1.435773,5.745186,0.985258,-0.38775,0.193834,15.02,4,RUN
1759319648.72911,-0.897676,-3.986495,3.605219,2.507256,-1.654791,0.038426,15.04,4,RUN
1759319648.74910,-3.612401,0.527323,-0.613065,4.276633,-1.696199,-0.541209,15.06,4,RUN
1759319648.76914,-5.485415,8.63394,2.74585,4.286746,-2.369104,-0.379603,15.08,4,RUN
1759319648.78819,-8.388534,21.890036,-2.224363,3.917468,-1.476111,-0.02146,15.10,4,RUN
1759319648.80908,-6.59408,44.551304,-10.55828,4.738162,2.529159,0.708166,15.12,4,RUN
1759319648.82913,-11.09922,38.035185,-7.731027,2.483004,5.473652,0.234116,15.14,4,RUN
1759319648.84911,-5.899463,27.40478,-3.874417,2.439246,3.903134,0.283501,15.16,4,RUN
1759319648.86910,3.17546,18.210747,0.432902,2.23314,1.415337,-0.626761,15.18,4,RUN
1759319648.88911,11.206809,17.997962,9.651177,2.112718,-2.123837,-0.117856,15.20,4,RUN
1759319648.90908,8.189666,11.150695,6.967875,1.953574,-3.69622,0.95849,15.22,4,RUN
1759319648.92912,-1.941398,-3.910928,0.851139,2.176612,-5.298545,0.435733,15.24,4,RUN
1759319648.94902,-3.279458,-16.434399,-5.284003,0.979211,-3.97307,-0.235446,15.26,4,RUN
1759319648.96813,-0.559345,-10.375423,3.30759,-0.950143,-0.677569,-1.039428,15.28,4,RUN
1759319648.98895,-2.873042,-8.333468,7.674613,-1.769942,1.267204,-0.697155,15.30,4,RUN
1759319649.00909,-4.65777,-5.187337,2.305018,-3.145948,1.37437,0.378685,15.32,4,RUN
1759319649.02912,-3.711461,-2.42787,2.312051,-4.633385,0.415152,0.760444,15.34,4,RUN
1759319649.04912,-1.815703,7.542334,-6.640618,-2.851167,2.545932,-0.150831,15.36,4,RUN
1759319649.06912,0.693121,22.690747,-10.334721,2.0289,3.081651,-0.188863,15.38,4,RUN
1759319649.08876,7.633014,11.020061,-2.030283,3.419486,-1.064847,-0.141766,15.40,4,RUN
1759319649.10910,0.249895,1.167473,4.911106,4.063235,-2.400091,-0.559951,15.42,4,RUN
1759319649.12916,-11.23524,7.603685,5.83437,0.997027,5.480096,-0.254393,15.44,4,RUN
1759319649.14912,-6.167463,15.402348,5.721693,-3.871674,-1.47365,-0.358615,15.46,4,RUN
1759319649.16912,-3.711761,27.625945,11.524789,-5.43358,-0.584622,-2.20337,15.48,4,RUN
1759319649.18863,1.174954,38.790107,8.463503,-5.252519,-5.097001,-1.3262,15.50,4,RUN
1759319649.20910,1.246032,27.014974,-6.038326,-3.769675,-6.183321,0.881695,15.52,4,RUN
1759319649.22912,-5.542876,19.091663,-17.170915,-4.115701,-2.71777,2.014539,15.54,4,RUN
1759319649.24913,-5.170278,13.644705,-8.768913,-3.754113,1.294885,3.092153,15.56,4,RUN
1759319649.26911,-11.822867,5.869984,-9.842264,-1.599467,3.043991,2.132269,15.58,4,RUN
1759319649.28847,-6.457012,2.666991,-2.769044,-1.631246,3.173635,0.315745,15.60,4,RUN
1759319649.30894,-2.290802,0.164302,-0.389207,-1.646123,3.616444,-0.559188,15.62,4,RUN
1759319649.32913,4.576217,-0.558448,-0.273238,-0.991921,2.249423,-0.462649,15.64,4,RUN
1759319649.34897,3.912724,2.110189,3.319561,0.621381,0.658181,-0.76868,15.66,4,RUN
1759319649.36914,2.428319,1.816301,5.901408,0.734224,-0.41353,-0.889971,15.68,4,RUN
1759319649.38833,3.148674,-1.377713,0.535254,2.002148,-1.697526,0.066064,15.70,4,RUN
1759319649.40911,1.029058,-4.304026,1.378162,3.174229,-1.797082,0.323584,15.72,4,RUN
1759319649.42914,-3.29083,1.835904,-2.173187,4.185459,-1.316494,-0.207138,15.74,4,RUN
1759319649.44885,-5.539135,8.347983,1.927781,3.914997,-2.050662,0.052532,15.76,4,RUN
1759319649.46899,-8.05589,20.464738,-0.546477,3.440328,-0.859258,0.559836,15.78,4,RUN
1759319649.48819,-6.154744,42.668564,-6.900388,4.435465,2.571488,0.897762,15.80,4,RUN
1759319649.50859,-10.613945,40.830416,-6.136189,2.909198,4.999209,0.040673,15.82,4,RUN
1759319649.52915,-5.504719,27.384729,-4.55871,2.745089,1.877812,0.219336,15.84,4,RUN
1759319649.54871,2.204162,21.365856,-4.829404,2.252614,0.292397,-0.208726,15.86,4,RUN
1759319649.56885,10.996568,16.014516,4.349067,1.51496,-1.416767,-0.07056,15.88,4,RUN
1759319649.58914,8.986037,11.448474,4.547188,0.937763,-4.192409,1.876593,15.90,4,RUN
1759319649.60847,-0.815974,-5.373187,4.115333,1.758463,-5.252111,0.263198,15.92,4,RUN
1759319649.62918,-4.158579,-15.324237,-3.197905,1.031774,-3.710814,0.112828,15.94,4,RUN
1759319649.64856,-2.969109,-11.838579,3.403956,-1.050607,-0.367595,-0.697321,15.96,4,RUN
1759319649.66870,-4.353706,-7.481731,6.621314,-2.049584,0.678696,-0.681948,15.98,4,RUN
1759319649.68917,-4.3564,-5.599439,1.444452,-3.940889,1.610952,0.792936,16.00,4,RUN
1759319649.70912,-4.953005,0.225953,-1.052401,-3.884011,0.754845,0.519029,16.02,4,RUN
1759319649.72913,-1.298405,14.688128,-11.713332,0.137783,2.668757,-0.829199,16.04,4,RUN
1759319649.74842,0.179715,20.006997,-7.749731,1.99915,2.485835,-1.13977,16.06,4,RUN
1759319649.76856,8.272565,12.157606,0.009278,3.137288,-1.31505,-0.728306,16.08,4,RUN
1759319649.78894,-2.805555,5.042338,5.080496,2.590342,1.969797,-0.552388,16.10,4,RUN
1759319649.80913,-12.757952,13.7086,4.691887,-0.570442,5.830304,-0.237742,16.12,4,RUN
1759319649.82921,-7.327753,14.331392,3.22888,-5.605595,-0.351957,-1.243394,16.14,4,RUN
1759319649.84828,-3.247136,22.406436,13.799729,-5.209743,-0.002833,-1.882596,16.16,4,RUN
1759319649.86840,2.086098,39.308452,2.897433,-3.173769,-5.105697,-1.008693,16.18,4,RUN
1759319649.88915,-1.753902,27.964126,-9.805303,-3.712212,-5.4129,1.159905,16.20,4,RUN
1759319649.90885,-4.728997,17.117045,-9.196877,-3.900454,-2.312597,3.241275,16.22,4,RUN
1759319649.92917,-12.10224,6.601113,-14.194473,-3.354753,1.102858,3.22292,16.24,4,RUN
1759319649.94917,-7.243657,0.022595,-7.450307,-1.211454,4.456754,1.397911,16.26,4,RUN
1759319649.96827,-5.238962,0.58613,-1.971924,-1.656589,3.80729,-0.121371,16.28,4,RUN
1759319649.98917,1.059285,0.175226,0.538097,-1.507556,3.242683,-0.473476,16.30,4,RUN
1759319650.00887,4.441693,3.549703,3.101539,-1.027313,1.282228,-0.342607,16.32,4,RUN
1759319650.02916,4.205714,1.51972,-1.292719,0.652463,0.626837,-0.133987,16.34,4,RUN
1759319650.04917,2.682254,-0.706439,4.010138,1.203215,-0.958863,0.074487,16.36,4,RUN
1759319650.06917,0.383521,-3.277512,5.107131,1.973966,-3.043085,0.145368,16.38,4,RUN
1759319650.08918,-1.80837,-2.234239,-0.956783,3.379292,-2.485757,0.031446,16.40,4,RUN
1759319650.10914,-3.743484,5.436933,2.28766,3.956653,-2.055116,-0.051564,16.42,4,RUN
1759319650.12917,-6.588693,15.720478,1.035193,3.974589,-1.698501,0.174757,16.44,4,RUN
1759319650.14918,-7.695563,40.604762,-7.428759,4.187253,0.102486,0.625394,16.46,4,RUN
1759319650.16877,-11.030386,40.946086,-6.978948,3.685347,6.332919,0.328472,16.48,4,RUN
1759319650.18915,-6.603507,29.544,-2.456152,2.244261,3.822475,0.074235,16.50,4,RUN
1759319650.20915,-1.126173,22.890364,-3.715202,2.181628,1.390122,-0.538406,16.52,4,RUN
1759319650.22920,10.074052,19.254469,7.826795,1.815429,-2.25774,0.085625,16.54,4,RUN
1759319650.24918,7.823802,9.248053,3.22499,1.872068,-4.305489,0.835158,16.56,4,RUN
1759319650.26864,0.706888,0.220865,-0.413,1.538769,-4.502132,0.593262,16.58,4,RUN
1759319650.28918,-2.930652,-13.11005,-3.245191,0.526725,-3.192801,-0.274813,16.60,4,RUN
1759319650.30884,-0.538845,-11.116578,1.019631,-0.658315,-1.025844,-1.028576,16.62,4,RUN
1759319650.32923,-1.087267,-7.909844,6.743119,-1.080938,0.821076,-1.126944,16.64,4,RUN
1759319650.34919,-6.045658,-4.680964,2.327014,-2.055825,2.069178,0.033213,16.66,4,RUN
1759319650.36850,-6.245724,-3.465757,3.749918,-4.102026,1.040676,1.34188,16.68,4,RUN
1759319650.38919,-4.670339,2.905813,-4.022408,-3.329828,1.230951,0.147381,16.70,4,RUN
1759319650.40917,1.594538,19.861549,-13.104214,1.375073,3.068453,-0.546052,16.72,4,RUN
1759319650.42848,10.184934,12.425607,-4.069395,3.491541,-0.124268,-0.272049,16.74,4,RUN
1759319650.44856,3.970634,3.135207,-3.485509,4.568843,-1.61562,-0.686088,16.76,4,RUN
1759319650.46834,-10.225336,4.624251,10.431537,1.061933,4.145883,-0.208693,16.78,4,RUN
1759319650.48919,-7.737611,15.156494,4.878336,-0.502847,0.763269,-0.472392,16.80,4,RUN
1759319650.50837,-5.834819,18.207155,4.559308,-5.352606,-1.049757,-2.630646,16.82,4,RUN
1759319650.52920,-1.285986,43.753437,11.254843,-5.089076,-2.801187,-2.473283,16.84,4,RUN
1759319650.54919,2.583493,37.915625,4.398597,-4.290315,-4.957966,0.710381,16.86,4,RUN
1759319650.56820,-4.008492,22.115989,-12.329241,-4.210921,-5.876651,2.729475,16.88,4,RUN
1759319650.58854,-12.23048,12.498331,-19.557485,-4.324037,0.532749,2.822006,16.90,4,RUN
1759319650.60921,-10.137349,5.329493,-8.973318,-2.156826,3.957238,2.018488,16.92,4,RUN
1759319650.62826,-5.915324,1.66397,-2.525284,-1.007359,4.27396,0.733305,16.94,4,RUN
1759319650.64920,-3.328539,-1.198747,0.284162,-1.793316,4.213768,-0.574883,16.96,4,RUN
1759319650.66920,4.974104,1.042824,1.271022,-1.236228,3.095316,-0.786513,16.98,4,RUN
1759319650.68920,5.985355,3.20434,0.296432,-0.569693,1.031205,-0.052538,17.00,4,RUN
1759319650.70917,4.161422,0.927155,1.939303,0.580153,0.651242,-0.045608,17.02,4,RUN
1759319650.72920,2.032079,-1.149067,3.679439,1.482564,-1.453144,0.251497,17.04,4,RUN
1759319650.74920,-0.443526,-3.671359,2.50224,2.771249,-2.829029,0.12145,17.06,4,RUN
1759319650.76919,-3.357269,0.656759,-0.974889,4.293347,-2.062529,-0.261999,17.08,4,RUN
1759319650.78875,-5.891382,6.639869,0.141108,3.796986,-2.931615,-0.172821,17.10,4,RUN
1759319650.80864,-7.927202,15.206921,-3.015198,3.927525,-1.047272,-0.435799,17.12,4,RUN
1759319650.82921,-7.60159,40.920947,-9.147496,4.017772,2.549076,0.636397,17.14,4,RUN
1759319650.84921,-8.1138,45.816042,-7.053468,2.08907,6.735607,0.104029,17.16,4,RUN
1759319650.86921,-5.026177,31.021222,-0.532261,1.994619,3.832111,0.651346,17.18,4,RUN
1759319650.88921,1.117643,21.182699,-0.738013,1.754894,-0.026747,0.36332,17.20,4,RUN
1759319650.90912,8.756942,16.930747,7.827094,1.733641,-3.516148,0.781726,17.22,4,RUN
1759319650.92894,6.892458,6.279392,5.135413,2.271083,-4.706369,0.576201,17.24,4,RUN
1759319650.94919,1.24708,-2.92362,2.004096,2.235142,-4.955767,0.386453,17.26,4,RUN
1759319650.96921,-3.929633,-13.23365,-3.783886,1.303671,-2.792785,0.26699,17.28,4,RUN
1759319650.98922,-3.128773,-12.884546,1.844732,-0.646554,-0.119841,-0.479421,17.30,4,RUN
1759319651.00919,-5.304503,-8.46889,7.039402,-1.592656,1.364233,-0.521152,17.32,4,RUN
1759319651.02922,-4.637868,-5.570858,1.972822,-3.025452,1.89485,0.362442,17.34,4,RUN
1759319651.04921,-5.781099,-1.890222,4.531176,-4.241441,1.271849,0.583327,17.36,4,RUN
1759319651.06899,-3.432537,5.112219,-3.244293,-3.135287,0.203314,-0.16616,17.38,4,RUN
1759319651.08922,2.687342,17.621474,-11.561151,1.194638,2.056618,-0.617419,17.40,4,RUN
1759319651.10923,6.413168,16.118065,-2.112883,3.377778,-0.14198,-0.498328,17.42,4,RUN
1759319651.12922,3.110068,9.98008,-3.652055,5.033259,-0.591424,-0.292507,17.44,4,RUN
1759319651.14875,-13.244724,7.056012,7.524228,0.760551,4.6852,0.117146,17.46,4,RUN
1759319651.16923,-6.23914,12.225243,6.451476,-3.107841,-1.171909,-0.422756,17.48,4,RUN
1759319651.18926,-2.477699,18.862718,11.101464,-4.898128,-0.3583,-2.524174,17.50,4,RUN
1759319651.20907,1.352574,37.389798,9.447819,-4.239015,-5.160633,-2.070151,17.52,4,RUN
1759319651.22927,1.508197,34.882022,-15.298949,-3.221143,-4.615919,0.229525,17.54,4,RUN
1759319651.24923,-3.025223,23.001095,-10.171466,-4.016262,-2.719797,2.569876,17.56,4,RUN
1759319651.26921,-4.928464,13.558364,-5.397728,-3.072802,-0.296578,3.403733,17.58,4,RUN
1759319651.28923,-10.120739,4.018069,-10.7977,-2.158731,1.752222,2.750828,17.60,4,RUN
1759319651.30920,-10.155904,-0.796521,-7.797167,-1.720865,3.762473,1.297725,17.62,4,RUN
1759319651.32918,-6.222829,-2.922273,-1.150564,-1.917909,3.835306,-0.206431,17.64,4,RUN
1759319651.34924,2.236933,0.588525,2.397793,-1.35522,2.380768,-0.907264,17.66,4,RUN
1759319651.36923,4.744859,3.293973,0.634164,-0.242744,1.532971,-0.400166,17.68,4,RUN
1759319651.38924,4.52953,1.799691,5.019593,0.487564,0.48447,-0.620675,17.70,4,RUN
1759319651.40921,3.966294,-1.268927,2.803461,1.847086,-1.21882,0.183354,17.72,4,RUN
1759319651.42905,1.026664,-3.617938,1.630302,2.722561,-2.114985,0.360585,17.74,4,RUN
1759319651.44919,-2.67567,1.006612,-1.848922,4.115492,-1.097198,0.002932,17.76,4,RUN
1759319651.46924,-6.135142,5.937171,1.679383,4.147888,-1.398476,-0.401576,17.78,4,RUN
1759319651.48924,-9.528174,16.870443,-1.831564,3.847345,-1.021153,-0.041971,17.80,4,RUN
1759319651.50921,-7.85777,40.175901,-7.526771,4.410265,1.978559,1.05783,17.82,4,RUN
1759319651.52890,-5.478233,44.349892,-8.838944,2.722924,4.383411,-0.310726,17.84,4,RUN
1759319651.54903,-2.72116,29.160628,-4.510676,2.282016,2.540033,0.137596,17.86,4,RUN
1759319651.56882,0.963816,23.121404,-2.268057,1.778262,0.669739,-0.100351,17.88,4,RUN
1759319651.58924,7.403769,16.003891,4.502446,1.459714,-2.603805,0.276661,17.90,4,RUN
1759319651.60925,7.193229,10.9216,3.994127,1.692474,-4.964884,1.093383,17.92,4,RUN
1759319651.62875,0.604237,-2.690484,3.578883,1.88069,-6.115983,0.546525,17.94,4,RUN
1759319651.64886,-4.276942,-18.656667,-9.127146,0.451649,-3.79641,0.211179,17.96,4,RUN
1759319651.66926,-2.39061,-11.650485,1.501613,-0.847289,-0.223969,-0.841769,17.98,4,RUN
1759319651.68925,-2.826205,-8.324938,8.113351,-1.347759,1.918751,-0.898425,18.00,4,RUN
1759319651.70876,-6.145916,-3.459172,1.468095,-2.805727,2.492475,0.413543,18.02,4,RUN
1759319651.72859,-6.278794,-1.945438,3.069815,-4.339352,1.899307,0.945099,18.04,4,RUN
1759319651.74873,-2.904616,7.086238,-4.007145,-2.869918,1.77894,0.013076,18.06,4,RUN
1759319651.76923,2.632275,21.56652,-12.967146,1.192175,1.897129,-0.336454,18.08,4,RUN
1759319651.78927,8.228871,10.716297,-1.32953,3.392678,-1.079576,-0.432456,18.10,4,RUN
1759319651.80923,2.526332,4.185962,1.723526,4.19533,-1.103898,-0.703926,18.12,4,RUN
1759319651.82845,-10.073903,4.950461,8.268675,0.958584,3.793599,-0.151615,18.14,4,RUN
1759319651.84865,-7.158364,15.106365,8.301445,-1.118875,-0.477214,-0.29697,18.16,4,RUN
1759319651.86925,-5.101296,17.407043,3.143138,-5.296553,-1.291458,-2.165571,18.18,4,RUN
1759319651.88926,-1.165827,39.196822,8.639626,-5.438474,-2.597799,-1.988773,18.20,4,RUN
1759319651.90923,2.185756,35.215265,-4.433762,-4.928746,-3.961656,0.191152,18.22,4,RUN
1759319651.92829,-2.71697,23.846847,-13.435362,-4.269245,-1.563434,2.500854,18.24,4,RUN
1759319651.94845,-6.166416,16.545729,-9.535656,-3.662486,-0.406321,2.8514,18.26,4,RUN
1759319651.96926,-8.294861,5.622783,-9.40607,-1.920704,1.529818,2.378597,18.28,4,RUN
1759319651.98928,-7.142053,1.297208,-3.602226,-1.075896,4.482715,0.918927,18.30,4,RUN
1759319652.00924,-4.985027,-1.056292,0.080954,-1.847727,3.583553,-0.251063,18.32,4,RUN
1759319652.02926,2.334796,-0.886004,0.273837,-0.812542,2.152541,-0.793019,18.34,4,RUN
1759319652.04828,5.068525,2.930652,1.718887,-0.546816,-0.367291,-0.385035,18.36,4,RUN
1759319652.06926,3.41907,1.596633,-0.286107,0.77503,0.58905,-0.026971,18.38,4,RUN
1759319652.08927,2.95235,-0.642095,2.724153,1.128827,-0.443324,-0.025633,18.40,4,RUN
1759319652.10926,1.199495,-2.918532,3.21227,2.655214,-1.207953,0.291947,18.42,4,RUN
1759319652.12928,-1.455525,1.80463,0.916081,3.623611,-1.462854,0.189584,18.44,4,RUN
1759319652.14926,-4.218883,9.574861,1.968034,4.335642,-1.722312,0.087099,18.46,4,RUN
1759319652.16927,-9.36896,26.70298,-1.66397,4.115384,-1.730661,0.812281,18.48,4,RUN
1759319652.18927,-10.179547,40.126521,-11.263372,2.604438,3.921209,0.199058,18.50,4,RUN
1759319652.20877,-12.89921,34.216583,-8.748712,1.749615,5.857094,-0.208689,18.52,4,RUN
1759319652.22928,-4.276643,25.004144,-1.444003,1.911824,3.838075,-0.124844,18.54,4,RUN
1759319652.24933,4.434211,21.207988,4.837036,1.759443,1.755895,-0.70597,18.56,4,RUN
1759319652.26925,7.424569,15.87236,8.051551,2.042824,-1.867212,0.115685,18.58,4,RUN
1759319652.28927,6.147711,9.2904,9.613019,2.502067,-4.485904,0.178347,18.60,4,RUN
1759319652.30925,-1.072453,-2.972701,0.958578,2.100764,-6.440432,0.47838,18.62,4,RUN
1759319652.32928,-2.323722,-15.218294,-5.269488,1.027403,-5.204578,-0.048461,18.64,4,RUN
1759319652.34929,-1.058237,-14.818612,-0.679504,-0.794762,-0.88837,-0.896647,18.66,4,RUN
1759319652.36929,-1.407641,-9.395596,5.5948,-1.594494,1.118482,-0.562529,18.68,4,RUN
1759319652.38928,-4.177882,-5.023185,2.435202,-2.767691,1.840236,0.237776,18.70,4,RUN
1759319652.40877,-4.637419,-1.634791,2.053028,-4.17405,0.597325,0.242298,18.72,4,RUN
1759319652.42929,-0.831087,7.083246,-4.218583,-2.669733,0.940741,-0.450407,18.74,4,RUN
1759319652.44928,2.877531,23.447764,-17.648708,2.002944,2.497402,-0.154072,18.76,4,RUN
1759319652.46928,6.013337,12.848633,-0.208595,3.039709,0.390994,0.089595,18.78,4,RUN
1759319652.48929,0.440084,1.489493,8.340501,3.544014,-1.935898,-0.358532,18.80,4,RUN
1759319652.50879,-15.378556,7.800309,5.320814,1.218076,6.472657,-0.520936,18.82,4,RUN
1759319652.52930,-11.411663,19.226038,3.854365,-2.993639,-3.605162,-0.915362,18.84,4,RUN
1759319652.54929,-1.369034,28.275671,14.355184,-5.208096,-1.14844,-2.423996,18.86,4,RUN
1759319652.56929,1.48246,37.460128,5.414188,-5.452773,-4.897818,-1.420041,18.88,4,RUN
1759319652.58928,2.618209,23.675662,-11.006444,-3.254232,-2.786545,0.471336,18.90,4,RUN
1759319652.60927,-1.954866,20.022708,-7.702446,-4.144625,-1.796358,2.219847,18.92,4,RUN
1759319652.62929,-6.349872,12.835016,-7.626131,-3.338671,0.174796,3.425902,18.94,4,RUN
1759319652.64926,-10.43827,4.349516,-9.953594,-1.393143,1.215102,2.073266,18.96,4,RUN
1759319652.66930,-7.142951,-0.922067,-5.319617,-0.39322,3.287213,0.282128,18.98,4,RUN
1759319652.68903,-4.850054,-3.656993,-0.913388,-1.450099,3.197153,-0.454091,19.00,4,RUN
1759319652.70927,5.180005,1.446397,0.521936,-0.382931,1.325271,-1.146552,19.02,4,RUN
1759319652.72929,6.476315,4.578462,3.862745,-0.502328,0.273036,-0.777748,19.04,4,RUN
1759319652.74930,5.417031,4.809203,0.405668,0.126058,0.167446,-0.40349,19.06,4,RUN
1759319652.76928,3.883096,-3.433884,-0.210091,1.701192,-0.114015,0.736552,19.08,4,RUN
1759319652.78928,-1.887379,1.106869,3.324349,2.715954,-1.26052,0.217475,19.10,4,RUN
1759319652.80927,-3.960309,10.667066,4.199729,4.04073,-2.518751,0.038386,19.12,4,RUN
1759319652.82929,-6.672191,31.485697,3.920356,3.317963,-2.649741,0.939642,19.14,4,RUN
1759319652.84867,-7.768287,40.568849,-6.224775,3.658746,-1.105213,1.382138,19.16,4,RUN
1759319652.86929,-16.298229,39.696013,-5.465663,1.733268,4.037277,0.691668,19.18,4,RUN
1759319652.88929,-6.244676,21.331439,-3.543568,2.210095,3.441645,0.024831,19.20,4,RUN
1759319652.90928,1.723526,17.720534,2.191443,2.271346,1.648998,-0.70698,19.22,4,RUN
1759319652.92930,7.388057,15.326632,7.478139,2.266937,-1.380428,0.024041,19.24,4,RUN
1759319652.94932,8.344541,8.878448,10.254964,2.865563,-3.849506,0.379981,19.26,4,RUN
1759319652.96931,2.269404,0.271592,2.347814,3.125186,-5.472268,0.728229,19.28,4,RUN
1759319652.98932,-0.869544,-9.740061,2.47336,1.710446,-5.433471,0.676985,19.30,4,RUN
1759319653.00929,-3.337367,-16.03322,-3.432088,-0.433492,-2.469351,0.332208,19.32,4,RUN
1759319653.02931,-6.501305,-12.37892,1.02801,-2.126237,2.079559,0.583483,19.34,4,RUN
1759319653.04928,-6.663063,-6.529138,2.110339,-3.33409,2.557259,0.562832,19.36,4,RUN
1759319653.06935,-6.128707,-0.816123,-1.349133,-4.042552,0.771237,-0.040116,19.38,4,RUN
1759319653.08930,0.851438,4.912004,-6.290166,-1.970924,1.419062,-0.585654,19.40,4,RUN
1759319653.10929,3.515137,16.589274,-8.76218,1.530015,2.497857,-0.39912,19.42,4,RUN
1759319653.12933,6.88318,14.797363,0.222361,2.758007,-0.531007,-0.213246,19.44,4,RUN
1759319653.14915,-0.989105,9.165004,3.859303,3.439821,-0.605752,0.052807,19.46,4,RUN
1759319653.16933,-21.299117,20.79409,-3.717746,1.670548,5.159399,-0.483543,19.48,4,RUN
1759319653.18933,-7.186795,15.285631,3.714754,-4.074121,-2.321458,-1.615577,19.50,4,RUN
1759319653.20930,1.658583,25.032276,16.973992,-3.934386,-1.515075,-1.773636,19.52,4,RUN
1759319653.22931,2.359186,29.482947,3.761889,-3.831646,-6.1437,-0.812816,19.54,4,RUN
1759319653.24902,-1.108216,26.250775,-11.724854,-3.056738,-3.946447,0.56007,19.56,4,RUN
1759319653.26932,-4.735132,18.915241,-13.260286,-4.157536,-0.431698,3.076907,19.58,4,RUN
1759319653.28934,-8.608801,10.100538,-8.577227,-3.079416,2.647975,3.069111,19.60,4,RUN
1759319653.30930,-7.44896,3.479074,-3.569156,-1.194724,2.642254,1.88268,19.62,4,RUN
1759319653.32935,-6.578967,-2.127248,-2.561945,-1.834563,2.722052,0.679992,19.64,4,RUN
1759319653.34888,-3.661034,-2.294094,-2.23379,-1.765032,2.890674,-0.568688,19.66,4,RUN
1759319653.36933,3.48491,1.481712,-2.530073,-0.903895,1.808233,-0.920338,19.68,4,RUN
1759319653.38934,4.084209,3.444807,1.805228,0.175437,1.941562,-0.668864,19.70,4,RUN
1759319653.40928,4.410718,3.541772,4.236241,0.745702,-0.098902,-0.365688,19.72,4,RUN
1759319653.42933,4.801871,-2.008885,0.40073,2.022638,-0.896509,0.652615,19.74,4,RUN
1759319653.44877,0.40447,-3.173215,0.709731,2.86948,-1.366452,0.443318,19.76,4,RUN
1759319653.46934,-3.205387,2.678663,1.803582,4.066364,-1.70293,0.053871,19.78,4,RUN
1759319653.48933,-6.506842,7.169587,-1.050606,4.002843,-2.207668,-0.093339,19.80,4,RUN
1759319653.50914,-8.500014,21.701193,-2.168847,3.437054,-0.305387,0.297666,19.82,4,RUN
1759319653.52930,-7.416788,43.09548,-7.809437,3.397672,3.247583,1.251732,19.84,4,RUN
1759319653.54877,-8.59279,41.491215,-2.124854,2.088895,5.917967,0.070275,19.86,4,RUN
1759319653.56933,-5.313182,25.184757,-5.313332,1.870943,1.892702,0.267059,19.88,4,RUN
1759319653.58933,-0.031574,19.562573,-3.430741,1.065698,0.56911,-0.09846,19.90,4,RUN
1759319653.60897,7.382072,14.540436,4.743063,0.71471,-1.844258,0.377558,19.92,4,RUN
1759319653.62914,8.405743,9.689035,3.019537,1.20084,-4.396785,0.822925,19.94,4,RUN
1759319653.64845,1.748366,-3.062483,-0.061052,1.698228,-4.49861,0.484798,19.96,4,RUN
1759319653.66934,-0.277129,-10.911724,0.186598,0.82517,-4.723247,0.110081,19.98,4,RUN
1759319653.68933,-0.196175,-9.642498,4.070292,-0.841509,-2.928119,-0.660918,20.00,4,RUN
1759319653.70884,-2.020407,-8.281544,4.819528,-1.773688,-0.996039,-0.448574,20.02,4,RUN
1759319653.72899,-6.506393,-4.241927,-1.688511,-2.863638,0.903058,1.107656,20.04,4,RUN
1759319653.74933,-7.220763,-2.228104,0.092177,-3.883337,1.040535,1.681172,20.06,4,RUN
1759319653.76939,-4.963928,7.862109,-5.502474,-1.650185,1.876697,-0.35654,20.08,4,RUN
1759319653.78933,-1.214459,20.593277,-10.102035,2.135381,2.201087,-0.494469,20.10,4,RUN
1759319653.80868,6.946028,6.113444,-2.144008,3.49623,-1.016198,-0.284043,20.12,4,RUN
1759319653.82889,3.839851,0.218621,1.838298,4.008003,-1.189093,-0.82755,20.14,4,RUN
1759319653.84936,-8.558822,4.988918,6.357653,0.673514,5.198491,-0.268017,20.16,4,RUN
1759319653.86935,-5.956175,17.282545,9.972448,-1.139033,0.137006,-0.504085,20.18,4,RUN
1759319653.88940,-4.465785,22.879739,6.556072,-4.438979,-1.84148,-1.644671,20.20,4,RUN
1759319653.90865,2.619257,39.216724,-2.795081,-5.242583,-3.347273,-0.97226,20.22,4,RUN
1759319653.92871,1.515081,30.244752,-5.201403,-5.326145,-3.323957,0.1156,20.24,4,RUN
1759319653.94936,-0.898275,21.02558,-3.354277,-3.682584,-3.074439,1.807268,20.26,4,RUN
1759319653.96936,-5.866692,14.983662,-6.586598,-4.132716,-2.82094,2.783802,20.28,4,RUN
1759319653.98935,-12.334927,9.347711,-13.242479,-2.839384,0.847177,3.306786,20.30,4,RUN
1759319654.00850,-10.466552,3.251475,-7.961319,-1.306708,3.514035,0.564309,20.32,4,RUN
1759319654.02855,-1.418265,2.839972,-1.889624,-1.52345,3.109769,-0.042,20.34,4,RUN
1759319654.04896,3.235315,1.712602,4.06311,-0.439509,2.784651,-0.500166,20.36,4,RUN
1759319654.06935,3.879654,2.214637,3.555689,-0.155565,0.287855,-0.452855,20.38,4,RUN
1759319654.08935,3.119495,1.288978,1.198896,1.279963,-0.385711,-0.128263,20.40,4,RUN
1759319654.10933,2.228403,-1.823185,2.898181,1.793244,-1.456698,-0.010037,20.42,4,RUN
1759319654.12839,-1.383549,-4.821024,2.794482,2.803326,-2.629935,-0.040396,20.44,4,RUN
1759319654.14936,-4.061165,2.021903,-1.072153,3.750867,-2.226599,-0.632856,20.46,4,RUN
1759319654.16936,-5.89243,9.707141,2.273893,4.284672,-1.511194,-0.49438,20.48,4,RUN
1759319654.18937,-6.16477,23.322218,-0.823007,3.030689,-0.531095,0.243825,20.50,4,RUN
1759319654.20934,-4.26138,35.175012,-9.045144,4.303021,2.629539,0.302059,20.52,4,RUN
1759319654.22935,-8.292916,28.975077,-7.729381,2.537052,4.81399,-0.034828,20.54,4,RUN
1759319654.24935,-5.292981,23.976284,-3.72448,2.166244,3.666611,-0.232926,20.56,4,RUN
1759319654.26935,0.398485,22.547394,-2.374449,2.161693,1.542766,-1.032901,20.58,4,RUN
1759319654.28938,8.579322,18.029236,2.274791,1.41444,-0.356701,-0.140069,20.60,4,RUN
1759319654.30893,10.522516,13.884574,7.488614,1.179035,-2.495681,1.043203,20.62,4,RUN
1759319654.32937,1.228525,0.68968,3.58427,2.076715,-4.758269,0.586081,20.64,4,RUN
1759319654.34937,-4.051438,-9.776872,-2.353351,1.495304,-5.551057,0.480227,20.66,4,RUN
1759319654.36939,0.95364,-11.461941,-2.305766,-0.563006,-1.950622,-0.50064,20.68,4,RUN
1759319654.38937,-2.078317,-7.120206,5.758354,-1.524872,0.88223,-0.663646,20.70,4,RUN
1759319654.40934,-6.044312,-5.16953,4.081815,-2.33647,2.085567,0.102036,20.72,4,RUN
1759319654.42932,-6.578368,-3.23292,2.289306,-3.914432,1.190597,1.158419,20.74,4,RUN
1759319654.44936,-4.27784,0.229095,-4.894646,-3.541786,0.962294,0.261993,20.76,4,RUN
1759319654.46937,0.650325,14.133272,-14.478336,0.431724,2.812132,-0.70512,20.78,4,RUN
1759319654.48937,6.115539,16.967408,-3.492542,3.321261,0.610346,-1.023814,20.80,4,RUN
1759319654.50935,-0.405817,13.896994,4.698172,4.93858,0.530072,-0.650385,20.82,4,RUN
1759319654.52938,-11.349563,8.689007,2.505981,0.593293,2.915956,-0.237042,20.84,4,RUN
1759319654.54937,-1.793257,7.854927,5.644779,-3.703896,-1.150605,-0.754081,20.86,4,RUN
1759319654.56893,-0.781408,19.107076,9.728988,-4.781959,-1.131561,-2.099274,20.88,4,RUN
1759319654.58855,0.621146,41.691281,5.485266,-5.173037,-3.968296,-1.454983,20.90,4,RUN
1759319654.60935,0.158317,35.420119,-4.309114,-5.149264,-4.814364,1.348831,20.92,4,RUN
1759319654.62909,-7.434894,18.3954,-18.621502,-4.014302,-1.915051,2.156757,20.94,4,RUN
1759319654.64938,-5.602133,12.655002,-6.620417,-2.700209,0.515374,2.447025,20.96,4,RUN
1759319654.66940,-7.750031,3.829526,-7.676559,-1.379614,2.082693,1.644495,20.98,4,RUN
1759319654.68940,-5.260211,-0.711976,-2.292448,-1.834598,3.000104,0.196092,21.00,4,RUN
1759319654.70936,-1.741183,-1.704971,-0.685191,-1.710904,2.62615,-0.590619,21.02,4,RUN
1759319654.72938,4.301183,1.300052,-0.284162,-0.446252,1.334449,-0.553789,21.04,4,RUN
1759319654.74941,2.813786,3.063381,1.529745,0.478518,0.362872,-0.366437,21.06,4,RUN
1759319654.76939,2.205658,1.78802,2.154033,0.734002,-0.62848,0.143098,21.08,4,RUN
1759319654.78939,1.567005,-3.262249,2.868553,2.14785,-0.126917,0.44329,21.10,4,RUN
1759319654.80936,0.878373,-3.67899,2.22975,2.85806,-0.790556,0.413254,21.12,4,RUN
1759319654.82872,-2.773084,3.848829,0.29733,4.264468,-1.446227,0.253822,21.14,4,RUN
1759319654.84939,-5.52043,13.389423,1.320103,4.242867,-1.867259,-0.148736,21.16,4,RUN
1759319654.86941,-8.72073,36.656275,-5.118654,3.92342,-0.467112,0.688324,21.18,4,RUN
1759319654.88939,-9.43914,38.193203,-8.335712,3.598777,3.379487,0.710418,21.20,4,RUN
1759319654.90937,-7.802404,30.984262,-3.271826,2.413714,4.638949,-0.099505,21.22,4,RUN
1759319654.92939,-3.345448,25.421184,-3.557484,2.160966,2.174138,-0.383976,21.24,4,RUN
1759319654.94940,3.065775,17.531093,-0.737863,2.147215,0.265386,-0.809282,21.26,4,RUN
1759319654.96940,10.68607,18.521694,7.489212,1.41416,-1.71396,0.173664,21.28,4,RUN
1759319654.98939,4.968417,5.394585,3.999514,1.742825,-3.334207,0.612751,21.30,4,RUN
1759319655.00937,-2.603096,-8.341099,3.330484,1.845867,-4.81407,0.453434,21.32,4,RUN
1759319655.02941,-1.499518,-14.454394,-3.111864,0.238867,-3.479036,-0.392683,21.34,4,RUN
1759319655.04940,-1.23032,-10.982053,2.464382,-1.619316,-0.229041,-0.976964,21.36,4,RUN
1759319655.06943,-2.595764,-7.187244,4.428675,-2.304944,0.898396,-0.81154,21.38,4,RUN
1759319655.08946,-4.904073,-3.891326,1.448043,-3.579081,0.909775,0.355221,21.40,4,RUN
1759319655.10937,-4.898686,-1.215806,-0.300023,-4.128823,0.462291,0.48897,21.42,4,RUN
1759319655.12940,-1.60636,11.262175,-10.65315,-0.947389,2.231797,-0.471262,21.44,4,RUN
1759319655.14940,2.490718,19.555241,-8.39048,2.606226,2.292109,-0.522534,21.46,4,RUN
1759319655.16941,9.033173,8.330625,-2.261772,3.087277,-0.637211,-0.369312,21.48,4,RUN
1759319655.18940,0.290447,1.728314,8.283788,2.28293,-0.015178,-0.474852,21.50,4,RUN
1759319655.20939,-10.786776,10.229676,10.025271,0.972549,5.475731,0.173444,21.52,4,RUN
1759319655.22939,-7.916129,17.353323,4.640412,-5.259543,-2.652311,-0.203982,21.54,4,RUN
1759319655.24941,4.355202,34.680759,2.877082,-3.555072,-1.88591,-1.062034,21.56,4,RUN
1759319655.26940,2.445527,30.983663,-0.077662,-3.133214,-4.835206,-0.431101,21.58,4,RUN
1759319655.28941,-3.104531,25.003246,-4.903624,-3.21835,-4.435442,1.529292,21.60,4,RUN
1759319655.30892,-6.223278,17.760786,-4.279935,-3.943939,-2.020171,2.67671,21.62,4,RUN
1759319655.32941,-12.252926,9.289951,-11.870302,-4.292651,0.676486,2.630431,21.64,4,RUN
1759319655.34904,-7.693617,2.268656,-11.757176,-1.204111,1.670283,0.278614,21.66,4,RUN
1759319655.36941,-2.822913,3.996671,-4.754884,-0.544743,1.654055,-0.927248,21.68,4,RUN
1759319655.38942,0.740557,1.611896,-3.643077,-1.709624,3.513371,-0.633302,21.70,4,RUN
1759319655.40939,4.724807,3.533692,4.129549,-0.804141,3.059298,-0.314443,21.72,4,RUN
1759319655.42942,4.501698,3.034052,2.839074,-0.29314,0.784225,-0.370341,21.74,4,RUN
1759319655.44912,4.396353,0.713023,3.380613,0.872069,-0.471018,0.053793,21.76,4,RUN
1759319655.46942,2.77907,-3.808876,0.9086,2.414688,-1.501988,0.832507,21.78,4,RUN
1759319655.48942,-1.083975,-3.67076,2.296788,3.115929,-2.468421,0.450826,21.80,4,RUN
1759319655.50939,-2.607435,4.637569,4.323779,3.790521,-2.681236,-0.082054,21.82,4,RUN
1759319655.52942,-9.961824,25.268105,-0.174477,4.007159,-2.250678,-0.07937,21.84,4,RUN
1759319655.54940,-10.17416,39.303214,-8.32,5.009863,0.886188,1.025453,21.86,4,RUN
1759319655.56944,-10.397569,29.585898,-12.681488,2.303677,3.100522,-0.101128,21.88,4,RUN
1759319655.58942,-5.854871,26.486903,-5.706131,2.236538,4.172892,0.136014,21.90,4,RUN
1759319655.60940,2.042404,21.220408,-0.605883,2.051609,2.716294,-0.568181,21.92,4,RUN
1759319655.62943,8.872762,16.699706,4.798579,1.638476,0.220009,0.14259,21.94,4,RUN
1759319655.64942,8.631247,11.691336,12.68882,1.392219,-2.771107,0.987826,21.96,4,RUN
1759319655.66944,-0.384569,0.741903,5.915025,2.098894,-5.792322,0.870482,21.98,4,RUN
1759319655.68939,-4.841525,-12.269984,-3.750068,1.23499,-4.721734,0.285875,22.00,4,RUN
1759319655.70940,-1.916858,-13.905074,-2.530372,-0.538143,-1.791208,-0.632157,22.02,4,RUN
1759319655.72943,-2.780117,-7.829039,3.488053,-1.407844,0.672276,-0.571962,22.04,4,RUN
1759319655.74943,-6.361394,-5.487361,2.072182,-2.303219,2.407382,0.232479,22.06,4,RUN
1759319655.76941,-6.183175,-4.042759,4.057274,-3.580341,-0.459925,0.055102,22.08,4,RUN
1759319655.78923,-1.978808,2.553117,-6.233154,-2.80392,-0.461932,-0.458088,22.10,4,RUN
1759319655.80940,6.125116,19.945795,-9.461735,1.867321,2.331055,-0.756859,22.12,4,RUN
1759319655.82941,6.143372,19.633501,-5.679046,3.212421,1.53308,-0.226043,22.14,4,RUN
1759319655.84941,-9.922619,8.152406,10.228628,1.874436,3.138214,0.37102,22.16,4,RUN
1759319655.86942,-9.419538,8.66716,7.121403,-1.988187,-0.626754,0.130886,22.18,4,RUN
1759319655.88920,-3.826234,14.265402,5.68593,-4.704581,-1.913136,-1.996964,22.20,4,RUN
1759319655.90933,-0.600645,31.694591,10.831069,-4.448045,-4.047134,-1.904077,22.22,4,RUN
1759319655.92941,3.247286,38.374713,-1.488296,-4.31937,-4.8081,0.076717,22.24,4,RUN
1759319655.94941,-4.357896,23.541586,-20.829704,-4.577705,-1.704447,2.411113,22.26,4,RUN
1759319655.96942,-6.06167,13.944728,-8.417714,-3.888432,1.449624,3.125726,22.28,4,RUN
1759319655.98906,-9.1255,5.82225,-5.926846,-2.147704,2.418681,2.338639,22.30,4,RUN
1759319656.00919,-7.367108,1.644517,-0.668581,-1.563535,3.320543,0.976628,22.32,4,RUN
1759319656.02942,-4.018368,-3.676746,-0.489465,-2.217029,2.525097,0.075042,22.34,4,RUN
1759319656.04944,2.359935,0.18151,-2.850297,-1.144675,1.413783,-0.6985,22.36,4,RUN
1759319656.06944,5.260211,2.541146,-4.401889,-0.317325,0.280592,-0.206645,22.38,4,RUN
1759319656.08890,2.624045,2.914192,1.654992,0.524413,0.666828,-0.104808,22.40,4,RUN
1759319656.10904,1.949928,1.165827,4.361637,0.776931,-0.313372,0.194138,22.42,4,RUN
1759319656.12944,1.710358,-1.384297,1.591994,2.04209,-0.753327,0.63616,22.44,4,RUN
1759319656.14945,-1.258452,-0.676811,-1.603816,3.30778,-0.672021,0.490657,22.46,4,RUN
1759319656.16945,-5.239561,7.711424,1.840543,4.114049,-0.973904,0.150455,22.48,4,RUN
1759319656.18882,-8.636185,23.672669,3.468001,3.674818,-0.649424,0.65136,22.50,4,RUN
1759319656.20890,-7.100005,39.295284,-6.776339,4.166277,1.456951,1.390262,22.52,4,RUN
1759319656.22943,-10.046669,39.153427,-4.216937,2.955253,3.897253,0.097658,22.54,4,RUN
1759319656.24945,-6.305729,27.666497,-6.051943,2.420244,3.278835,0.352749,22.56,4,RUN
1759319656.26947,-2.932149,19.803639,-3.750966,2.308049,2.040929,-0.387437,22.58,4,RUN
1759319656.28864,6.458359,15.218444,3.816357,1.802152,-0.300218,-0.20108,22.60,4,RUN
1759319656.30875,8.246828,11.268759,6.984186,1.657626,-2.220794,0.406748,22.62,4,RUN
1759319656.32945,1.663821,-1.228375,0.848296,1.977384,-3.86258,0.221152,22.64,4,RUN
1759319656.34931,-0.264709,-9.454104,-3.100491,1.307493,-3.867022,-0.413147,22.66,4,RUN
1759319656.36948,1.016788,-11.215039,0.675015,-0.449465,-1.336695,-0.944454,22.68,4,RUN
1759319656.38849,-2.521244,-9.526079,3.779397,-1.622248,0.789763,-0.847932,22.70,4,RUN
1759319656.40861,-5.588216,-5.732317,2.061108,-2.538928,2.429181,0.094643,22.72,4,RUN
1759319656.42946,-6.150405,-3.466056,4.440646,-3.894303,1.224587,1.047725,22.74,4,RUN
1759319656.44914,-4.516661,4.080468,-2.975544,-3.20601,0.880013,0.066589,22.76,4,RUN
1759319656.46946,3.324648,19.17965,-14.386608,0.742642,2.515578,-0.105483,22.78,4,RUN
1759319656.48946,9.957485,13.965079,-2.88621,2.835353,0.753841,0.026977,22.80,4,RUN
1759319656.50846,6.253206,0.498592,3.443909,3.90107,-0.818907,0.130707,22.82,4,RUN
1759319656.52919,-8.635137,2.693776,9.282769,1.628647,2.820091,-0.155179,22.84,4,RUN
1759319656.54946,-12.79611,18.957139,6.131102,-0.990522,2.385429,0.220732,22.86,4,RUN
1759319656.56948,-10.929231,22.525397,-0.579995,-5.921257,-2.00782,-1.808484,22.88,4,RUN
1759319656.58922,4.733337,38.306179,0.035614,-3.505783,-0.946818,-1.882225,22.90,4,RUN
1759319656.60910,2.164957,32.62818,-4.188357,-3.945718,-4.79793,-0.585674,22.92,4,RUN
1759319656.62946,0.231938,20.727502,-2.340931,-2.943685,-4.487629,1.806836,22.94,4,RUN
1759319656.64844,-4.886117,15.545252,-6.744167,-3.825447,-2.371553,2.492784,22.96,4,RUN
1759319656.66947,-14.613309,6.934057,-18.088044,-2.872766,3.762609,2.850609,22.98,4,RUN
1759319656.68947,-11.82182,3.712958,-3.014001,-1.858258,4.651624,0.413368,23.00,4,RUN
1759319656.70895,-3.317915,1.47842,-2.260126,-1.381038,3.183741,-0.772303,23.02,4,RUN
1759319656.72879,2.452261,3.231723,0.634314,-1.681945,3.813617,-0.679306,23.04,4,RUN
1759319656.74900,4.619014,2.211195,3.10079,-0.255997,2.933811,-0.142404,23.06,4,RUN
1759319656.76949,3.800795,-0.454898,4.537611,0.721092,0.623478,0.180366,23.08,4,RUN
1759319656.78947,2.754828,-2.222418,4.946421,1.482977,-1.138566,-0.042261,23.10,4,RUN
1759319656.80896,1.877503,-2.688838,2.643049,2.544771,-2.763273,-0.093815,23.12,4,RUN
1759319656.82947,0.610671,-0.881365,-1.895011,3.692375,-2.15979,-0.114619,23.14,4,RUN
1759319656.84947,-1.722927,2.758719,0.350302,4.640873,-0.623388,-0.327562,23.16,4,RUN
1759319656.86947,-5.376928,16.818967,2.599504,4.365806,-0.725637,-0.75295,23.18,4,RUN
1759319656.88947,-12.793566,41.930103,-10.385149,4.174513,0.6477,1.103083,23.20,4,RUN
1759319656.90917,-11.278037,36.07613,-11.961132,2.496079,4.467477,-0.379561,23.22,4,RUN
1759319656.92918,-5.866991,26.881647,-4.094384,2.038951,4.578179,-0.318571,23.24,4,RUN
1759319656.94902,-1.007809,21.420024,-1.939004,2.062719,1.652101,-0.739772,23.26,4,RUN
1759319656.96948,7.334338,19.182044,0.95364,1.426329,-0.205929,-0.468378,23.28,4,RUN
1759319656.98948,10.137199,16.241067,9.152734,1.046433,-2.519216,0.768215,23.30,4,RUN
1759319657.00945,2.398691,3.367295,3.913023,1.897072,-4.473835,0.40126,23.32,4,RUN
1759319657.02879,-5.987898,-10.749217,-3.539229,1.546775,-5.398417,0.354001,23.34,4,RUN
1759319657.04948,-1.171662,-15.799786,-5.071368,-0.355693,-2.204129,-0.815619,23.36,4,RUN
1759319657.06948,-2.425027,-7.903409,4.763863,-1.286904,0.721774,-1.107247,23.38,4,RUN
1759319657.08948,-4.902876,-5.929091,4.736928,-1.717082,2.084499,-0.400508,23.40,4,RUN
1759319657.10945,-5.365705,-4.371812,3.042581,-3.474693,1.371089,1.016849,23.42,4,RUN
1759319657.12948,-3.647117,1.228375,-0.41704,-4.18448,1.654221,0.386317,23.44,4,RUN
1759319657.14914,2.11827,17.720384,-14.758458,-0.715605,3.506671,-0.199915,23.46,4,RUN
1759319657.16948,8.747814,15.453524,-5.587019,2.601718,1.438322,-0.15271,23.48,4,RUN
1759319657.18948,6.654534,3.879056,4.231751,3.896629,-1.021805,-0.464901,23.50,4,RUN
1759319657.20946,-6.681768,3.723133,9.184457,2.904637,1.040074,-0.779935,23.52,4,RUN
1759319657.22949,-10.298359,12.876765,8.551639,0.469341,2.338709,-0.305158,23.54,4,RUN
1759319657.24949,-9.248951,18.792538,-0.415693,-5.537624,-2.846872,-1.174349,23.56,4,RUN
1759319657.26948,2.730138,39.068732,-6.047304,-4.447856,-0.645744,-1.138046,23.58,4,RUN
1759319657.28912,4.015974,31.040076,-2.561197,-4.414233,-2.865419,-0.563598,23.60,4,RUN
1759319657.30946,-0.229245,24.561666,-0.617405,-3.737034,-3.472042,1.420766,23.62,4,RUN
1759319657.32949,-4.337695,16.866552,-3.528455,-3.515844,-3.238425,2.244775,23.64,4,RUN
1759319657.34949,-11.522694,10.782287,-13.524247,-3.562804,-0.992009,2.563072,23.66,4,RUN
1759319657.36949,-9.592668,1.166126,-12.582727,-1.556258,2.648813,0.758296,23.68,4,RUN
1759319657.38949,-5.402067,3.682282,-1.921646,-1.009136,3.080171,-0.422662,23.70,4,RUN
1759319657.40946,-1.901146,0.467618,-1.80014,-1.304296,3.024284,-0.608817,23.72,4,RUN
1759319657.42950,3.808427,1.47393,4.068198,-0.797045,2.030922,-0.697205,23.74,4,RUN
1759319657.44947,4.377349,3.24549,2.295142,-0.250526,0.606892,-0.596614,23.76,4,RUN
1759319657.46950,5.005079,0.614562,-1.744774,0.948075,0.157962,0.290789,23.78,4,RUN
1759319657.48950,3.127576,-4.652083,4.096329,2.073911,-0.250089,0.617571,23.80,4,RUN
1759319657.50927,-0.382773,-3.291129,1.31292,2.558122,-1.747272,0.027609,23.82,4,RUN
1759319657.52950,-1.274164,3.090914,3.923947,4.402352,-2.506879,-0.387092,23.84,4,RUN
1759319657.54950,-5.700295,12.937069,0.452803,3.980619,-2.843836,-0.958645,23.86,4,RUN
1759319657.56950,-12.79192,43.813591,-10.833912,4.303519,-0.098558,0.687628,23.88,4,RUN
1759319657.58950,-10.246734,37.396981,-12.220155,2.560626,4.251257,0.112704,23.90,4,RUN
1759319657.60947,-6.258443,28.508956,-3.10498,1.590822,5.985702,0.214527,23.92,4,RUN
1759319657.62949,-1.181539,21.101446,-0.989853,1.717383,3.163069,-0.19999,23.94,4,RUN
1759319657.64950,8.827721,20.466833,6.383091,1.728716,-1.305886,-0.144045,23.96,4,RUN
1759319657.66951,10.342502,14.115315,10.104728,2.171284,-3.845292,0.94439,23.98,4,RUN
1759319657.68950,0.909348,3.634398,1.688361,3.06187,-6.557649,0.557327,24.00,4,RUN
1759319657.70902,-5.066729,-8.57199,-2.365322,1.857429,-5.20445,0.833804,24.02,4,RUN
1759319657.72950,-1.297208,-13.446435,-0.746542,0.247832,-3.147325,-0.491687,24.04,4,RUN
1759319657.74951,-2.51451,-10.173711,2.970755,-0.902937,-0.076278,-0.703154,24.06,4,RUN
1759319657.76950,-5.705083,-8.437017,5.444714,-1.786891,2.256223,-0.080878,24.08,4,RUN
1759319657.78950,-6.345832,-5.142745,3.569605,-3.518208,1.172108,0.840461,24.10,4,RUN
1759319657.80948,-4.343531,-1.02382,-6.284929,-4.118138,-0.442484,0.498439,24.12,4,RUN
1759319657.82951,1.194557,11.907562,-14.143297,-0.382835,3.177356,-0.716654,24.14,4,RUN
1759319657.84951,5.328146,22.793698,0.747889,2.97085,1.652161,-0.75663,24.16,4,RUN
1759319657.86938,1.145326,28.610859,-1.910423,6.146221,0.664836,0.348011,24.18,4,RUN
1759319657.88949,-10.198701,5.695806,10.416872,-0.109756,1.487918,0.123403,24.20,4,RUN
1759319657.90876,-2.934543,6.06975,-0.622941,-3.2334,-1.58674,-1.208452,24.22,4,RUN
1759319657.92952,-1.265485,15.305982,11.802217,-4.169366,-1.74848,-2.205709,24.24,4,RUN
1759319657.94916,2.315492,36.289064,11.511322,-3.854441,-6.157217,-1.163567,24.26,4,RUN
1759319657.96928,3.742885,35.748872,-1.84144,-2.708738,-6.518349,1.871865,24.28,4,RUN
1759319657.98935,-7.05242,24.154053,-7.981071,-2.833358,-2.580194,3.963161,24.30,4,RUN
1759319658.00949,-10.783933,10.789021,-14.727333,-6.834733,1.002772,5.485067,24.32,4,RUN
1759319658.02952,-17.695096,-0.055366,-12.895619,-2.127127,6.396941,2.74666,24.34,4,RUN
1759319658.04952,-6.200683,3.139696,-1.159691,0.225982,3.744216,-0.044393,24.36,4,RUN
1759319658.06905,0.53256,2.275988,1.807323,-1.109633,3.192338,-0.371331,24.38,4,RUN
1759319658.08919,3.090166,-3.120842,-0.692972,-0.522619,2.329983,-0.402219,24.40,4,RUN
1759319658.10949,4.815188,0.783802,4.433762,-0.208028,0.333731,-0.046132,24.42,4,RUN
1759319658.12954,3.763535,1.926734,1.220145,-0.351364,-1.409827,-0.469807,24.44,4,RUN
1759319658.14952,4.440945,0.24361,-3.391087,1.481862,-0.492338,0.438105,24.46,4,RUN
1759319658.16889,1.988085,-1.73415,-0.260818,2.020811,-1.443339,0.567159,24.48,4,RUN
1759319658.18902,-1.587505,3.278859,1.113304,3.025819,-1.889842,0.031557,24.50,4,RUN
1759319658.20949,-2.558803,8.571242,2.75423,3.468656,-1.709185,-0.851089,24.52,4,RUN
1759319658.22952,-7.631518,38.093694,0.822558,3.146563,-1.350058,-0.946243,24.54,4,RUN
1759319658.24952,-10.348637,48.218473,-7.294085,4.60481,2.907458,1.316578,24.56,4,RUN
1759319658.26876,-10.931027,33.462859,-4.600907,2.452503,3.769072,0.228063,24.58,4,RUN
1759319658.28888,-4.909311,22.118383,-5.384111,2.36259,2.123916,-0.110684,24.60,4,RUN
1759319658.30950,5.355679,16.759711,5.45025,2.690557,0.590462,-0.817133,24.62,4,RUN
1759319658.32954,7.424419,12.187684,6.255001,2.713166,-0.975666,-0.11032,24.64,4,RUN
1759319658.34953,9.36058,8.700978,12.681488,2.55955,-3.943751,0.594292,24.66,4,RUN
1759319658.36953,-0.571466,-4.449325,-1.467795,2.713531,-6.929005,0.205332,24.68,4,RUN
1759319658.38873,-0.894683,-15.563658,-5.296872,0.872248,-4.001132,-0.325295,24.70,4,RUN
1759319658.40950,-4.086603,-11.770943,2.200271,-1.010777,0.267597,-0.688511,24.72,4,RUN
1759319658.42954,-5.695207,-9.42687,4.068198,-1.735014,2.461819,0.041903,24.74,4,RUN
1759319658.44953,-5.696853,-5.774066,2.315343,-3.28261,2.233367,0.276342,24.76,4,RUN
1759319658.46953,-3.392434,-1.269675,-0.426168,-4.053768,0.827913,-0.080357,24.78,4,RUN
1759319658.48859,1.739238,6.757634,-4.84751,-2.203396,1.983566,-0.288581,24.80,4,RUN
1759319658.50951,3.185785,19.778799,-9.288605,1.680584,2.025658,-0.055017,24.82,4,RUN
1759319658.52953,6.867618,11.018116,-2.674174,3.168277,-1.613671,-0.034267,24.84,4,RUN
1759319658.54953,2.575862,0.322619,1.216404,3.913098,-2.340389,-0.059822,24.86,4,RUN
1759319658.56926,-14.977976,9.237578,5.56188,0.964473,6.952019,-0.455316,24.88,4,RUN
1759319658.58953,-12.031911,22.497415,7.199215,-2.791265,-1.846143,-0.361642,24.90,4,RUN
1759319658.60951,-1.11076,25.230247,11.897836,-5.635294,-1.225416,-2.726794,24.92,4,RUN
1759319658.62954,6.466739,36.458005,-2.416647,-4.23083,-3.687367,-1.139233,24.94,4,RUN
1759319658.64951,3.553594,29.388825,-2.750489,-4.41095,-4.9214,0.494312,24.96,4,RUN
1759319658.66954,-1.18109,20.94717,-5.043535,-3.201662,-3.231389,2.220126,24.98,4,RUN
1759319658.68953,-5.665729,13.086257,-8.262839,-3.4271,-2.115152,3.760708,25.00,4,RUN
1759319658.70951,-17.481712,9.435399,-14.522778,-1.827258,2.769673,2.87191,25.02,4,RUN
1759319658.72954,-11.900828,-1.378611,-6.551284,-2.11465,4.341522,0.877047,25.04,4,RUN
1759319658.74883,-3.065326,-1.912817,-1.083676,-1.450617,4.367183,-0.499461,25.06,4,RUN
1759319658.76955,3.017592,1.275212,6.171653,-1.3868,2.830688,-1.012425,25.08,4,RUN
1759319658.78934,4.609437,1.824232,0.601244,0.311675,2.579803,-0.519132,25.10,4,RUN
1759319658.80895,4.832696,1.221043,7.082049,1.079728,1.017949,-0.463822,25.12,4,RUN
1759319658.82955,5.176863,0.095319,2.338536,1.997632,-1.418143,0.296342,25.14,4,RUN
1759319658.84955,2.076222,-3.168277,0.139612,3.22302,-1.612943,1.100507,25.16,4,RUN
1759319658.86903,-3.378667,0.620547,-1.934814,4.424845,-1.310014,0.579241,25.18,4,RUN
1759319658.88952,-5.526266,4.679018,-1.752107,4.483297,-1.081983,-0.844049,25.20,4,RUN
1759319658.90919,-8.32434,13.723564,-3.140744,4.377578,0.082349,-0.986104,25.22,4,RUN
1759319658.92953,-5.389198,45.313259,-9.629928,3.709054,3.650898,0.813668,25.24,4,RUN
1759319658.94952,-5.400122,42.512791,-4.671387,2.826013,3.167443,-0.723253,25.26,4,RUN
1759319658.96953,-4.922479,31.404594,-6.716035,2.745917,1.320647,-0.156817,25.28,4,RUN
1759319658.98919,5.840655,16.589723,-3.976021,1.047057,0.630983,-0.309142,25.30,4,RUN
1759319659.00952,12.315773,16.200366,10.33098,0.259976,-3.610776,1.089583,25.32,4,RUN
1759319659.02953,4.398298,2.193687,1.346439,1.406297,-4.987085,0.485154,25.34,4,RUN
1759319659.04955,-5.276671,-8.467992,-0.190788,1.544315,-3.900693,-0.094925,25.36,4,RUN
1759319659.06955,-2.882918,-14.36506,-1.694796,-0.301839,-2.020118,-0.924153,25.38,4,RUN
1759319659.08878,-1.972822,-11.145607,4.867562,-1.078735,-0.494664,-1.157826,25.40,4,RUN
1759319659.10893,-4.520103,-3.690662,4.518158,-2.607839,1.088076,-0.107922,25.42,4,RUN
1759319659.12955,-5.115212,-1.986439,-0.307505,-4.060027,0.558637,1.246049,25.44,4,RUN
1759319659.14961,-3.556138,-0.48707,-9.384672,-3.817226,2.468212,1.231345,25.46,4,RUN
1759319659.16956,-3.115904,7.654712,-3.209876,-0.405015,3.258557,-0.390972,25.48,4,RUN
1759319659.18955,2.324171,13.690793,3.28275,1.823445,1.120189,-1.24024,25.50,4,RUN
1759319659.20890,9.701006,6.492476,-1.180641,2.337627,-1.951444,-0.675096,25.52,4,RUN
1759319659.22956,1.395071,1.739388,0.442029,2.117708,0.403155,-0.830234,25.54,4,RUN
1759319659.24956,-6.692243,9.14615,1.669058,1.259635,4.398396,-0.429019,25.56,4,RUN
1759319659.26956,-8.569746,20.69907,4.555418,-4.419938,-2.612983,-0.856885,25.58,4,RUN
1759319659.28956,-1.625663,39.695564,11.134983,-4.376739,-2.131955,-1.432184,25.60,4,RUN
1759319659.30953,-0.083797,31.015386,2.257882,-4.070343,-4.453956,0.102306,25.62,4,RUN
1759319659.32961,-1.914763,19.922002,-7.369802,-4.089164,-5.149502,1.364118,25.64,4,RUN
1759319659.34956,-9.416844,18.830396,-17.554586,-4.37196,-1.671591,2.520401,25.66,4,RUN
1759319659.36956,-10.39697,12.635399,-11.89185,-3.400055,2.96072,1.88443,25.68,4,RUN
1759319659.38858,-5.71047,3.704877,-6.828862,-1.157893,3.230082,0.368235,25.70,4,RUN
1759319659.40954,-0.74729,2.312649,-2.256086,-1.287202,2.658515,-0.445062,25.72,4,RUN
1759319659.42957,0.769137,-0.854131,-1.86209,-1.790991,3.34126,-0.43439,25.74,4,RUN
1759319659.44915,4.952107,2.00694,0.552612,-1.024954,2.301763,-0.260024,25.76,4,RUN
1759319659.46956,4.253748,3.350835,4.123115,0.131367,1.20957,-0.21283,25.78,4,RUN
1759319659.48916,3.962853,1.372626,2.996942,0.634196,-1.261245,0.082356,25.80,4,RUN
1759319659.50947,2.354697,-4.30238,4.292355,2.753489,-1.617528,0.811924,25.82,4,RUN
1759319659.52959,-1.225682,-3.155857,0.152032,3.365147,-2.837391,0.311703,25.84,4,RUN
1759319659.54957,-3.315221,4.172794,2.230199,4.051997,-2.631958,-0.39699,25.86,4,RUN
1759319659.56962,-9.766397,22.22298,0.235081,3.938568,-2.001165,-0.539253,25.88,4,RUN
1759319659.58957,-12.207286,41.905712,-8.729559,4.656173,1.506404,1.572283,25.90,4,RUN
1759319659.60954,-11.692383,35.295022,-9.599552,2.446084,3.94703,-0.146447,25.92,4,RUN
1759319659.62955,-3.209278,26.177902,-3.026421,1.984043,4.506373,0.14441,25.94,4,RUN
1759319659.64951,1.235857,20.228161,-0.819116,1.944353,2.444619,-0.333584,25.96,4,RUN
1759319659.66957,10.26095,21.067778,7.656208,1.134059,-1.16648,0.712195,25.98,4,RUN
1759319659.68956,7.801506,6.769156,9.73228,1.73103,-4.172696,0.732283,26.00,4,RUN
1759319659.70954,-1.638232,0.414945,2.426374,2.600677,-6.385643,0.15177,26.02,4,RUN
1759319659.72963,-3.76997,-12.48217,-4.764761,1.334746,-4.502602,0.063511,26.04,4,RUN
1759319659.74929,-0.105644,-11.651981,-1.007959,-0.366169,-1.188283,-0.85534,26.06,4,RUN
1759319659.76957,-4.243573,-7.259818,4.963928,-1.081262,1.301684,-0.990833,26.08,4,RUN
1759319659.78943,-7.187693,-6.080374,3.562273,-2.529959,2.549461,0.336347,26.10,4,RUN
1759319659.80868,-7.299921,-3.467851,4.360889,-4.092099,0.904584,1.245994,26.12,4,RUN
1759319659.82920,-3.586514,1.51523,-6.793098,-3.014604,0.657022,0.002357,26.14,4,RUN
1759319659.84958,3.141941,15.521011,-13.413664,1.335452,2.930689,-0.496027,26.16,4,RUN
1759319659.86958,10.951677,16.469414,-1.349432,2.946167,0.75927,-0.6672,26.18,4,RUN
1759319659.88929,3.006519,11.719767,6.757185,4.328024,0.371241,-0.120346,26.20,4,RUN
1759319659.90955,-11.249157,8.138041,6.418106,0.438426,2.507431,0.524467,26.22,4,RUN
1759319659.92957,-4.198532,10.316016,-1.295862,-3.963317,-2.837673,-0.329213,26.24,4,RUN
1759319659.94958,-1.507898,20.417303,11.057171,-4.78864,-1.905908,-2.27192,26.26,4,RUN
1759319659.96959,0.108936,39.360376,6.730849,-4.318307,-5.464095,-1.921085,26.28,4,RUN
1759319659.98915,0.788889,34.432062,-1.188721,-3.564951,-5.74397,0.979086,26.30,4,RUN
1759319660.00956,-8.697386,19.623475,-20.273651,-4.538844,-3.053254,3.107984,26.32,4,RUN
1759319660.02959,-8.050204,12.777705,-10.333823,-3.711396,1.845226,3.689149,26.34,4,RUN
1759319660.04958,-10.729914,4.887912,-6.994361,-1.489956,4.571882,2.433222,26.36,4,RUN
1759319660.06959,-5.003732,1.972673,0.473753,-1.387962,3.228306,0.382753,26.38,4,RUN
1759319660.08902,-0.864456,-2.018162,0.498892,-1.489309,3.002919,-0.398536,26.40,4,RUN
1759319660.10956,3.660285,1.752107,1.356315,-0.429506,1.115095,-0.606593,26.42,4,RUN
1759319660.12924,3.524564,2.829049,-1.62686,0.136341,-0.161402,0.000997,26.44,4,RUN
1759319660.14950,2.34527,0.202909,2.695273,0.799834,-0.203837,-0.217815,26.46,4,RUN
1759319660.16954,1.349582,-2.940379,3.821445,1.96171,-1.535668,-0.189912,26.48,4,RUN
1759319660.18887,-1.086369,-3.742137,2.400187,2.903297,-2.629555,-0.46454,26.50,4,RUN
1759319660.20956,-3.747524,2.365621,-0.335338,4.139294,-1.597099,-0.579338,26.52,4,RUN
1759319660.22942,-6.502801,6.535722,0.738761,4.06604,-1.445023,0.191833,26.54,4,RUN
1759319660.24959,-8.212261,25.472959,-1.805378,3.571394,-0.704765,0.547226,26.56,4,RUN
1759319660.26939,-5.513697,49.682976,-13.896695,4.515918,3.100352,0.503951,26.58,4,RUN
1759319660.28872,-9.765051,39.327156,-7.012018,1.548603,7.406537,-0.124971,26.60,4,RUN
1759319660.30957,-4.610634,23.015161,-2.451064,1.555166,3.74838,0.490964,26.62,4,RUN
1759319660.32960,4.629189,17.21027,8.488642,1.267672,-0.194685,-0.245688,26.64,4,RUN
1759319660.34921,8.851663,16.414198,6.220585,1.616694,-4.654474,1.378612,26.66,4,RUN
1759319660.36925,8.224981,1.149815,5.122245,2.513865,-5.013399,0.959711,26.68,4,RUN
1759319660.38964,-0.92895,-5.78065,-0.964265,2.100049,-5.414908,0.417106,26.70,4,RUN
1759319660.40957,-3.927987,-13.840281,-4.312556,0.848169,-3.427955,-0.415627,26.72,4,RUN
1759319660.42957,-2.962076,-8.941745,3.828029,-0.766554,-0.903096,-0.930617,26.74,4,RUN
1759319660.44961,-5.509507,-6.87495,3.100491,-1.724107,2.013678,-0.393823,26.76,4,RUN
1759319660.46910,-7.25054,-4.161721,5.355231,-3.338401,2.522499,0.527368,26.78,4,RUN
1759319660.48960,-6.106711,0.308553,1.211167,-4.480321,-0.064427,0.201179,26.80,4,RUN
1759319660.50957,0.388459,9.255535,-14.618247,-1.27809,1.845903,-0.601474,26.82,4,RUN
1759319660.52960,6.830208,16.722601,-9.142259,3.05657,2.554054,-0.872993,26.84,4,RUN
1759319660.54892,7.556998,10.049362,-1.586458,4.337022,-0.754618,-0.411275,26.86,4,RUN
1759319660.56895,-8.821586,7.840262,10.52521,2.299399,3.372174,-0.472293,26.88,4,RUN
1759319660.58952,-9.580548,17.505355,2.314894,0.024856,1.598861,-0.511968,26.90,4,RUN
1759319660.60961,-4.768202,15.185673,2.835633,-5.240717,-2.115389,-2.866326,26.92,4,RUN
1759319660.62961,0.194529,35.95642,12.319215,-4.009427,-2.975967,-3.12133,26.94,4,RUN
1759319660.64960,2.067692,35.29996,2.256535,-3.401683,-4.335649,-0.255544,26.96,4,RUN
1759319660.66878,0.901417,25.165603,-4.352509,-4.176712,-4.475499,2.79448,26.98,4,RUN
1759319660.68959,-12.879309,11.644948,-28.444462,-5.325867,0.270453,3.686802,27.00,4,RUN
1759319660.70912,-11.19005,5.845743,-9.895684,-2.900338,4.425066,2.472231,27.02,4,RUN
1759319660.72961,-6.306926,3.253421,0.228646,-0.932102,3.221591,0.69209,27.04,4,RUN
1759319660.74862,-2.339734,1.497723,1.564012,-1.875867,2.438451,-0.048024,27.06,4,RUN
1759319660.76865,1.492785,0.088885,-2.777424,-1.158555,2.157508,-0.508436,27.08,4,RUN
1759319660.78960,5.211429,1.885434,-1.703923,-0.519834,1.218667,-0.261819,27.10,4,RUN
1759319660.80958,4.38528,0.706738,1.115698,0.500074,1.118427,-0.082799,27.12,4,RUN
1759319660.82946,2.426673,0.262614,3.291578,1.520671,-0.814582,-0.366784,27.14,4,RUN
1759319660.84896,0.918027,-2.409465,3.680187,2.754607,-2.283179,0.095103,27.16,4,RUN
1759319660.86929,-3.488202,1.440112,-1.188721,3.906692,-1.700949,-0.169393,27.18,4,RUN
1759319660.88961,-5.902455,10.319159,2.083404,3.909896,-1.539925,-0.003544,27.20,4,RUN
1759319660.90955,-9.108591,35.131917,-1.842338,3.32917,-1.019804,1.090746,27.22,4,RUN
1759319660.92961,-10.425401,47.06357,-10.600627,4.217317,3.864557,0.991185,27.24,4,RUN
1759319660.94961,-9.441834,32.88421,-5.50397,1.797831,5.37433,0.530446,27.26,4,RUN
1759319660.96915,-3.325696,16.71033,-2.526781,2.124676,3.475803,0.146718,27.28,4,RUN
1759319660.98962,5.897517,18.305617,10.026318,1.936735,-0.290863,-0.260345,27.30,4,RUN
1759319661.00914,8.760982,11.170447,10.608109,2.262203,-2.585076,0.64613,27.32,4,RUN
1759319661.02962,4.904223,6.542156,5.215768,2.81506,-5.473967,0.607995,27.34,4,RUN
1759319661.04962,-0.924461,-6.952313,1.55249,2.313526,-5.297687,0.605181,27.36,4,RUN
1759319661.06899,-1.972224,-12.571055,0.558896,1.00012,-3.938541,-0.254063,27.38,4,RUN
1759319661.08962,-4.366276,-13.548338,2.358438,-0.850132,-0.076123,-0.586655,27.40,4,RUN
1759319661.10964,-4.717625,-10.161441,2.883816,-2.20669,2.084393,0.136352,27.42,4,RUN
1759319661.12935,-8.291869,-4.341436,1.464952,-3.368989,1.848046,0.479151,27.44,4,RUN
1759319661.14962,-4.791396,1.471237,-1.759289,-3.502225,-0.341163,-0.184995,27.46,4,RUN
1759319661.16885,1.026215,12.151471,-12.584672,-0.359545,1.551795,-0.943358,27.48,4,RUN
1759319661.18962,5.992687,18.30023,-2.434305,2.58833,1.632541,-0.437387,27.50,4,RUN
1759319661.20960,8.053197,6.153098,-3.781193,3.459897,-1.755558,0.188108,27.52,4,RUN
1759319661.22962,-5.264101,2.898181,7.391499,1.690212,1.841851,0.064561,27.54,4,RUN
1759319661.24962,-15.440207,20.854694,4.441244,-0.406449,6.033251,0.110627,27.56,4,RUN
1759319661.26869,-6.339996,20.847511,-5.404761,-5.493261,-1.695907,-1.455754,27.58,4,RUN
1759319661.28962,1.560571,29.117083,12.718448,-3.491019,-2.179762,-2.425228,27.60,4,RUN
1759319661.30959,2.87379,29.616574,4.686051,-3.116348,-6.782236,-1.224822,27.62,4,RUN
1759319661.32962,1.23032,24.873511,-3.340809,-2.877789,-6.915576,1.033661,27.64,4,RUN
1759319661.34962,-4.697124,18.670583,-10.903643,-3.662942,-2.48411,3.659562,27.66,4,RUN
1759319661.36962,-12.264298,12.23856,-13.516166,-4.177073,2.237032,4.338326,27.68,4,RUN
1759319661.38962,-15.787066,5.223699,-6.906075,-1.375988,5.456149,2.312696,27.70,4,RUN
1759319661.40960,-9.012673,0.618003,-2.775029,-1.189666,3.072886,-0.052251,27.72,4,RUN
1759319661.42963,-1.552191,-2.568829,-1.511489,-1.378208,4.024367,-1.122083,27.74,4,RUN
1759319661.44962,5.823297,3.927538,1.662773,-0.916298,3.217627,-0.844336,27.76,4,RUN
1759319661.46964,5.832575,4.330063,4.693084,-0.317597,2.227417,-0.160212,27.78,4,RUN
1759319661.48963,6.984485,0.465523,-0.110582,0.704541,0.350637,-0.032425,27.80,4,RUN
1759319661.50960,4.867412,-2.638859,4.939986,2.255467,-0.932061,0.650003,27.82,4,RUN
1759319661.52963,0.91249,-3.966294,0.928501,2.991968,-2.173656,0.666297,27.84,4,RUN
1759319661.54964,-3.885789,2.75019,-0.064045,4.404679,-1.860535,0.029272,27.86,4,RUN
1759319661.56963,-5.378873,5.881955,-0.523881,4.190894,-2.562423,-1.066682,27.88,4,RUN
1759319661.58964,-14.55944,33.045968,-4.388871,3.673739,-0.221984,-1.14805,27.90,4,RUN
1759319661.60964,-9.138817,40.59743,-7.656208,4.082354,5.070242,1.559402,27.92,4,RUN
1759319661.62963,-6.399102,35.553446,-3.628862,2.313558,4.429505,-0.620002,27.94,4,RUN
1759319661.64963,-1.662474,23.555952,-4.519654,2.115908,1.944419,0.149946,27.96,4,RUN
1759319661.66872,5.048473,18.934843,-0.730232,1.589777,-0.463104,0.258711,27.98,4,RUN
1759319661.68937,8.490288,16.415844,5.201852,1.285511,-3.009727,0.729229,28.00,4,RUN
1759319661.70961,6.547094,6.42499,10.491541,1.335755,-4.838082,0.859692,28.02,4,RUN
1759319661.72971,-4.674529,-4.623054,-1.542016,1.932427,-5.56323,0.264774,28.04,4,RUN
1759319661.74961,-4.391265,-17.066169,-4.807557,0.132082,-2.687247,-0.160478,28.06,4,RUN
1759319661.76963,-1.743278,-9.613917,3.554641,-1.26711,0.312475,-0.999642,28.08,4,RUN
1759319661.78964,-5.085284,-6.380398,4.641908,-1.912102,1.62098,-0.75272,28.10,4,RUN
1759319661.80909,-6.786963,-3.558532,2.021305,-3.446938,1.937389,0.573774,28.12,4,RUN
1759319661.82916,-4.877887,-0.064045,2.035371,-4.182437,0.875125,0.74178,28.14,4,RUN
1759319661.84959,-0.446968,11.05762,-8.700978,-1.087657,2.526192,-0.145394,28.16,4,RUN
1759319661.86965,4.88058,16.613665,-7.624186,2.637773,1.497502,-0.588777,28.18,4,RUN
1759319661.88964,8.618527,9.871742,-3.505411,4.207581,-1.053095,-0.39482,28.20,4,RUN
1759319661.90961,-6.158186,5.892729,10.433781,0.210875,3.188012,0.32629,28.22,4,RUN
1759319661.92962,-4.909909,11.629236,4.355651,-4.150102,-1.646556,-1.056249,28.24,4,RUN
1759319661.94962,-2.702156,27.221325,12.183494,-4.869074,-0.816976,-2.917478,28.26,4,RUN
1759319661.96930,-1.41213,37.746684,11.655123,-4.554134,-2.861698,-2.632568,28.28,4,RUN
1759319661.98963,1.56491,29.492375,2.334347,-3.251256,-5.609733,1.06375,28.30,4,RUN
1759319662.00962,-3.07625,22.965332,-11.510873,-4.753779,-3.950505,2.780535,28.32,4,RUN
1759319662.02924,-10.360908,15.213506,-18.301577,-3.294498,2.221694,2.789596,28.34,4,RUN
1759319662.04899,-10.545261,7.377732,-10.550648,-2.442953,4.109814,2.240227,28.36,4,RUN
1759319662.06913,-4.824466,1.590498,1.769165,-1.426255,3.352253,0.023746,28.38,4,RUN
1759319662.08962,-1.444003,-0.888398,-1.994071,-1.261226,1.896799,-0.756038,28.40,4,RUN
1759319662.10962,4.827309,2.895937,-1.096095,-0.69003,0.372573,-0.432389,28.42,4,RUN
1759319662.12962,4.26138,2.384026,-2.816778,0.35774,1.199253,-0.090097,28.44,4,RUN
1759319662.14962,2.683451,1.794903,1.526603,0.408017,1.238878,-0.207995,28.46,4,RUN
1759319662.16899,2.683451,1.794903,1.526603,0.408017,1.238878,-0.207995,28.48,4,RUN
1759319662.18966,1.119589,-2.830395,2.674772,2.573003,-1.244327,0.324266,28.50,4,RUN
1759319662.20962,-0.434997,-1.826327,-1.676989,4.355079,-0.916683,0.175246,28.52,4,RUN
1759319662.22962,-3.660734,5.546767,3.420566,4.01636,-2.391487,0.453861,28.54,4,RUN
1759319662.24960,-7.13906,25.969905,2.777573,3.824703,-1.737799,1.348201,28.56,4,RUN
1759319662.26965,-13.145215,47.516074,-10.517728,3.632836,4.927961,0.554418,28.58,4,RUN
1759319662.28964,-10.336966,32.878973,-5.523872,1.507169,6.188077,0.336529,28.60,4,RUN
1759319662.30963,-1.984644,18.377742,-1.876007,1.822499,2.422996,-0.224881,28.62,4,RUN
1759319662.32963,7.077559,19.057845,6.92433,1.564379,-1.033948,-0.125569,28.64,4,RUN
1759319662.34946,8.28693,11.138574,6.869713,1.943504,-1.908665,0.286123,28.66,4,RUN
1759319662.36867,7.247398,3.649512,9.940875,2.14126,-5.135376,0.421534,28.68,4,RUN
1759319662.38965,-1.814057,-7.650671,-0.887201,2.558859,-5.829728,0.154058,28.70,4,RUN
1759319662.40963,-1.431134,-10.429891,1.766322,1.214984,-4.50772,-0.30823,28.72,4,RUN
1759319662.42916,-2.687791,-12.368147,1.894562,-0.480564,-1.517816,-0.834193,28.74,4,RUN
1759319662.44931,-3.727772,-10.343999,1.00766,-2.035561,1.473606,-0.129187,28.76,4,RUN
1759319662.46962,-5.81372,-3.593098,2.670882,-3.27022,2.589857,0.762794,28.78,4,RUN
1759319662.48964,-6.246622,0.335488,3.012055,-4.257123,0.444793,0.840114,28.80,4,RUN
1759319662.50963,-3.133112,11.938537,-9.102605,-0.759826,1.861519,-0.375675,28.82,4,RUN
1759319662.52932,1.089511,22.864925,-6.381894,3.896406,2.417212,-0.293908,28.84,4,RUN
1759319662.54916,9.668534,6.993762,-3.027318,4.467967,-2.95876,0.085446,28.86,4,RUN
1759319662.56963,-1.989432,1.9408,3.259556,2.514932,1.339606,-0.312856,28.88,4,RUN
1759319662.58964,-14.805893,14.181305,-0.811784,1.03654,7.272543,-0.27425,28.90,4,RUN
1759319662.60865,-6.440103,9.138069,4.469226,-3.933049,-2.979952,-1.917903,28.92,4,RUN
1759319662.62966,-1.612794,27.845762,14.110826,-4.526423,-2.203782,-2.934391,28.94,4,RUN
1759319662.64901,6.377704,43.069593,4.781969,-4.587637,-6.57985,-0.042957,28.96,4,RUN
1759319662.66957,1.815254,30.128334,-8.065317,-3.479427,-6.22587,1.822676,28.98,4,RUN
1759319662.68938,-7.855525,19.589508,-16.459987,-4.075358,-2.411076,2.781772,29.00,4,RUN
1759319662.70964,-8.835203,11.473463,-10.88015,-3.60048,2.279688,3.618684,29.02,4,RUN
1759319662.72967,-13.532177,6.176292,-6.441151,-1.835062,3.834308,2.589403,29.04,4,RUN
1759319662.74888,-10.041132,-1.249324,-4.221576,-1.558613,3.146494,0.716216,29.06,4,RUN
1759319662.76937,-2.306664,-3.496133,-2.490868,-1.989964,3.986887,-0.758777,29.08,4,RUN
1759319662.78935,5.081543,0.802058,1.137545,-1.267198,3.110028,-0.578918,29.10,4,RUN
1759319662.80964,4.407875,2.994997,3.568109,-0.091747,1.537065,-0.259466,29.12,4,RUN
1759319662.82966,3.73705,1.618331,6.280889,0.392159,-0.88206,-0.576893,29.14,4,RUN
1759319662.84870,3.139995,-1.859696,1.175553,2.093432,-1.692191,0.389423,29.16,4,RUN
1759319662.86937,1.991976,-3.190872,0.560991,2.962784,-1.750085,0.66438,29.18,4,RUN
1759319662.88967,-2.340631,2.635417,-1.25935,4.421357,-1.520862,0.405183,29.20,4,RUN
1759319662.90964,-5.112818,4.724807,-0.201412,3.921323,-2.572037,-0.563324,29.22,4,RUN
1759319662.92966,-12.818556,26.333974,-2.520197,3.787472,-0.421475,-1.159067,29.24,4,RUN
1759319662.94967,-11.659463,41.648335,-7.317428,4.722958,4.205391,1.309129,29.26,4,RUN
1759319662.96961,-6.148908,38.297949,-7.25069,2.716827,4.325734,-1.005755,29.28,4,RUN
1759319662.98941,-0.893636,24.500913,-4.545541,2.562016,2.544097,-0.388825,29.30,4,RUN
1759319663.00949,6.275951,22.840235,-0.631022,1.693091,1.381613,-0.485364,29.32,4,RUN
1759319663.02967,11.826009,19.292327,6.770353,1.10313,-1.035848,0.59359,29.34,4,RUN
1759319663.04966,6.307075,8.558223,6.777386,1.340843,-3.900111,1.291633,29.36,4,RUN
1759319663.06865,-3.630059,-4.507833,4.689194,2.095249,-5.663666,0.413487,29.38,4,RUN
1759319663.08968,-4.684854,-18.290803,-3.155408,0.840028,-4.557706,-0.101957,29.40,4,RUN
1759319663.10965,-2.773383,-13.300987,0.187197,-0.995188,-0.206863,-1.005555,29.42,4,RUN
1759319663.12968,-4.084209,-6.597073,4.867711,-1.890315,1.798074,-0.657366,29.44,4,RUN
1759319663.14967,-5.590162,-3.658789,3.225887,-3.137753,2.200852,0.278922,29.46,4,RUN
1759319663.16968,-4.9135,-1.313669,2.775778,-4.211016,0.239825,0.486697,29.48,4,RUN
1759319663.18945,-1.152658,9.838523,-12.985402,-2.132807,1.7611,-0.37655,29.50,4,RUN
1759319663.20927,4.004302,18.347366,-6.857891,1.985929,2.957971,-0.745095,29.52,4,RUN
1759319663.22892,8.873959,9.847202,-0.42123,3.923956,-1.476096,-0.16875,29.54,4,RUN
1759319663.24966,-3.437924,5.727529,7.481581,2.65087,0.899369,-0.442947,29.56,4,RUN
1759319663.26967,-12.473042,14.399926,-1.381155,-0.181753,4.590858,0.132051,29.58,4,RUN
1759319663.28966,-4.656573,13.521703,1.838597,-6.002171,-2.699266,-1.631298,29.60,4,RUN
1759319663.30967,2.038363,34.535461,13.257592,-4.817735,-2.199748,-2.205901,29.62,4,RUN
1759319663.32971,2.677166,33.731458,3.542072,-3.35516,-5.402296,-0.830739,29.64,4,RUN
1759319663.34969,-0.630274,24.137144,-4.704906,-3.618948,-6.381301,1.225973,29.66,4,RUN
1759319663.36969,-7.363517,17.002872,-13.239486,-3.949546,-2.799397,3.348996,29.68,4,RUN
1759319663.38969,-13.256395,10.238803,-15.449035,-3.236447,2.76733,3.571309,29.70,4,RUN
1759319663.40967,-10.430639,2.495955,-2.743007,-1.542039,5.389225,1.561162,29.72,4,RUN
1759319663.42956,-5.679944,0.94975,1.001524,-1.716543,3.679595,-0.084149,29.74,4,RUN
1759319663.44969,0.141258,-2.725799,-0.865803,-0.959914,1.906123,-1.060207,29.76,4,RUN
1759319663.46969,6.706757,2.405724,-1.730858,-0.225423,0.831624,-0.747459,29.78,4,RUN
1759319663.48969,4.996998,2.773234,1.477522,0.388272,1.409419,0.037778,29.80,4,RUN
1759319663.50967,3.870975,0.306458,3.321656,0.877821,0.078392,-0.452119,29.82,4,RUN
1759319663.52969,3.046921,-2.121113,3.963302,2.092866,-1.624629,0.234142,29.84,4,RUN
1759319663.54969,-0.73517,-1.487697,-1.797447,3.441978,-1.833475,0.495531,29.86,4,RUN
1759319663.56969,-1.558476,3.891027,4.596867,4.275041,-2.289271,0.209576,29.88,4,RUN
1759319663.58970,-6.925677,17.626861,3.244891,3.674595,-2.933005,-0.090878,29.90,4,RUN
1759319663.60930,-15.422849,45.524248,-10.890026,4.40079,-0.409851,1.723775,29.92,4,RUN
1759319663.62969,-14.855123,40.937856,-8.627655,3.92435,7.099647,-0.114271,29.94,4,RUN
1759319663.64969,-4.473566,25.231145,-5.642984,2.081229,4.534471,-0.029462,29.96,4,RUN
1759319663.66905,4.22397,21.90485,0.732476,1.869783,2.027132,-0.530087,29.98,4,RUN
1759319663.68972,12.652907,23.706786,7.693767,1.310585,-1.692256,1.395923,30.00,4,RUN
1759319663.70967,9.480739,8.575881,11.450718,2.259731,-3.628078,1.170994,30.02,4,RUN
1759319663.72970,-1.497124,-3.247585,3.494038,3.004583,-7.046724,0.659517,30.04,4,RUN
1759319663.74969,-6.306776,-16.787693,-9.546729,1.161731,-4.865158,-0.01331,30.06,4,RUN
1759319663.76971,-2.511966,-11.921029,3.686472,-0.752399,-0.880221,-1.146299,30.08,4,RUN
1759319663.78970,-3.717597,-7.477241,6.322189,-1.01329,1.454854,-1.194725,30.10,4,RUN
1759319663.80967,-5.893327,-4.155287,4.638167,-2.352201,2.04358,-0.242764,30.12,4,RUN
1759319663.82968,-6.126014,-1.583016,2.556558,-4.194849,0.843356,0.550452,30.14,4,RUN
1759319663.84911,-3.0969,4.252102,-5.124938,-3.556941,1.532846,-0.189034,30.16,4,RUN
1759319663.86968,3.211971,14.145991,-15.060875,0.533264,3.492409,-0.308859,30.18,4,RUN
1759319663.88973,8.378359,14.76145,1.179593,2.935194,0.596723,-0.636723,30.20,4,RUN
1759319663.90968,2.260276,9.510068,4.951209,4.270009,-0.024442,-0.26464,30.22,4,RUN
1759319663.92974,-13.322984,10.821193,4.477756,0.858057,3.971198,0.09195,30.24,4,RUN
1759319663.94971,-5.649867,12.914024,5.099799,-3.832214,-2.442099,-0.731295,30.26,4,RUN
1759319663.96974,-2.1678,21.395484,10.411635,-4.72357,-0.544292,-2.78779,30.28,4,RUN
1759319663.98970,3.293524,33.97013,3.59639,-3.751925,-4.947988,-1.321762,30.30,4,RUN
1759319664.00968,-0.431106,31.55887,-12.188282,-3.935296,-4.826025,0.524987,30.32,4,RUN
1759319664.02970,-3.444059,22.286277,-11.383681,-4.229988,-1.961183,2.721603,30.34,4,RUN
1759319664.04971,-6.447136,11.48304,-8.498967,-3.400899,1.018791,2.967278,30.36,4,RUN
1759319664.06971,-10.228478,5.798158,-7.28376,-1.923762,2.934202,2.155909,30.38,4,RUN
1759319664.08971,-6.416012,0.463128,-1.975067,-1.997848,3.185672,0.329243,30.40,4,RUN
1759319664.10968,-0.591966,0.727688,1.474529,-2.018028,3.141323,-0.54855,30.42,4,RUN
1759319664.12971,3.74513,0.472556,0.531363,-1.072909,0.986024,-0.351824,30.44,4,RUN
1759319664.14956,3.317765,0.357784,-0.55755,0.47596,0.509548,0.048786,30.46,4,RUN
1759319664.16971,3.852719,-0.211887,4.905121,0.598878,-0.85763,-0.312446,30.48,4,RUN
1759319664.18971,2.001852,-2.780117,3.676746,2.773028,-1.501981,-0.087588,30.50,4,RUN
1759319664.20969,-1.802983,-2.748544,0.933739,3.39107,-2.463889,-0.25617,30.52,4,RUN
1759319664.22911,-3.747823,2.343325,-0.301819,3.941086,-2.223529,-0.570104,30.54,4,RUN
1759319664.24939,-6.323535,13.805116,-0.403124,4.313446,-1.874959,-0.769594,30.56,4,RUN
1759319664.26972,-7.830685,41.8074,-7.553407,3.897935,0.012978,0.653622,30.58,4,RUN
1759319664.28971,-11.164611,44.286596,-9.872191,3.522049,6.178741,0.552449,30.60,4,RUN
1759319664.30969,-8.153154,30.798412,-2.335843,1.904013,5.767601,0.34759,30.62,4,RUN
1759319664.32972,-1.380706,21.429152,0.157269,1.830765,2.568314,-0.077989,30.64,4,RUN
1759319664.34922,9.418191,19.176358,8.000674,1.245178,-1.54277,0.355618,30.66,4,RUN
1759319664.36972,8.602217,12.839056,6.567744,1.705388,-4.397891,1.48702,30.68,4,RUN
1759319664.38972,4.224718,-2.200571,7.097312,2.20771,-6.9462,1.027424,30.70,4,RUN
1759319664.40964,-4.409072,-13.521104,-6.108656,1.397402,-5.196877,0.360859,30.72,4,RUN
1759319664.42972,-2.792387,-15.683817,0.345513,-0.439527,-1.520186,-0.528966,30.74,4,RUN
1759319664.44903,-4.314651,-10.969933,5.03336,-1.173033,1.145473,-0.79336,30.76,4,RUN
1759319664.46972,-7.386411,-4.845266,1.720384,-2.198505,2.381076,-0.259416,30.78,4,RUN
1759319664.48971,-7.704242,-1.819893,3.67495,-3.401354,1.482147,0.462046,30.80,4,RUN
1759319664.50969,-3.821744,4.874445,-3.297414,-2.492166,-0.125002,-0.868275,30.82,4,RUN
1759319664.52967,1.529147,17.458818,-11.780071,0.807468,2.771628,-1.0727,30.84,4,RUN
1759319664.54882,8.462006,14.933234,-2.606537,2.236414,1.994339,-0.210229,30.86,4,RUN
1759319664.56972,7.779809,4.311658,-5.919514,3.811437,-0.167433,-0.191766,30.88,4,RUN
1759319664.58972,-6.62296,5.095011,14.082096,1.974815,2.636186,-0.361532,30.90,4,RUN
1759319664.60934,-14.298621,18.869601,7.224653,-0.373311,5.040174,-0.280608,30.92,4,RUN
1759319664.62954,-7.715764,18.383279,-8.836849,-5.195942,-1.688212,-1.28666,30.94,4,RUN
1759319664.64973,2.609829,29.529335,8.396016,-3.611056,-2.201898,-1.974905,30.96,4,RUN
1759319664.66973,-0.166098,34.388667,3.437774,-3.831476,-6.2807,-1.169091,30.98,4,RUN
1759319664.68946,1.740285,26.181343,-3.822193,-3.512716,-6.472122,1.263964,31.00,4,RUN
1759319664.70970,-4.252102,16.429461,-12.406903,-4.06044,-3.022806,2.629619,31.02,4,RUN
1759319664.72937,-9.664045,11.307216,-13.11424,-4.60047,2.105231,3.562261,31.04,4,RUN
1759319664.74973,-12.590059,3.906888,-8.052149,-1.669273,5.500376,1.515051,31.06,4,RUN
1759319664.76973,-9.50917,2.458396,-3.971532,-1.62595,2.746084,0.026501,31.08,4,RUN
1759319664.78972,-1.043722,-1.083975,-0.24361,-1.158285,3.733856,-1.00849,31.10,4,RUN
1759319664.80904,7.068581,4.041113,7.870788,-0.969052,1.505465,-0.606374,31.12,4,RUN
1759319664.82924,6.49083,2.308459,-3.93517,0.974288,1.690823,0.245272,31.14,4,RUN
1759319664.84973,7.34571,-2.118719,1.509395,0.886706,1.006371,0.29318,31.16,4,RUN
1759319664.86973,3.756353,-4.431518,5.701043,1.650457,-1.995246,0.244805,31.18,4,RUN
1759319664.88973,-2.259378,-2.34946,-0.714819,2.878,-2.780186,0.316059,31.20,4,RUN
1759319664.90880,-3.065626,2.174683,0.472705,3.989234,-2.199164,-0.168295,31.22,4,RUN
1759319664.92908,-3.853318,5.386056,1.18094,3.51288,-1.962787,-0.898944,31.24,4,RUN
1759319664.94973,-11.150396,32.42198,-0.883161,3.062949,-0.729021,-0.014761,31.26,4,RUN
1759319664.96970,-6.695983,44.689719,-6.67264,4.625038,4.540438,1.841298,31.28,4,RUN
1759319664.98970,-9.155278,41.297584,-1.955015,2.932993,3.227375,0.214097,31.30,4,RUN
1759319665.00874,-6.414366,24.773553,-7.9073,2.914068,0.597791,0.543366,31.32,4,RUN
1759319665.02892,4.060117,18.06904,-2.073828,2.027056,0.052792,0.246399,31.34,4,RUN
1759319665.04971,10.327239,15.452926,5.533599,1.152901,-2.889385,1.464815,31.36,4,RUN
1759319665.06972,0.675165,-4.637569,-1.164629,1.502323,-3.733377,0.710005,31.38,4,RUN
1759319665.08971,-4.000711,-13.182474,-2.262221,0.63689,-2.621953,-0.070506,31.40,4,RUN
1759319665.10970,-0.357933,-10.344896,4.11683,-0.52222,-1.766991,-1.031401,31.42,4,RUN
1759319665.12878,-1.279252,-8.218696,4.963629,-0.800638,-0.785383,-1.169841,31.44,4,RUN
1759319665.14972,-5.192425,-5.361815,1.702427,-2.230737,1.596629,-0.071335,31.46,4,RUN
1759319665.16973,-5.646874,-3.900155,1.860444,-3.208422,1.519125,0.766644,31.48,4,RUN
1759319665.18973,-3.334674,0.046687,-5.066131,-3.582291,0.777348,0.414099,31.50,4,RUN
1759319665.20971,-0.150535,15.742923,-12.877663,1.394828,2.373033,-0.760324,31.52,4,RUN
1759319665.22973,5.726033,16.242414,-3.352481,3.0281,1.102162,-0.768624,31.54,4,RUN
1759319665.24880,10.296564,10.006117,0.347608,3.641372,-0.537856,-0.557132,31.56,4,RUN
1759319665.26896,-8.945486,5.167884,9.156325,0.986568,2.564778,-0.11096,31.58,4,RUN
1759319665.28905,-6.697031,14.014609,3.176058,-1.083757,0.893481,0.101156,31.60,4,RUN
1759319665.30971,-5.494394,16.438738,4.163517,-5.278502,0.479404,-2.318497,31.62,4,RUN
1759319665.32941,1.12318,39.126193,15.783625,-4.429441,-3.513569,-2.49417,31.64,4,RUN
1759319665.34974,2.212991,38.451627,1.384447,-3.642982,-6.982214,-0.246464,31.66,4,RUN
1759319665.36952,-5.882105,23.491607,-19.491196,-4.128705,-3.65936,2.477433,31.68,4,RUN
1759319665.38973,-5.234323,15.670349,-8.543709,-4.180093,0.850284,3.684191,31.70,4,RUN
1759319665.40971,-11.357195,5.693561,-10.063877,-2.656028,2.724903,2.869218,31.72,4,RUN
1759319665.42974,-7.27134,1.493383,-4.92203,-1.26367,3.490145,1.243128,31.74,4,RUN
1759319665.44974,-3.785682,0.363919,3.019537,-2.102231,3.378144,-0.127802,31.76,4,RUN
1759319665.46974,2.611775,0.735918,0.69776,-1.391787,2.369624,-0.511542,31.78,4,RUN
1759319665.48972,4.884022,0.791882,-1.303344,0.108406,-0.005008,-0.0892,31.80,4,RUN
1759319665.50933,3.217957,2.211644,1.612794,0.958466,-0.577659,-0.092362,31.82,4,RUN
1759319665.52974,1.988384,0.90426,4.108899,1.276405,-1.63424,0.118668,31.84,4,RUN
1759319665.54974,1.170166,-3.194464,1.516577,2.502716,-1.782941,0.557748,31.86,4,RUN
1759319665.56974,-3.667917,0.159364,-3.300108,3.938654,-0.736568,0.066832,31.88,4,RUN
1759319665.58974,-9.226655,8.205677,0.87523,4.07412,-2.100905,0.194799,31.90,4,RUN
1759319665.60923,-8.447791,22.269966,-1.00736,3.708225,-0.770361,0.13109,31.92,4,RUN
1759319665.62910,-7.453599,47.328429,-9.780763,3.994116,3.50718,0.711901,31.94,4,RUN
1759319665.64975,-9.5795,41.837926,-2.627936,2.538595,6.666474,-0.407967,31.96,4,RUN
1759319665.66977,-4.633229,23.989751,-2.460192,2.289769,3.558672,-0.051352,31.98,4,RUN
1759319665.68972,2.267159,18.549377,4.272154,2.165565,1.506697,-0.592714,32.00,4,RUN
1759319665.70938,8.045864,16.646585,5.419724,1.888785,-1.500089,0.238952,32.02,4,RUN
1759319665.72908,6.729203,9.424476,4.034379,2.078264,-3.280814,0.873998,32.04,4,RUN
1759319665.74975,3.015796,-2.929605,6.623409,2.181299,-5.466895,0.612776,32.06,4,RUN
1759319665.76975,-1.946336,-13.379996,-0.96202,1.502229,-5.240439,-0.095957,32.08,4,RUN
1759319665.78975,-3.768773,-15.646856,-2.152986,-0.741068,-0.476971,-0.675071,32.10,4,RUN
1759319665.80937,-3.315071,-9.923517,5.554997,-1.762155,2.057273,-0.715873,32.12,4,RUN
1759319665.82953,-5.66094,-4.425083,2.529175,-2.756178,2.01835,-0.039792,32.14,4,RUN
1759319665.84975,-5.550657,-1.97776,2.480692,-4.356418,0.854234,0.697649,32.16,4,RUN
1759319665.86978,-2.079663,5.422867,-5.451298,-2.743412,2.00493,-0.422782,32.18,4,RUN
1759319665.88944,2.114679,22.038028,-12.649316,2.047555,2.858463,-0.64412,32.20,4,RUN
1759319665.90973,10.141539,12.826038,-3.013851,3.38285,-0.66118,-0.29396,32.22,4,RUN
1759319665.92975,6.330269,-0.480337,1.424101,4.170801,-1.843473,-0.268735,32.24,4,RUN
1759319665.94975,-10.810868,6.576722,5.610363,1.589316,4.578497,-0.276355,32.26,4,RUN
1759319665.96973,-15.989825,22.469882,12.884845,-2.858313,2.47069,0.579769,32.28,4,RUN
1759319665.98973,-4.726902,29.078028,1.900098,-6.440701,-0.150526,-2.411435,32.30,4,RUN
