SamplingTime, AccelerationX, AccelerationY, AccelerationZ, GyroX, GyroY, GyroZ, MagneticFieldX, MagneticFieldY, MagneticFieldZ, Latitude, Longitude
1759319633.688380, -0.818368, 3.324349, -8.716839, 0.106917, 0.400758, -0.397600, -39.867538, -143.789520, 109.917328, , 
1759319633.708423, -0.813729, 3.103634, -8.786271, 0.091031, 0.239080, -0.405712, -39.844131, -144.290939, 109.892853, 13.767698, 100.802013
1759319633.727789, -0.710779, 3.196858, -8.934861, 0.043497, 0.204783, -0.295020, -39.478958, -144.120819, 109.293335, 13.767698, 100.802013
1759319633.748523, -0.169839, 3.158401, -9.103353, 0.001435, 0.432484, -0.149474, -39.173889, -144.442871, 109.071350, 13.767698, 100.802013
1759319633.768722, 0.348057, 3.209128, -8.581717, -0.155207, 0.622319, -0.016410, -38.832809, -144.382156, 108.937119, 13.767698, 100.802013
1759319633.788291, 1.107767, 3.706374, -9.020454, -0.298242, 0.494859, 0.234897, -38.732071, -144.060623, 108.161636, 13.767698, 100.802013
1759319633.808412, 0.925808, 4.570232, -9.380332, -0.087432, 0.473323, 0.663743, -38.941360, -143.526550, 108.048325, 13.767698, 100.802013
1759319633.828731, 0.655113, 4.686051, -9.292495, 0.149591, 0.535771, 1.185443, -39.368042, -142.791718, 107.683914, 13.767698, 100.802013
1759319633.848702, 0.456844, 4.549282, -9.491663, 0.167227, 0.831506, 1.580927, -39.780029, -141.668839, 107.330475, 13.767698, 100.802013
1759319633.867722, 1.007959, 6.109703, -8.694094, -0.158408, 1.216556, 2.273149, -40.370575, -139.641769, 106.105927, 13.767698, 100.802013
1759319633.888130, 1.976264, 5.411794, -7.869741, -0.482142, 0.778119, 2.986277, -41.347778, -137.375381, 105.279556, 13.767698, 100.802013
1759319633.908264, 1.247080, 3.582025, -9.349058, -0.399156, 0.756237, 2.965793, -41.811554, -136.634277, 105.239960, 13.767698, 100.802013
1759319633.928736, -1.076194, 1.019930, -12.176461, -0.601457, 1.903445, 2.316697, -40.576096, -133.930740, 102.424652, 13.767698, 100.802013
1759319633.948773, -1.865981, 2.132635, -11.590929, -1.250623, 3.470100, 1.750654, -39.520218, -132.835495, 100.605515, 13.767698, 100.802013
1759319633.968731, 2.466926, 4.879832, -10.644920, -2.090380, 4.912911, 1.702532, -37.069992, -129.789703, 97.115021, 13.767698, 100.802013
1759319633.988027, 4.667346, 4.145111, -5.233874, -2.086309, 3.173451, 1.786674, -35.089813, -127.419907, 95.242722, 13.767698, 100.802013
1759319634.008116, 3.655497, 3.396923, -9.356839, -1.010148, 2.484058, 1.873556, -33.186646, -125.725174, 93.526520, 13.767698, 100.802013
1759319634.028754, 4.515764, 4.925022, -9.890148, -1.205155, 3.218465, 1.898113, -30.750504, -123.588913, 91.668350, 13.767698, 100.802013
1759319634.048701, 4.943428, 4.566940, -7.385813, -2.139265, 3.720899, 1.791060, -27.969620, -120.780869, 90.206604, 13.767698, 100.802013
1759319634.068746, 5.400421, 2.526332, -4.793042, -2.370223, 3.079469, 1.585149, -25.339966, -117.899246, 89.187225, 13.767698, 100.802013
1759319634.087834, 4.153491, 0.973692, -4.544494, -1.680224, 1.971767, 1.292932, -23.567688, -116.061752, 88.350067, 13.767698, 100.802013
1759319634.107967, 5.174618, 1.536479, -3.802292, -1.206379, 0.858349, 1.145464, -22.797836, -114.972610, 88.523422, 13.767809, 100.802225
1759319634.128720, 6.363189, 3.051260, -5.747431, -1.238269, 1.174468, 0.970942, -21.233292, -113.359375, 88.209152, 13.767809, 100.802225
1759319634.148702, 7.624186, 2.335843, -5.603180, -1.753513, 1.753065, 0.651437, -19.479477, -111.644485, 88.193054, 13.767809, 100.802225
1759319634.168737, 8.521413, 2.942623, -6.075137, -2.142174, 1.954115, 0.269979, -18.099121, -109.729446, 88.091019, 13.767809, 100.802225
1759319634.188721, 9.529970, 5.408801, -3.517681, -1.190054, 1.313813, 0.403492, -16.799133, -108.892136, 88.137253, 13.767809, 100.802225
1759319634.207817, 8.184429, 5.267693, -3.837606, -0.175342, 1.681510, 0.716138, -14.561417, -108.632812, 87.892136, 13.767809, 100.802225
1759319634.228729, 7.020248, 4.749797, -4.758177, -0.090739, 3.404325, 0.049703, -11.170456, -108.662292, 87.181427, 13.767809, 100.802225
1759319634.248715, 7.484574, 5.607520, -4.635025, 0.053850, 3.861303, 0.102846, -7.757782, -108.546967, 87.412003, 13.767809, 100.802225
1759319634.268734, 7.894132, 4.145560, -3.244592, -0.661682, 3.698553, -0.115624, -3.734039, -107.771973, 87.619507, 13.767809, 100.802225
1759319634.288706, 7.409156, 5.461324, -3.416526, -1.200402, 4.659377, 0.228994, -0.970520, -106.122940, 88.498947, 13.767809, 100.802225
1759319634.308739, 7.904008, 2.841917, 7.812280, -0.625928, 0.518346, -0.231231, -0.237396, -105.719498, 88.579102, 13.767809, 100.802225
1759319634.328732, 10.806080, 3.317166, 2.627786, 0.234955, -0.259866, -0.306144, -0.479355, -106.107727, 88.337189, 13.767809, 100.802225
1759319634.348689, 8.008754, 1.343446, -1.944241, 0.232296, -0.837873, -1.333845, -1.346069, -106.200012, 88.546707, 13.767809, 100.802225
1759319634.368707, 5.276820, 0.486472, -3.853916, -0.165458, 0.387581, -2.581603, -1.681168, -105.432602, 88.209076, 13.767809, 100.802225
1759319634.388708, 4.250007, -0.472256, 0.489914, -0.999249, 0.316155, -3.525777, -1.994354, -104.989532, 88.299759, 13.767809, 100.802225
1759319634.408689, 6.214001, 4.196437, 3.643077, -1.882575, -1.318695, -3.488803, -4.285736, -102.371796, 88.840210, 13.767809, 100.802225
1759319634.428702, 11.397747, 6.428880, -3.705925, -0.552224, -0.581794, -3.326910, -5.609009, -101.581955, 88.801956, 13.767809, 100.802225
1759319634.448693, 11.167903, 3.174861, -3.146879, -0.561188, 0.611256, -3.942418, -5.845764, -101.212585, 88.723389, 13.767809, 100.802225
1759319634.468706, 8.551340, 4.634127, -1.717690, -1.026091, 1.239483, -3.982639, -6.369751, -100.214874, 89.174927, 13.767809, 100.802225
1759319634.488696, 3.799299, 7.382371, -2.308010, -0.217906, 2.215439, -3.118646, -5.924911, -99.290680, 89.798187, 13.767809, 100.802225
1759319634.508696, 5.481974, 3.513491, 1.251419, 0.279514, 1.690999, -2.786170, -5.335205, -99.142029, 89.615479, 13.767809, 100.802225
1759319634.528701, 2.921375, 2.559850, -0.225055, 0.517663, 1.904503, -3.063899, -4.810760, -99.112259, 89.974747, 13.767809, 100.802225
1759319634.547875, 2.005294, 3.244293, 1.917007, 0.624204, 1.367105, -3.194757, -5.003952, -99.410980, 89.673050, 13.767809, 100.802225
1759319634.568737, 0.354940, 3.513790, 2.598158, 0.687216, -0.616552, -3.556803, -6.610123, -100.173157, 89.171249, 13.767809, 100.802225
1759319634.588272, -0.680253, 2.445976, 0.943615, 0.306634, -1.511558, -4.129815, -8.976791, -100.489120, 89.151505, 13.767809, 100.802225
1759319634.608006, -1.813907, 3.574543, -2.963722, -1.174790, -1.601764, -4.143837, -11.911819, -99.965195, 89.239853, 13.767809, 100.802225
1759319634.628709, -1.279701, 1.973570, 1.115698, -1.514430, -2.092250, -3.859944, -15.367081, -99.039703, 90.345276, 13.767809, 100.802225
1759319634.648407, -2.180968, 3.086126, 4.089596, -0.930481, -3.929110, -3.222659, -19.728088, -98.922760, 91.264923, 13.767809, 100.802225
1759319634.668713, -1.196203, 11.545439, 1.472883, -1.098473, -4.805626, -4.820547, -23.851425, -101.040024, 91.976135, 13.767809, 100.802225
1759319634.688701, -17.436821, 49.596636, 12.265645, -1.829813, -7.639026, -3.364526, -32.827133, -99.446655, 96.771194, 13.767809, 100.802225
1759319634.707852, 0.385616, 11.418247, -6.166566, 1.261655, -4.398278, -0.417673, -36.906006, -99.893127, 98.727539, 13.767809, 100.802225
1759319634.728715, 0.879420, 7.809886, -1.016189, 2.076026, -0.842029, -0.196431, -37.867126, -101.379959, 98.966843, 13.767809, 100.802225
1759319634.748703, 0.279373, 4.059070, -0.613365, 1.201251, -0.060660, -0.128687, -37.752548, -102.292007, 98.469421, 13.767809, 100.802225
1759319634.768704, -0.583437, 6.440402, -0.397886, 0.348614, 0.473942, -0.126352, -37.276031, -102.878647, 98.189713, 13.767809, 100.802225
1759319634.788712, -1.412729, 11.339238, -0.332345, -0.631751, 0.973274, -0.073981, -36.778687, -102.346649, 97.991806, 13.767809, 100.802225
1759319634.808205, -0.727239, 10.288333, 1.540220, -1.130721, 0.828791, 0.327982, -36.481567, -101.236694, 97.683762, 13.767809, 100.802225
1759319634.828761, -0.956783, 9.608829, 2.810643, -0.846472, 0.111342, 0.468094, -36.262924, -100.338043, 98.536591, 13.767809, 100.802225
1759319634.848695, -1.381604, 8.731504, 2.880225, -0.000962, -0.157037, 0.318149, -36.297989, -100.190567, 98.222549, 13.767809, 100.802225
1759319634.868715, -1.566257, 9.012523, 3.440019, 0.624100, -0.132312, -0.036416, -36.279648, -100.713333, 97.589096, 13.767809, 100.802225
1759319634.888451, -0.995689, 8.009203, 3.078644, 0.731592, -0.660438, -0.265170, -37.018295, -101.477432, 98.211609, 13.767809, 100.802225
1759319634.908694, -0.422577, 8.875904, 2.630779, 0.939128, -0.444106, -0.337350, -37.403656, -102.340958, 97.938889, 13.767809, 100.802225
1759319634.928702, -1.541567, 10.728118, 1.583764, 0.582278, -0.636345, -0.163981, -37.677277, -102.886902, 98.405792, 13.767809, 100.802225
1759319634.948701, -2.587683, 11.666795, -2.427870, 0.690530, -0.563651, 0.155543, -38.270676, -103.030289, 98.775726, 13.767809, 100.802225
1759319634.968708, -2.942623, 9.428965, -3.788974, 0.596573, -0.089240, 0.270920, -38.307510, -103.230072, 98.091766, 13.767809, 100.802225
1759319634.988695, -2.210447, 8.213458, -0.653168, -0.179977, -0.022995, -0.043672, -38.564270, -102.802948, 98.628113, 13.767809, 100.802225
1759319635.007999, -2.378190, 9.649979, -0.655562, -0.207122, 0.437399, -0.141677, -38.378815, -103.019455, 98.192276, 13.767809, 100.802225
1759319635.028111, -0.721104, 9.794230, 1.342399, -0.332000, 1.379182, 0.056860, -37.673676, -102.346405, 97.429352, 13.767809, 100.802225
1759319635.048692, -0.480486, 9.962872, 3.198354, -0.232040, 1.231207, 0.052793, -36.590958, -102.144592, 97.194153, 13.767809, 100.802225
1759319635.068716, -1.020678, 9.008483, 2.454506, -0.125871, 0.458543, 0.090051, -36.217117, -101.971359, 96.892624, 13.767809, 100.802225
1759319635.088698, -0.804302, 9.130438, 2.230348, -0.035107, -0.061834, -0.006728, -36.055145, -102.015366, 97.163467, 13.767809, 100.802225
1759319635.108693, -0.884807, 9.944616, 1.003919, 0.020491, -0.600372, -0.096392, -36.342010, -102.134354, 96.936325, 13.767809, 100.802225
1759319635.128717, -1.046116, 10.071209, -0.326210, 0.097410, -0.560323, -0.079335, -36.785446, -102.435150, 97.471298, 13.767809, 100.802225
1759319635.148713, -1.342698, 9.536404, -0.701202, 0.137138, -0.225183, 0.015163, -36.944122, -102.653259, 98.464355, 13.767809, 100.802225
1759319635.167824, -1.476624, 9.071480, -0.014515, 0.023587, 0.079712, 0.064284, -37.048187, -102.653214, 97.890778, 13.767809, 100.802225
1759319635.187877, -1.463905, 9.419388, 0.984615, -0.120811, 0.128188, 0.074751, -36.728546, -102.566757, 97.405701, 13.767809, 100.802225
1759319635.208695, -1.375618, 9.759963, 1.433828, -0.052138, 0.084687, 0.071825, -36.507187, -102.721252, 98.033676, 13.767809, 100.802225
1759319635.228718, -1.402553, 9.772982, 1.382951, 0.109801, -0.049463, 0.033839, -36.515076, -102.946198, 97.786560, 13.767809, 100.802225
1759319635.248696, -1.572990, 9.365219, 0.572214, 0.208619, -0.196968, -0.003217, -36.671387, -103.105484, 98.126801, 13.767809, 100.802225
1759319635.268607, -1.313519, 9.194782, 0.042347, 0.264974, -0.218639, -0.086564, -36.679291, -103.248505, 97.576736, 13.767809, 100.802225
1759319635.288717, -0.998532, 9.559299, -0.106692, 0.245790, -0.210247, -0.121176, -37.036179, -103.274734, 97.537170, 13.767809, 100.802225
1759319635.308697, -0.625036, 9.866206, -0.159065, 0.055229, -0.196194, -0.097980, -37.161682, -103.454819, 98.347107, 13.767809, 100.802225
1759319635.328019, -0.787543, 9.533561, -0.281618, -0.078298, 0.048324, -0.006843, -37.062576, -103.267792, 97.949829, 13.767809, 100.802225
1759319635.348714, -0.970250, 9.235633, 0.007033, -0.151016, 0.138272, 0.021091, -37.066711, -103.151398, 98.322189, 13.767788, 100.802143
1759319635.368713, -0.797269, 9.210793, 0.257826, -0.196008, -0.142561, -0.029357, -37.245575, -103.099503, 97.875534, 13.767788, 100.802143
1759319635.388718, -1.535431, 10.052654, -0.115371, -0.153275, -0.343696, -0.037910, -37.447723, -102.959137, 98.056381, 13.767788, 100.802143
1759319635.408695, -1.310825, 9.988609, -0.521038, -0.154725, -0.263249, -0.010981, -37.514938, -103.112564, 98.834427, 13.767788, 100.802143
1759319635.428723, -1.098639, 10.413430, -0.781856, -0.169401, -0.111601, 0.022427, -37.865707, -102.733673, 98.028793, 13.767788, 100.802143
1759319635.448717, -1.426196, 10.009409, -1.067814, -0.073736, 0.168230, 0.035117, -37.811813, -102.471252, 98.352081, 13.767788, 100.802143
1759319635.468719, -1.244237, 9.602544, -0.376339, -0.016602, 0.282998, -0.002887, -37.708969, -102.453079, 98.277832, 13.767788, 100.802143
1759319635.487832, -0.998681, 9.433304, 0.163704, -0.005096, 0.132526, -0.072702, -37.605957, -102.267090, 98.283813, 13.767788, 100.802143
1759319635.508686, -0.796222, 9.750087, 0.462979, 0.091571, 0.058005, -0.085063, -37.507126, -102.346741, 97.798279, 13.767788, 100.802143
1759319635.528721, -0.725443, 9.613019, 0.851887, 0.124659, -0.007863, -0.048569, -37.675491, -102.424408, 97.791458, 13.767788, 100.802143
1759319635.548712, -0.936282, 9.433753, 0.758214, 0.027794, -0.112688, -0.006016, -37.657913, -102.665985, 98.382584, 13.767788, 100.802143
1759319635.568519, -1.187075, 9.559748, 0.498892, -0.056587, -0.068732, 0.035257, -37.624664, -102.546661, 97.765915, 13.767788, 100.802143
1759319635.588713, -1.241693, 9.547478, 0.221314, -0.106276, -0.009225, 0.047069, -37.685806, -102.341843, 98.410461, 13.767788, 100.802143
1759319635.608500, -1.200991, 9.601946, 0.470012, -0.099901, 0.015358, 0.041995, -37.574265, -102.295105, 97.865723, 13.767788, 100.802143
1759319635.628716, -1.177498, 9.702053, 0.394594, -0.097379, -0.028610, 0.026561, -37.256821, -102.440430, 98.229858, 13.767788, 100.802143
1759319635.648644, -1.186477, 9.666290, 0.275333, -0.096760, -0.031260, 0.009532, -37.449188, -102.591537, 99.080368, 13.767788, 100.802143
1759319635.668717, -1.291073, 9.468768, 0.222661, -0.060092, 0.031431, -0.016701, -37.218384, -102.334335, 98.120743, 13.767788, 100.802143
1759319635.688715, -1.323096, 9.373599, 0.389956, -0.066914, 0.116848, -0.029378, -37.144379, -102.493423, 98.038025, 13.767788, 100.802143
1759319635.708689, -1.247080, 9.484929, 0.587926, -0.105749, 0.158450, -0.028046, -36.999786, -102.461014, 98.583527, 13.767788, 100.802143
1759319635.728718, -1.116446, 9.582343, 0.596904, -0.108370, 0.184270, -0.028127, -36.867859, -102.384155, 97.873199, 13.767788, 100.802143
1759319635.748713, -0.959177, 9.702053, 0.522983, -0.084043, 0.145559, -0.038393, -36.769577, -102.465332, 98.342911, 13.767788, 100.802143
1759319635.768734, -0.857274, 9.627534, 0.472855, -0.054027, 0.132601, -0.043255, -36.717148, -102.553040, 97.891281, 13.767788, 100.802143
1759319635.788480, -0.872687, 9.587132, 0.695815, -0.091292, 0.140004, -0.025791, -36.717056, -102.125046, 98.054230, 13.767788, 100.802143
1759319635.808150, -0.792930, 9.615114, 1.222390, -0.159980, 0.127847, -0.006887, -36.976959, -102.057968, 98.553436, 13.767788, 100.802143
1759319635.828742, -1.289128, 9.570522, 1.042824, -0.155144, 0.018802, 0.017370, -36.673279, -102.127472, 97.946564, 13.767788, 100.802143
1759319635.848722, -1.251270, 9.487623, 1.069161, -0.114288, -0.021532, -0.002405, -36.843292, -102.029572, 98.578262, 13.767788, 100.802143
1759319635.868662, -1.192013, 9.270199, 0.765845, -0.067756, -0.142770, -0.031846, -36.797241, -102.025055, 97.988159, 13.767788, 100.802143
1759319635.888713, -1.097143, 9.607931, 0.678008, -0.070483, -0.138418, -0.074422, -36.988464, -102.107147, 98.230072, 13.767788, 100.802143
1759319635.908689, -1.196053, 9.473257, 0.642394, -0.077908, 0.087765, -0.054781, -36.942566, -102.281693, 98.462204, 13.767788, 100.802143
1759319635.928712, -1.142483, 9.489418, 1.042974, -0.141962, 0.001182, -0.036494, -37.314911, -101.820770, 97.697601, 13.767788, 100.802143
1759319635.948717, -0.846350, 9.604789, 0.845602, -0.170170, -0.038660, -0.033298, -37.369827, -101.443573, 98.450668, 13.767788, 100.802143
1759319635.968516, -0.695815, 9.496002, 1.354520, -0.129656, -0.081161, -0.075585, -37.462555, -101.357666, 98.347443, 13.767788, 100.802143
1759319635.988655, -1.584662, 9.441834, 0.470610, -0.096049, -0.130857, -0.066413, -37.498856, -101.170837, 98.802032, 13.767788, 100.802143
1759319636.007815, -1.309329, 9.878027, 0.376638, -0.231486, -0.008272, -0.102038, -37.442474, -101.174225, 98.109909, 13.767788, 100.802143
1759319636.028723, -1.367688, 9.688586, 0.271742, -0.218337, 0.060072, -0.084666, -37.508713, -100.953857, 98.370850, 13.767795, 100.802188
1759319636.048448, -1.268628, 9.622296, 0.527473, -0.253459, 0.261679, -0.079740, -37.383942, -100.897476, 98.999557, 13.767795, 100.802188
1759319636.068374, -1.071854, 9.182512, 0.935085, -0.257061, 0.278048, -0.057096, -37.107727, -100.738968, 98.645111, 13.767795, 100.802188
1759319636.088504, -1.172710, 9.302970, 1.067215, -0.318591, 0.214215, -0.082586, -36.806198, -100.477310, 98.151550, 13.767795, 100.802188
1759319636.108689, -1.180641, 9.648184, 1.461062, -0.261110, 0.146166, -0.050841, -36.674957, -100.420395, 97.973694, 13.767795, 100.802188
1759319636.128714, -0.610372, 9.104850, 2.216881, -0.087583, -0.203697, -0.128473, -36.711761, -100.440414, 98.093307, 13.767795, 100.802188
1759319636.148719, -0.840215, 9.150190, 1.284639, -0.032899, -0.613661, -0.166954, -37.203049, -100.735443, 100.361816, 13.767795, 100.802188
1759319636.168218, -1.022623, 9.944167, 0.458041, 0.032838, -0.761543, -0.152622, -37.642654, -101.000916, 98.875748, 13.767795, 100.802188
1759319636.188360, -1.774702, 10.280403, -1.102530, 0.107414, -0.524768, -0.080741, -38.139084, -101.307175, 98.948059, 13.767795, 100.802188
1759319636.208691, -2.324321, 10.285939, -1.343746, 0.039445, -0.095620, -0.040322, -38.160095, -101.402267, 99.700470, 13.767795, 100.802188
1759319636.228719, -2.278532, 9.703550, -0.691176, 0.084914, 0.185639, -0.038773, -37.940430, -101.448349, 98.987930, 13.767795, 100.802188
1759319636.248591, -1.821389, 9.509170, -0.015562, 0.250308, 0.335004, -0.160143, -37.719452, -101.710770, 99.590134, 13.767795, 100.802188
1759319636.268072, -1.567454, 9.387964, 0.700603, 0.316157, 0.347166, -0.177557, -37.733475, -101.891144, 98.442322, 13.767795, 100.802188
1759319636.288217, -1.654842, 9.604490, 1.174206, 0.287215, 0.324550, -0.172766, -37.571014, -102.003159, 98.129166, 13.767795, 100.802188
1759319636.308098, -2.145654, 9.979481, 1.199196, 0.259706, 0.345677, -0.199553, -37.401382, -102.300079, 98.713669, 13.767795, 100.802188
1759319636.328747, -2.747197, 10.042778, 0.395791, 0.432700, 0.418604, -0.234384, -37.250122, -102.958588, 97.842438, 13.767795, 100.802188
1759319636.348720, -2.834435, 9.806351, -0.368258, 0.937825, 0.420757, -0.283081, -36.897308, -103.973907, 98.348785, 13.767795, 100.802188
1759319636.367924, -2.781165, 9.776872, -0.995090, 1.643866, 0.497719, -0.313888, -36.570236, -105.717575, 96.556000, 13.767795, 100.802188
1759319636.388069, -2.580201, 10.545560, -1.907879, 2.363611, 0.890361, -0.274412, -36.388962, -106.466980, 96.634949, 13.767795, 100.802188
1759319636.408224, -1.488146, 10.680234, -2.594566, 2.709556, 1.464254, -0.221659, -35.462112, -108.669937, 94.285248, 13.767795, 100.802188
1759319636.428727, -0.664840, 10.697742, -2.785205, 2.315281, 1.053568, -0.104817, -34.754395, -110.294907, 93.210526, 13.767795, 100.802188
1759319636.448723, -1.053748, 9.784504, -3.766528, 2.383223, 0.580010, -0.074823, -34.220032, -112.217987, 93.464157, 13.767795, 100.802188
1759319636.467792, -1.567903, 9.459042, -2.152088, 1.955619, 0.631957, -0.118627, -33.793213, -113.714249, 92.752808, 13.767795, 100.802188
1759319636.487930, -1.328632, 9.038710, 0.357933, 1.580547, 0.072827, -0.279580, -33.857956, -115.043900, 93.450821, 13.767795, 100.802188
1759319636.508699, -1.427543, 9.369110, 0.584634, 1.558489, -1.271178, -0.157767, -34.793228, -116.380554, 92.934174, 13.767795, 100.802188
1759319636.528732, -0.777068, 9.258827, -1.380108, 1.543900, -2.095459, 0.124892, -36.359787, -117.727066, 93.567795, 13.767795, 100.802188
1759319636.548729, -1.082478, 9.609727, -4.420893, 1.423183, -2.218559, 0.309756, -37.883118, -118.550400, 95.821960, 13.767795, 100.802188
1759319636.568732, -1.955464, 8.271368, -5.062689, 1.142911, -1.737076, 0.378248, -39.134476, -119.302429, 95.925919, 13.767795, 100.802188
1759319636.587775, -2.606837, 6.929269, -4.578013, 0.729230, -0.998264, 0.392327, -39.794479, -119.649429, 97.050247, 13.767795, 100.802188
1759319636.608694, -2.815581, 6.645406, -3.047968, 0.536629, -0.675053, 0.283577, -40.244522, -119.910843, 97.322952, 13.767795, 100.802188
1759319636.628715, -2.966565, 7.727435, -3.099294, 0.497005, -0.782581, 0.141489, -40.899902, -120.259460, 98.999481, 13.767795, 100.802188
1759319636.648719, -2.688988, 8.278401, -3.619584, 0.319524, -0.804752, 0.145484, -41.380600, -120.490402, 100.143204, 13.767795, 100.802188
1759319636.668719, -2.277933, 8.118439, -4.378097, 0.093910, -0.737968, 0.152691, -41.793884, -120.434814, 98.782913, 13.767795, 100.802188
1759319636.688718, -1.823633, 7.582736, -5.511303, -0.217747, -0.445803, 0.225398, -42.037888, -120.064789, 99.241852, 13.767795, 100.802188
1759319636.708695, -1.550694, 7.224204, -5.644480, -0.518638, -0.102676, 0.265216, -41.953476, -119.424576, 99.814178, 13.767795, 100.802188
1759319636.728723, -1.272518, 7.825747, -6.129755, -0.618429, -0.101798, 0.276556, -42.090164, -118.993454, 99.802307, 13.767795, 100.802188
1759319636.748719, -1.077091, 8.625710, -6.926425, -0.575726, -0.026371, 0.260197, -42.078171, -118.327530, 99.777054, 13.767795, 100.802188
1759319636.768718, -1.056591, 8.777891, -6.597821, -0.620106, 0.024397, 0.353920, -42.245331, -117.730896, 99.224701, 13.767795, 100.802188
1759319636.788718, -1.192462, 8.089259, -6.412720, -0.642028, -0.219284, 0.494159, -42.340149, -116.788803, 99.620193, 13.767795, 100.802188
1759319636.808055, -0.831835, 6.879888, -6.571186, -0.593516, -0.151221, 0.612337, -42.506897, -115.742813, 100.120529, 13.767795, 100.802188
1759319636.828736, 0.574758, 5.161151, -5.501576, -0.721788, 0.288026, 0.668061, -42.269897, -114.879608, 99.362488, 13.767795, 100.802188
1759319636.848718, 0.864905, 2.832041, -3.986944, -1.110762, 0.554382, 0.785240, -42.011383, -113.214676, 100.029083, 13.767795, 100.802188
1759319636.868720, -0.191686, 1.554435, -0.281618, -1.506132, 0.653347, 0.944237, -41.714645, -111.775742, 98.925598, 13.767795, 100.802188
1759319636.888715, -3.138798, 4.083610, 3.439420, -1.645551, 0.447709, 0.389516, -40.756943, -110.870041, 98.138474, 13.767795, 100.802188
1759319636.908695, -3.633949, 8.269872, 1.325640, -1.202291, 0.842652, -0.185416, -40.379196, -111.337555, 99.049408, 13.767795, 100.802188
1759319636.928744, -4.128053, 14.535797, -5.311985, 0.368382, -0.997478, -0.095584, -41.380112, -110.975250, 98.804657, 13.767795, 100.802188
1759319636.948722, -5.055357, 9.102755, -9.799916, -0.052309, -0.742289, -0.593281, -41.985336, -110.945099, 99.840103, 13.767795, 100.802188
1759319636.968724, -2.762460, 10.384251, -6.586898, -1.809771, 2.101941, -0.642042, -41.015701, -110.806366, 98.259872, 13.767795, 100.802188
1759319636.988730, 0.338181, 11.316493, 0.507122, -2.922334, 3.191878, -0.506217, -39.090805, -108.889862, 97.604202, 13.767795, 100.802188
1759319637.008215, -0.995389, 15.673940, 5.272780, -4.026136, 3.665706, -0.677657, -36.314957, -106.290680, 95.361649, 13.767795, 100.802188
1759319637.028716, -0.694169, 25.982026, 4.593874, -4.400011, 1.384565, -0.371953, -35.428833, -103.705856, 96.053864, 13.767795, 100.802188
1759319637.048140, 2.348562, 27.549031, 1.079336, -2.422543, -3.762884, 0.026464, -37.513824, -102.153885, 98.939331, 13.767839, 100.802351
1759319637.068720, -0.032920, 20.191200, -4.973206, -2.526769, -3.751293, 0.229493, -39.764954, -100.303452, 101.842285, 13.767839, 100.802351
1759319637.088726, -1.206678, 13.288118, -8.743475, -1.768519, -2.243594, 0.486353, -41.073349, -99.085220, 104.104141, 13.767839, 100.802351
1759319637.108696, -0.890044, 8.046613, -7.471256, -1.276441, -0.780019, 0.203708, -41.461807, -97.879059, 104.329376, 13.767839, 100.802351
1759319637.128721, -1.108515, 4.926818, -6.146514, -0.312060, 0.077327, 0.035894, -41.551727, -97.847977, 104.309647, 13.767839, 100.802351
1759319637.148699, 0.192883, 2.075922, -5.037999, -0.050685, 0.298900, -0.118110, -41.469299, -97.977203, 105.409073, 13.767839, 100.802351
1759319637.168686, 0.022595, 2.101511, -5.183896, 0.165147, 0.332746, -0.267325, -41.151566, -98.409225, 103.590927, 13.767839, 100.802351
1759319637.188725, 0.507571, 3.704279, -0.848744, 1.063641, 1.347954, -0.361925, -40.711838, -99.389969, 102.441711, 13.767839, 100.802351
1759319637.208697, -0.555904, 4.297143, 4.215291, 0.864628, 1.371229, -0.677828, -40.333313, -100.175049, 102.556213, 13.767839, 100.802351
1759319637.228727, -0.922665, 2.013075, 4.458602, 0.435130, -0.278553, -0.324574, -40.992538, -100.462799, 101.918472, 13.767839, 100.802351
1759319637.248003, -0.330101, -0.496198, 0.876876, 0.851422, -0.157016, 0.038884, -40.956345, -101.019012, 102.044281, 13.767839, 100.802351
1759319637.268718, -2.734478, 0.595857, 2.389563, 2.779804, 0.613948, 0.456401, -40.022415, -103.464157, 99.961685, 13.767839, 100.802351
1759319637.288027, -5.407454, 10.462512, 4.921282, 4.501349, 0.365548, 1.203197, -39.151062, -106.370331, 98.661819, 13.767839, 100.802351
1759319637.308699, -6.208913, 19.220651, 3.425055, 4.928914, -0.007099, 1.460030, -37.742722, -110.176788, 97.582169, 13.767839, 100.802351
1759319637.328703, -5.363610, 32.300324, -3.340360, 4.736460, 0.471054, -0.158588, -38.266205, -113.719131, 97.287186, 13.767839, 100.802351
1759319637.348172, -3.225289, 30.068330, -17.666814, 3.303349, -1.973507, -0.800985, -39.000320, -116.312149, 98.423416, 13.767839, 100.802351
1759319637.368369, 5.924751, 25.465178, -11.857882, 2.288432, 0.434731, -0.421153, -39.276566, -116.841263, 97.819580, 13.767839, 100.802351
1759319637.388705, 8.999056, 21.612159, 1.092953, 1.126087, -0.132106, 0.682083, -40.268982, -115.954376, 98.834229, 13.767839, 100.802351
1759319637.408709, 4.706552, 14.666580, 5.166089, 1.178457, -4.520135, 1.145834, -42.924377, -115.182495, 100.607681, 13.767839, 100.802351
1759319637.428740, -7.158064, -1.782782, -4.546888, 0.714507, -3.437146, 0.685539, -45.995850, -115.166840, 103.754196, 13.767839, 100.802351
1759319637.448717, -7.272986, -6.465242, -5.258265, -0.462113, -1.280999, -0.144522, -47.283234, -114.527985, 106.115005, 13.767839, 100.802351
1759319637.468707, -0.943764, -5.103091, 0.002693, -1.165490, 0.313976, -0.771691, -47.398956, -114.431976, 105.438522, 13.767839, 100.802351
1759319637.488711, -1.991976, -6.099827, 3.324050, -1.251434, 1.093726, -0.669265, -46.905624, -114.069580, 105.936813, 13.767839, 100.802351
1759319637.508224, -3.866336, -6.252607, 3.604620, -1.420327, 1.290221, -0.685356, -46.029114, -113.548798, 103.993118, 13.767839, 100.802351
1759319637.528712, -4.363582, -4.041861, 1.308132, -3.246891, 0.557413, 0.185692, -45.440506, -111.962051, 103.664963, 13.767839, 100.802351
1759319637.548783, -0.235679, 0.180463, -1.787272, -2.916129, 1.365737, 0.029953, -44.348465, -110.218857, 104.171722, 13.767839, 100.802351
1759319637.568710, 4.156334, 11.567885, -6.152500, -0.234696, 1.618960, -0.580583, -42.760696, -110.480911, 102.042557, 13.767839, 100.802351
1759319637.588721, 8.426542, 14.232631, -10.045771, 2.813107, -0.220688, 0.047348, -42.385666, -112.224503, 102.514771, 13.767839, 100.802351
1759319637.608698, 1.360056, 3.668067, 2.217929, 3.590147, -1.107027, -0.025354, -43.156418, -114.131149, 102.527298, 13.767839, 100.802351
1759319637.628777, -6.309021, 6.364536, 3.375076, 1.199550, 2.445040, 0.529404, -41.932068, -115.052017, 101.361908, 13.767839, 100.802351
1759319637.648729, -5.313182, 12.728623, 8.702923, -1.526443, 1.726045, 0.015599, -40.170532, -114.805954, 100.690872, 13.767839, 100.802351
1759319637.668726, -1.573589, 29.997551, 11.029638, -3.532462, -1.714797, -1.685743, -40.381271, -114.268799, 100.618774, 13.767839, 100.802351
1759319637.688013, -0.855179, 40.597879, 9.216330, -3.961908, -3.255016, -1.573748, -42.592728, -112.378036, 103.929413, 13.767839, 100.802351
1759319637.708292, -1.455226, 25.006987, 0.175824, -4.249547, -4.082809, 1.624058, -45.064590, -108.417572, 108.582947, 13.767839, 100.802351
1759319637.728728, -11.664102, 20.499753, -18.083405, -3.230911, -3.781905, 2.297936, -45.909973, -105.160583, 110.898544, 13.767839, 100.802351
1759319637.748727, -8.209119, 15.225776, -13.111247, -3.286182, 0.912653, 2.234925, -45.596298, -101.435562, 112.110733, 13.767839, 100.802351
1759319637.768725, -5.108029, 7.898172, -4.564994, -2.382309, 2.766171, 0.885063, -44.428894, -99.277649, 110.128494, 13.767839, 100.802351
1759319637.788596, -2.440589, 7.821109, -0.849493, -0.359129, 2.304035, -0.155384, -43.353363, -99.325211, 108.680435, 13.767839, 100.802351
1759319637.808700, 0.837073, 4.373009, 3.746028, -0.897393, 1.933239, -0.551066, -42.880066, -98.849930, 109.186050, 13.767839, 100.802351
1759319637.828728, 1.715894, -0.603339, -4.833744, -0.949839, 0.596160, -0.326747, -42.334518, -98.731384, 107.812775, 13.767839, 100.802351
1759319637.848732, 3.456329, 1.579275, -3.356521, 0.256070, 0.988198, -0.135416, -41.901428, -98.897247, 107.955353, 13.767839, 100.802351
1759319637.868723, 1.901445, 3.034800, 2.562993, 0.306537, 1.069985, -0.162545, -41.499252, -99.190781, 106.225235, 13.767839, 100.802351
1759319637.888431, 1.453131, 0.384120, 3.558233, 0.728813, 0.678491, -0.199320, -41.213806, -99.493195, 105.681732, 13.767839, 100.802351
1759319637.908699, -0.077213, -2.897433, 1.586458, 2.647849, 0.510955, 0.015642, -41.094788, -101.026489, 105.664612, 13.767839, 100.802351
1759319637.928744, -0.188394, -1.474978, 7.680449, 3.770463, -1.191839, -0.042690, -42.195587, -101.283463, 104.250366, 13.767839, 100.802351
1759319637.948727, -4.784662, 4.355651, -0.233435, 4.688177, -3.026680, 0.301815, -43.419250, -103.675705, 105.974030, 13.767839, 100.802351
1759319637.968729, -7.526472, 15.885977, -2.014272, 5.117508, -2.061259, 0.212930, -43.926682, -107.624420, 104.443497, 13.767839, 100.802351
1759319637.988315, -9.483134, 36.859034, -16.432453, 3.491773, -0.292572, 0.867597, -42.809479, -110.655212, 104.771606, 13.767839, 100.802351
1759319638.008702, -10.004621, 30.102447, -12.576442, 1.924896, 6.052098, -0.463423, -40.656815, -111.364197, 101.095383, 13.767839, 100.802351
1759319638.028726, -4.027346, 19.610457, -0.507571, 1.193267, 6.126306, -0.330716, -36.849884, -111.887680, 97.279846, 13.767831, 100.802360
1759319638.048704, 1.258602, 20.071790, 3.144036, 1.151363, 2.040358, -0.988231, -34.957886, -113.148254, 96.311234, 13.767831, 100.802360
1759319638.068732, 6.222979, 20.610784, 0.954538, 1.394721, -1.431623, -0.339398, -35.707565, -114.321030, 96.391815, 13.767831, 100.802360
1759319638.088177, 6.820781, 16.189741, 2.496255, 1.280535, -2.367128, 0.690241, -37.980118, -114.698868, 98.081650, 13.767831, 100.802360
1759319638.108701, 2.330905, 2.447473, 4.556465, 1.544038, -3.690381, 0.460216, -40.763504, -114.972260, 99.848892, 13.767831, 100.802360
1759319638.128798, -2.502240, -5.367800, -0.345813, 0.955304, -5.156249, 0.461752, -44.213440, -115.134125, 103.123932, 13.767831, 100.802360
1759319638.148651, -0.873285, -10.727221, -1.545906, 0.182924, -3.794754, 0.087380, -46.506454, -115.275146, 106.244217, 13.767831, 100.802360
1759319638.168725, -2.559402, -9.702203, -0.285060, -1.487870, -0.687069, -0.120013, -46.911911, -114.456451, 105.969101, 13.767831, 100.802360
1759319638.188033, -4.068347, -7.370550, 2.044349, -2.787694, 1.620477, 0.534315, -46.194656, -112.459854, 105.250717, 13.767831, 100.802360
1759319638.208701, -4.852448, -3.513341, 1.003470, -4.111377, 1.190105, 1.232255, -45.435486, -109.180542, 105.160568, 13.767831, 100.802360
1759319638.228746, -3.307590, 2.686743, -4.110395, -3.176776, 2.161537, 0.606342, -43.550003, -107.528824, 103.181595, 13.767831, 100.802360
1759319638.248455, 2.322825, 17.482610, -12.287342, 1.430203, 2.410491, -0.189237, -41.588593, -109.521118, 102.008362, 13.767831, 100.802360
1759319638.268631, 6.465990, 14.345458, -5.794267, 4.583377, -0.469011, 0.021731, -42.357101, -112.035843, 100.960373, 13.767831, 100.802360
1759319638.287893, -4.061165, 4.101866, 7.909694, 3.142648, -0.221879, -0.350483, -42.428101, -113.676041, 100.614243, 13.767831, 100.802360
1759319638.308705, -7.233182, 8.639327, 5.876418, 0.427679, 3.069836, -0.095216, -40.258377, -114.633499, 99.864883, 13.767831, 100.802360
1759319638.328004, -2.396297, 11.300183, 6.073641, -3.175846, -1.917615, -1.084202, -42.035110, -113.292007, 100.948578, 13.767831, 100.802360
1759319638.348333, -0.434099, 28.828881, 7.288249, -3.682261, -2.908245, -1.277731, -42.908569, -112.638290, 103.739166, 13.767831, 100.802360
1759319638.368466, 1.695095, 37.150827, -1.012598, -5.315883, -3.731637, 0.282212, -44.968246, -109.166916, 106.086594, 13.767831, 100.802360
1759319638.387778, -3.150919, 26.821194, -8.897003, -3.742187, -1.873086, 1.134569, -46.348450, -106.902588, 108.096420, 13.767831, 100.802360
1759319638.408105, -5.639991, 19.789423, -6.469731, -3.269153, -2.695226, 2.044836, -47.155075, -103.318466, 110.031143, 13.767831, 100.802360
1759319638.428756, -7.518092, 12.101642, -8.129661, -2.744629, -0.847018, 2.426888, -47.607285, -99.988876, 112.208954, 13.767831, 100.802360
1759319638.448186, -8.312519, 2.943222, -10.506804, -1.560832, 2.138250, 1.263921, -46.669678, -97.556870, 112.284073, 13.767831, 100.802360
1759319638.468333, -4.699070, 5.825691, -2.078167, -0.725194, 3.167104, 0.073261, -45.226807, -97.212402, 109.825424, 13.767831, 100.802360
1759319638.488726, -2.294693, 0.599598, -2.415301, -1.505521, 2.466877, -0.224824, -44.120529, -96.267395, 109.268967, 13.767831, 100.802360
1759319638.508710, 2.357690, -0.179266, -2.356343, -0.282353, 2.602622, -0.578463, -42.938950, -96.481766, 107.037933, 13.767831, 100.802360
1759319638.528735, 3.664625, 3.518579, 6.936301, -0.494584, 1.824238, -0.355258, -42.116699, -96.642120, 106.033630, 13.767831, 100.802360
1759319638.548040, 3.327042, 1.912668, 5.305551, -0.150260, -0.088949, 0.055615, -41.921982, -96.197723, 106.749908, 13.767831, 100.802360
1759319638.568192, 2.796428, -0.744447, 1.145925, 1.599117, -0.530191, 0.813146, -42.311325, -96.491348, 105.667084, 13.767831, 100.802360
1759319638.588728, 1.849970, -2.892645, 3.932925, 3.971425, -0.706571, 0.975957, -42.215179, -98.351395, 104.963577, 13.767831, 100.802360
1759319638.608551, -2.622848, 2.535460, 1.998859, 4.073777, -3.601947, 0.105262, -43.821075, -100.917770, 105.779907, 13.767831, 100.802360
1759319638.628756, -4.239533, 8.496872, -2.957737, 4.151949, -2.995000, -1.213385, -44.933090, -105.187149, 106.514587, 13.767831, 100.802360
1759319638.647889, -14.941315, 39.641994, -10.841244, 3.334233, 0.168030, -0.184929, -43.703384, -108.106491, 105.227051, 13.767831, 100.802360
1759319638.668034, -10.314670, 35.754409, -10.437971, 2.750090, 5.296474, 1.017528, -40.768997, -108.290787, 100.463394, 13.767831, 100.802360
1759319638.688729, -5.460276, 23.344065, -2.006191, 1.797469, 5.542610, -0.747260, -37.850922, -109.460327, 97.124878, 13.767831, 100.802360
1759319638.708709, -2.070984, 18.564939, -1.199196, 1.474883, 3.385620, -0.933767, -35.657288, -110.861847, 96.269836, 13.767831, 100.802360
1759319638.728753, 7.316082, 22.501605, 2.675820, 0.952957, 0.839712, -0.928092, -35.421631, -111.805054, 94.949432, 13.767831, 100.802360
1759319638.747786, 8.511537, 17.348236, 1.862839, 0.828334, -0.670555, 0.120983, -36.528320, -112.060532, 96.561996, 13.767831, 100.802360
1759319638.767898, 7.655161, 8.877550, 8.501062, 0.996244, -2.785781, 0.561494, -39.734375, -112.368912, 97.307434, 13.767831, 100.802360
1759319638.788753, -1.224335, -2.107197, 4.598214, 1.964068, -5.399232, 0.107109, -43.405823, -113.770554, 100.916824, 13.767831, 100.802360
1759319638.807755, -2.729839, -9.434202, 0.582390, 1.585570, -5.166624, 0.303666, -46.684357, -114.074982, 105.083069, 13.767831, 100.802360
1759319638.828735, -3.117251, -13.280936, 0.350751, -0.259409, -3.364718, -0.343296, -47.940079, -114.037796, 105.931396, 13.767831, 100.802360
1759319638.848714, -4.342483, -9.640852, 0.268599, -2.879025, 0.351881, -0.164087, -47.136566, -112.246063, 106.317398, 13.767831, 100.802360
1759319638.867739, -5.711518, -4.163966, 1.353472, -3.944215, 1.972656, 1.382195, -47.317871, -109.836929, 104.747055, 13.767831, 100.802360
1759319638.888731, -5.781847, -2.709787, -3.770568, -4.002957, 1.139200, 1.159881, -46.359818, -106.398727, 104.967926, 13.767831, 100.802360
1759319638.908704, -1.399860, 9.261819, -12.256218, 0.076142, 2.638693, -0.301651, -44.129745, -106.801498, 102.373322, 13.767831, 100.802360
1759319638.928733, 2.637662, 15.378406, -6.109853, 2.867758, 1.966386, -0.629469, -42.647507, -108.944214, 100.584045, 13.767831, 100.802360
1759319638.948706, 6.228516, 10.764181, 0.555754, 3.915877, -0.796178, -0.145593, -43.000381, -111.294815, 100.953049, 13.767831, 100.802360
1759319638.968382, -5.878663, 9.733926, 7.205350, 2.470597, 2.723320, -0.204007, -41.459366, -113.673019, 98.383835, 13.767831, 100.802360
1759319638.988729, -7.206996, 16.568324, 6.836792, -0.971008, 2.194421, -0.462655, -39.572723, -113.539276, 97.779480, 13.767831, 100.802360
1759319639.008704, -3.896862, 20.619314, 8.733748, -4.084592, -1.265447, -1.870367, -40.611099, -111.966309, 98.291595, 13.767831, 100.802360
1759319639.028722, 0.320524, 33.885136, 8.737040, -3.527830, -4.292455, -1.399458, -42.908554, -111.236923, 101.361313, 13.767820, 100.802375
1759319639.048435, 0.356137, 30.792576, -0.546028, -3.683496, -5.086292, 0.330464, -45.952393, -108.749771, 105.893295, 13.767820, 100.802375
1759319639.068244, -7.428908, 22.169260, -16.454151, -3.555759, -3.140202, 2.205464, -47.041092, -105.371719, 108.743652, 13.767820, 100.802375
1759319639.088728, -9.553762, 16.640300, -12.594548, -3.663999, 0.602192, 2.715129, -46.254684, -101.335999, 109.408279, 13.767820, 100.802375
1759319639.108706, -9.478046, 9.441385, -8.514230, -2.625809, 3.202693, 2.259787, -44.613571, -97.791489, 108.808395, 13.767820, 100.802375
1759319639.128733, -4.821174, 3.536385, -3.813963, -0.745302, 3.590884, 0.845853, -42.352020, -96.936188, 105.873383, 13.767820, 100.802375
1759319639.148568, -2.077120, 2.573617, 2.182614, -0.711937, 3.381174, -0.124554, -40.832123, -96.215225, 104.894135, 13.767820, 100.802375
1759319639.168091, -0.283114, -2.289306, 0.242413, -1.686299, 2.417169, -0.642097, -39.871918, -95.493408, 103.770523, 13.767820, 100.802375
1759319639.188598, 4.019715, -1.404349, -3.905691, -0.304006, 1.601135, -0.779563, -39.014679, -96.029694, 102.955414, 13.767820, 100.802375
1759319639.208261, 4.234445, 2.949507, 4.656872, -0.357749, 0.750506, -0.636386, -39.160431, -95.919800, 103.126709, 13.767820, 100.802375
1759319639.227940, 3.744082, 2.304120, 2.458995, 0.201442, -0.517602, -0.546040, -39.877655, -96.498062, 102.585861, 13.767820, 100.802375
1759319639.248708, 1.715296, -1.467646, -1.630751, 2.212545, -0.021271, 0.258679, -39.769867, -98.114334, 102.361206, 13.767820, 100.802375
1759319639.267948, 0.353294, -1.510143, 1.734449, 2.944673, -1.520708, -0.091124, -40.790375, -100.465561, 101.589310, 13.767820, 100.802375
1759319639.288723, -2.540398, 2.987814, -1.215955, 3.616895, -1.325232, -0.247633, -41.397598, -102.914719, 101.848221, 13.767820, 100.802375
1759319639.308707, -4.644751, 11.881974, 0.646883, 3.564545, -0.796354, -0.580827, -40.659622, -106.744904, 101.308640, 13.767820, 100.802375
1759319639.328734, -10.293122, 41.365221, -6.510433, 3.156154, 1.009181, 1.120237, -37.472382, -109.357361, 97.566605, 13.767820, 100.802375
1759319639.348730, -9.471611, 40.937856, -8.559570, 2.606695, 5.339128, 0.857747, -34.307861, -109.406586, 96.025146, 13.767820, 100.802375
1759319639.367796, -5.227889, 24.760834, -1.617433, 1.473375, 5.249986, 0.385073, -33.462616, -108.237747, 93.151810, 13.767820, 100.802375
1759319639.388729, -1.638981, 18.937836, 0.037709, 1.121356, 2.736744, -0.483524, -31.348984, -109.248810, 93.106293, 13.767820, 100.802375
1759319639.408706, 6.888417, 18.472313, 6.241534, 1.519096, -1.148461, -0.582221, -32.267288, -110.607239, 92.195068, 13.767820, 100.802375
1759319639.428735, 7.354988, 15.189863, 3.949834, 1.950348, -2.583897, 0.649476, -34.420395, -111.685974, 93.163376, 13.767820, 100.802375
1759319639.448733, 5.509657, 5.134515, 7.573309, 2.278141, -2.845029, 0.369711, -37.484299, -112.711151, 96.015213, 13.767820, 100.802375
1759319639.468733, -1.436970, -4.212747, 5.595399, 2.568137, -6.300441, 0.237211, -42.178177, -114.308731, 98.537201, 13.767820, 100.802375
1759319639.488189, -4.029292, -10.323947, 1.231817, 1.419723, -5.444547, -0.428061, -45.628586, -115.456573, 103.269333, 13.767820, 100.802375
1759319639.508715, -4.915446, -14.138958, -2.506430, -1.185252, -1.268240, -0.757761, -46.428482, -115.226410, 103.339813, 13.767820, 100.802375
1759319639.528754, -5.061492, -9.100061, 0.544232, -3.091732, 2.241034, 0.092953, -44.823196, -113.482178, 101.796509, 13.767820, 100.802375
1759319639.548381, -6.032790, -3.813963, 1.370980, -4.048742, 1.036889, 0.498664, -43.598724, -110.546021, 102.144897, 13.767820, 100.802375
1759319639.568731, -2.915539, 1.399261, -4.786009, -2.935906, 1.443305, 0.041114, -42.234604, -109.402267, 100.450485, 13.767820, 100.802375
1759319639.588735, 0.818069, 12.728474, -10.380809, 0.840437, 1.983654, -0.182885, -40.420914, -111.102844, 98.927261, 13.767820, 100.802375
1759319639.608708, 5.868488, 15.658977, -5.434538, 2.980577, 0.823580, -0.185522, -40.489899, -112.810745, 98.358002, 13.767820, 100.802375
1759319639.628734, 0.867748, 10.334123, 2.420987, 4.010466, -0.437368, -0.402447, -40.433151, -115.308334, 98.136887, 13.767820, 100.802375
1759319639.648708, -9.920075, 9.692477, 7.873631, 1.078690, 3.242367, -0.274828, -37.981705, -116.337769, 97.241425, 13.767820, 100.802375
1759319639.668725, -5.700145, 12.582876, 5.861455, -2.882967, -0.761016, -0.949728, -39.359528, -114.521805, 96.791122, 13.767820, 100.802375
1759319639.688737, -3.148824, 26.962003, 12.588263, -3.536525, -2.715679, -2.074966, -41.053040, -114.249619, 99.330750, 13.767820, 100.802375
1759319639.708244, 0.603788, 35.243846, 2.863914, -3.513879, -5.089480, -1.086300, -44.100571, -112.387512, 103.298569, 13.767820, 100.802375
1759319639.728775, 0.470910, 29.681816, -0.919074, -3.446544, -3.989604, 1.578778, -45.543121, -108.600082, 105.826874, 13.767820, 100.802375
1759319639.748737, -11.432911, 17.123031, -25.469966, -4.652049, -1.746497, 3.088329, -45.491379, -103.958633, 108.791702, 13.767820, 100.802375
1759319639.768735, -11.919533, 11.734282, -13.617770, -3.225491, 1.872452, 2.151119, -44.179245, -100.661331, 106.315506, 13.767820, 100.802375
1759319639.788768, -4.599261, 3.736601, -4.012383, -1.582530, 3.618292, 1.081725, -41.865555, -99.713531, 104.728058, 13.767820, 100.802375
1759319639.808709, -3.224391, 2.177377, 1.508796, -0.872029, 4.270882, -0.189620, -40.141159, -98.815460, 103.612625, 13.767820, 100.802375
1759319639.828736, -0.670676, 0.508618, 3.663129, -1.685835, 1.659097, -0.591004, -39.591309, -98.535141, 102.902603, 13.767820, 100.802375
1759319639.848735, 3.645022, -0.346411, -3.527108, -0.927262, 0.665600, -0.387323, -39.372971, -98.024368, 103.682770, 13.767820, 100.802375
1759319639.868718, 4.296993, 2.026093, -0.815226, -0.650669, 0.406580, -0.139536, -39.532791, -98.048523, 102.998749, 13.767820, 100.802375
1759319639.888747, 2.884115, 2.736722, 1.455375, 0.270997, 0.366933, -0.062607, -40.334488, -96.937332, 103.958313, 13.767820, 100.802375
1759319639.908710, 2.130241, 0.490961, -1.276109, 1.097773, 0.006413, 0.241452, -40.110016, -97.402573, 102.663513, 13.767820, 100.802375
1759319639.928737, 0.526275, -2.111836, 2.259677, 3.026290, -0.801900, 0.245389, -40.652954, -99.397232, 101.862823, 13.767820, 100.802375
1759319639.948417, -1.634492, 3.573346, 0.997634, 3.530333, -2.196067, -0.249060, -41.413574, -102.273819, 103.108490, 13.767820, 100.802375
1759319639.968733, -4.364031, 12.016648, 1.390582, 3.896850, -1.871888, -0.509183, -41.920868, -105.627716, 102.066772, 13.767820, 100.802375
1759319639.988740, -7.573758, 33.025468, -2.851793, 3.391057, -0.708352, 0.625798, -40.777084, -108.402939, 102.115250, 13.767820, 100.802375
1759319640.008712, -9.822212, 38.692094, -9.585935, 3.478323, 4.140003, 1.070911, -37.782913, -109.548843, 98.151047, 13.767820, 100.802375
1759319640.028545, -8.176947, 27.928662, -2.291401, 1.486154, 5.349317, 0.212316, -34.708374, -109.843719, 95.674774, 13.767820, 100.802375
1759319640.048733, -7.343615, 21.690569, -2.104354, 1.511995, 2.843775, 0.049529, -32.964310, -110.829910, 94.672470, 13.767820, 100.802375
1759319640.068669, 2.055871, 19.126080, 2.760066, 1.352431, 0.574069, -0.674708, -33.313278, -111.971100, 94.034973, 13.767810, 100.802475
1759319640.088738, 7.226000, 15.983241, 4.813842, 1.441617, -1.857542, 0.214553, -35.323532, -112.509201, 94.538788, 13.767810, 100.802475
1759319640.108202, 6.378452, 4.832696, 5.124489, 1.566295, -2.923818, 0.354711, -38.686188, -112.852158, 96.975586, 13.767810, 100.802475
1759319640.128736, -0.490662, -3.198504, -1.363199, 2.000441, -4.873340, -0.053055, -41.867188, -113.850296, 99.456436, 13.767810, 100.802475
1759319640.148740, 0.046837, -10.437522, 0.755221, 0.838270, -3.662780, 0.068457, -44.165253, -114.233292, 102.124390, 13.767810, 100.802475
1759319640.168733, -1.671751, -9.125200, 2.736722, -0.668019, -1.346277, -0.803594, -44.648544, -114.194427, 101.678543, 13.767810, 100.802475
1759319640.188738, -3.730316, -8.017134, 3.476530, -1.754181, 0.536370, -0.585423, -43.715378, -113.029633, 100.662247, 13.767810, 100.802475
1759319640.208486, -6.895899, -4.467580, 0.817021, -3.119372, 1.147854, 1.063166, -43.348175, -109.724564, 101.946259, 13.767810, 100.802475
1759319640.228744, -5.639692, -2.983475, -3.983353, -3.581558, -0.301769, 1.151039, -42.092636, -108.502625, 100.917511, 13.767810, 100.802475
1759319640.248594, -1.772757, 9.376891, -10.921600, 0.166767, 2.899921, -0.334895, -39.318985, -110.338669, 99.313095, 13.767810, 100.802475
1759319640.268328, 2.880225, 16.886454, -3.683030, 2.276780, 2.382093, -0.405650, -39.054733, -111.727127, 97.753647, 13.767810, 100.802475
1759319640.288807, 10.710760, 8.822483, -0.742651, 3.267609, -1.470944, 0.021748, -40.163132, -113.958633, 98.429932, 13.767810, 100.802475
1759319640.308531, -3.309834, 6.056582, 9.056666, 2.332977, 0.226858, 0.117317, -38.091537, -115.191620, 97.342865, 13.767810, 100.802475
1759319640.328743, -10.627712, 16.195278, -0.777816, 0.406423, 3.204684, 0.196729, -37.920319, -113.952911, 96.735504, 13.767810, 100.802475
1759319640.348738, -6.996306, 14.781801, 2.845658, -4.212964, -1.903970, -0.959871, -38.563858, -112.406082, 97.891479, 13.767810, 100.802475
1759319640.368734, -2.286911, 32.313792, 12.491149, -4.069276, -2.225464, -1.660175, -40.656860, -110.507309, 98.378372, 13.767810, 100.802475
1759319640.388725, 1.738041, 33.081881, -0.318130, -3.739715, -4.286997, 0.545606, -43.438736, -108.304565, 102.630737, 13.767810, 100.802475
1759319640.408716, -0.521038, 25.733328, -3.557933, -3.572042, -4.076097, 1.695629, -45.023697, -104.978470, 105.451004, 13.767810, 100.802475
1759319640.428586, -7.881413, 19.347843, -8.874857, -4.017107, -2.044381, 2.947675, -45.264694, -100.324844, 108.379944, 13.767810, 100.802475
1759319640.448526, -13.278542, 9.644892, -15.203181, -3.225570, 1.194818, 2.889044, -43.873367, -96.684296, 109.549728, 13.767810, 100.802475
1759319640.468033, -9.366267, 3.544765, -9.912743, -1.075623, 3.640862, 0.543198, -41.759979, -96.308105, 106.788773, 13.767810, 100.802475
1759319640.488733, -2.573168, 0.829741, -1.098190, -1.589787, 3.435097, -0.470481, -40.275757, -95.480194, 105.870163, 13.767810, 100.802475
1759319640.508711, -1.212663, -2.107795, -3.034950, -0.489722, 3.551642, -0.954992, -38.386063, -95.471954, 102.998352, 13.767810, 100.802475
1759319640.528450, 4.662857, 2.031630, -0.093524, -0.320970, 3.264216, -0.641323, -36.940399, -95.475922, 101.564911, 13.767810, 100.802475
1759319640.548580, 4.047548, 3.026570, 6.405836, -0.136793, -0.224940, 0.173928, -36.925812, -94.999313, 102.064636, 13.767810, 100.802475
1759319640.568719, 3.752761, -1.300351, -0.519991, 1.812934, -0.116415, 1.148015, -36.764511, -95.451767, 100.945282, 13.767810, 100.802475
1759319640.588727, 3.097947, -6.597223, 2.232443, 2.804989, -1.058676, 1.241093, -36.745041, -96.452103, 101.485596, 13.767810, 100.802475
1759319640.608712, -1.364246, -0.775123, -0.772429, 3.494565, -2.932282, 0.273242, -38.209976, -98.444962, 100.724899, 13.767810, 100.802475
1759319640.628292, -2.370110, 2.274043, 1.265934, 3.639597, -2.670139, -0.302885, -39.994141, -101.173264, 100.550415, 13.767810, 100.802475
1759319640.648424, -6.862530, 12.990489, -3.312378, 3.873206, -0.879213, -1.879203, -39.937637, -105.685410, 100.934280, 13.767810, 100.802475
1759319640.668786, -17.485753, 44.115410, -10.652551, 3.448303, 2.351980, 0.860916, -37.577759, -108.893829, 97.791092, 13.767810, 100.802475
1759319640.688442, -11.626842, 39.788340, -10.736797, 2.186688, 5.354374, 0.469340, -34.068085, -109.984238, 94.664322, 13.767810, 100.802475
1759319640.708715, -3.081487, 27.476606, -1.352425, 1.713402, 4.768680, -0.354872, -30.483994, -111.090424, 92.650864, 13.767810, 100.802475
1759319640.728142, -0.763900, 23.877822, -2.755427, 1.044669, 2.672785, -0.004105, -28.894669, -111.812973, 91.496643, 13.767810, 100.802475
1759319640.748277, 8.422801, 20.783765, 5.718700, 0.895115, -0.942675, 0.566511, -29.476868, -111.942596, 92.317261, 13.767810, 100.802475
1759319640.768763, 6.424242, 12.594548, 6.921338, 0.982573, -3.841120, 1.496180, -33.210968, -111.923355, 93.800018, 13.767810, 100.802475
1759319640.788735, 0.574758, -3.407548, 3.885041, 2.109532, -4.830063, 0.477588, -37.083466, -113.245026, 96.213074, 13.767810, 100.802475
1759319640.808721, -5.137957, -9.582343, -5.950040, 1.314368, -4.460484, 0.116542, -40.146698, -113.873978, 98.859482, 13.767810, 100.802475
1759319640.827999, -2.133383, -12.184392, 0.339977, -0.640808, -1.123688, -0.961098, -41.220901, -113.786789, 98.956879, 13.767810, 100.802475
1759319640.848137, -3.655796, -7.822755, 7.343765, -1.373879, 1.058139, -1.400137, -41.686646, -112.869568, 98.952713, 13.767810, 100.802475
1759319640.868731, -5.303755, -5.619939, 3.230077, -2.224910, 1.285651, -0.132758, -39.310181, -111.931061, 97.866089, 13.767810, 100.802475
1759319640.888750, -4.734683, -3.387795, 1.273715, -4.533672, -0.465886, 1.337069, -39.802063, -108.971237, 98.859894, 13.767810, 100.802475
1759319640.908719, -3.998167, 1.915062, -6.016180, -4.221642, 1.027783, 0.717913, -39.813080, -105.193329, 98.825226, 13.767810, 100.802475
1759319640.927871, 1.298256, 15.920693, -10.597934, 1.606609, 2.129525, -0.321461, -37.056824, -106.108139, 97.265533, 13.767810, 100.802475
1759319640.947978, 6.755539, 15.327380, -5.325303, 3.925525, -0.659901, -0.645764, -36.911118, -109.022415, 97.357498, 13.767810, 100.802475
1759319640.968750, 3.077297, 5.328595, 0.550517, 4.324597, -1.598841, -0.736447, -38.523392, -112.474243, 96.951996, 13.767810, 100.802475
1759319640.988757, -7.713669, 9.012374, 7.709928, 1.475092, 4.862459, -0.200297, -35.651352, -114.375977, 95.285248, 13.767810, 100.802475
1759319641.008722, -5.948544, 16.020202, 8.568399, -3.875017, -0.499534, -0.767056, -34.504532, -112.868073, 94.264908, 13.767810, 100.802475
1759319641.028741, -2.710685, 29.436859, 13.155689, -4.165532, -1.992927, -1.835921, -35.626648, -111.105408, 95.240036, 13.767810, 100.802475
1759319641.047833, 1.057788, 37.033811, 4.644751, -3.768267, -5.460793, -1.122211, -39.357956, -109.262192, 99.442474, 13.767797, 100.802483
1759319641.068741, -1.517176, 26.329784, -7.101052, -2.808631, -5.588324, 1.025481, -42.664688, -106.857361, 102.857468, 13.767797, 100.802483
1759319641.088742, -8.001572, 20.156634, -15.160534, -3.768825, -2.913888, 2.772301, -44.005127, -102.655853, 106.386383, 13.767797, 100.802483
1759319641.108715, -11.269806, 10.598233, -12.428002, -3.425283, 2.505080, 2.784918, -42.704193, -98.197174, 106.588242, 13.767797, 100.802483
1759319641.128741, -7.820660, 1.543213, -6.513875, -1.522114, 4.116788, 1.318209, -40.046280, -96.019974, 104.773056, 13.767797, 100.802483
1759319641.148740, -4.778527, 2.507328, -1.230769, -1.134489, 3.115196, -0.378636, -38.375717, -95.479950, 103.898560, 13.767797, 100.802483
1759319641.168749, 0.178667, 2.414552, 1.209670, -1.440682, 2.351694, -0.957727, -37.204849, -95.086487, 102.444443, 13.767797, 100.802483
1759319641.188760, 4.472069, 3.318812, 0.552013, -1.494323, 1.955589, -0.497023, -36.265381, -94.289978, 102.117004, 13.767797, 100.802483
1759319641.208716, 4.494365, 2.644246, 0.732326, -0.342296, 1.789079, 0.379518, -34.952332, -94.092102, 101.854279, 13.767797, 100.802483
1759319641.228744, 3.569755, -1.106869, 2.005593, 0.753438, 1.097502, 0.399732, -34.405533, -94.397354, 100.492462, 13.767797, 100.802483
1759319641.248200, 0.967257, -3.467103, 1.664269, 1.969777, -0.551921, 0.442435, -34.539413, -95.602768, 100.889755, 13.767797, 100.802483
1759319641.268745, -2.038363, -2.589928, 3.006369, 3.188509, -1.776151, -0.093442, -35.729309, -98.108246, 99.486679, 13.767797, 100.802483
1759319641.288744, -3.700987, 3.153313, -0.256329, 4.173746, -1.388668, -0.184788, -36.608124, -101.227386, 98.758301, 13.767797, 100.802483
1759319641.308715, -5.525668, 7.058406, -2.075623, 3.975383, -1.774080, -0.339428, -37.077545, -104.747208, 99.167099, 13.767797, 100.802483
1759319641.328741, -7.833080, 27.515363, -3.813514, 3.969483, -0.095366, -0.206982, -35.587173, -108.951065, 96.095261, 13.767797, 100.802483
1759319641.348732, -5.394735, 44.329691, -9.146898, 3.505550, 3.396687, 1.137088, -32.180542, -110.834122, 94.824219, 13.767797, 100.802483
1759319641.368729, -7.672967, 37.039497, -3.607014, 1.831615, 5.498314, 0.004928, -29.296432, -111.004562, 91.573120, 13.767797, 100.802483
1759319641.388609, -6.260538, 23.822307, -4.214393, 1.824413, 2.364423, 0.441882, -28.654236, -110.927521, 92.459885, 13.767797, 100.802483
1759319641.408718, 4.919785, 22.553380, 1.105822, 1.169156, -0.475605, 0.004016, -28.739685, -111.733719, 91.079681, 13.767797, 100.802483
1759319641.428745, 9.874885, 16.232687, 8.050054, 1.214616, -3.856573, 0.751506, -31.777802, -112.208054, 92.728653, 13.767797, 100.802483
1759319641.447884, 6.583157, 5.024831, 2.500145, 2.112098, -4.594670, 0.958572, -35.978561, -112.824341, 95.898727, 13.767797, 100.802483
1759319641.468767, -1.684919, -9.214534, -2.301875, 1.824225, -5.600507, 0.454740, -40.099792, -113.981415, 97.978195, 13.767797, 100.802483
1759319641.488774, -2.570924, -16.139313, -2.615965, 0.210912, -2.932263, -0.441086, -42.981674, -114.152161, 101.393906, 13.767797, 100.802483
1759319641.508725, -3.547908, -10.845434, 3.416077, -1.341799, 0.320763, -1.070542, -42.968704, -114.133514, 100.178787, 13.767797, 100.802483
1759319641.528756, -3.853168, -6.485593, 7.603386, -2.077002, 0.862566, -0.953637, -42.230164, -113.536850, 99.945999, 13.767797, 100.802483
1759319641.548754, -5.089025, -2.620154, 1.698536, -3.179517, 0.404693, 0.088071, -41.584702, -111.488998, 100.877426, 13.767797, 100.802483
1759319641.568746, -5.271882, 0.291644, -0.111630, -3.749091, 0.563149, 0.491398, -41.252380, -108.989304, 99.683228, 13.767797, 100.802483
1759319641.588774, -2.314445, 9.398888, -8.014291, -1.685036, 2.449366, -0.527684, -38.944595, -108.882416, 98.848373, 13.767797, 100.802483
1759319641.608095, -0.461183, 21.208586, -9.986963, 1.956274, 3.136209, -0.492188, -37.053879, -110.323746, 96.448273, 13.767797, 100.802483
1759319641.628743, 7.576900, 7.839664, -4.041861, 3.761655, -0.654449, -0.120178, -37.890442, -112.729431, 96.535400, 13.767797, 100.802483
1759319641.648746, -1.757793, 5.213673, 7.273136, 4.070611, -0.378952, -0.530113, -37.612900, -115.864334, 96.876358, 13.767797, 100.802483
1759319641.667833, -11.365126, 8.388385, 6.927024, 0.053609, 4.712688, -0.192329, -33.745850, -116.773605, 93.462372, 13.767797, 100.802483
1759319641.688770, -6.038326, 12.813318, 5.613954, -4.006606, -0.389127, -1.086612, -34.100830, -113.917709, 94.477127, 13.767797, 100.802483
1759319641.708726, -2.671331, 28.990789, 14.679898, -4.438524, -1.239960, -2.455919, -34.786316, -113.051392, 95.786972, 13.767797, 100.802483
1759319641.728757, -0.016011, 42.042181, 5.017349, -4.494537, -4.835424, -1.360433, -38.110184, -110.622467, 98.838104, 13.767797, 100.802483
1759319641.748755, -2.828151, 28.681788, -16.885257, -4.405975, -4.339287, 0.798956, -40.368805, -106.492081, 102.497818, 13.767797, 100.802483
1759319641.768759, -5.368399, 19.132065, -11.300931, -4.078308, -1.205698, 2.563030, -40.837830, -102.312225, 103.920654, 13.767797, 100.802483
1759319641.788754, -6.941090, 11.467029, -7.530662, -3.378061, 0.736346, 2.796454, -39.909424, -98.081802, 103.875153, 13.767797, 100.802483
1759319641.808725, -7.974338, 2.231845, -10.207230, -1.527447, 2.248019, 1.786979, -37.841568, -96.666855, 103.226227, 13.767797, 100.802483
1759319641.828751, -4.818032, 2.461987, -0.488118, -0.808974, 4.035466, -0.144605, -35.972046, -95.908035, 101.001862, 13.767797, 100.802483
1759319641.848728, -2.693477, 0.004938, 1.302745, -1.688310, 1.722727, -0.583096, -35.471100, -95.136978, 102.554092, 13.767797, 100.802483
1759319641.868097, 0.825700, -1.974917, -8.147019, -0.077209, 0.260436, -1.086509, -36.018890, -94.734009, 101.657837, 13.767797, 100.802483
1759319641.888749, 6.446538, 5.282207, -0.981772, 0.108611, 1.574513, -0.599505, -35.233841, -95.528534, 101.706131, 13.767797, 100.802483
1759319641.907761, 2.114828, 4.321085, 7.640945, -0.151635, 0.731191, -0.916840, -35.405655, -95.669220, 100.086777, 13.767797, 100.802483
1759319641.928758, 3.797802, 1.923891, -1.011550, 0.473272, -0.707073, -0.286188, -35.844833, -96.268463, 100.003433, 13.767797, 100.802483
1759319641.948745, 5.052963, -4.104859, 1.775301, 2.788179, 1.020384, 0.796911, -35.160507, -97.698410, 99.685318, 13.767797, 100.802483
1759319641.968757, -0.496946, 0.805350, -1.921347, 3.289027, -1.421024, 0.380161, -35.790436, -99.694168, 98.489395, 13.767797, 100.802483
1759319641.988757, -2.426972, 4.517559, 1.882890, 4.133235, -2.088001, 0.003913, -36.999069, -102.813797, 99.169647, 13.767797, 100.802483
1759319642.008721, -8.763526, 17.592893, 0.699855, 3.551091, -1.266365, -0.366859, -36.800385, -106.846115, 97.423096, 13.767797, 100.802483
1759319642.028739, -13.876045, 45.837290, -10.742035, 4.206935, 2.919939, 2.110682, -33.165146, -110.016098, 94.850937, 13.767797, 100.802483
1759319642.048671, -9.378986, 41.589677, -9.030480, 1.854924, 5.291663, -0.395891, -29.998306, -110.470901, 93.352722, 13.767778, 100.802524
1759319642.068758, -4.093037, 24.076690, -1.227627, 2.163007, 3.124401, 0.184338, -27.974472, -111.264496, 91.406555, 13.767778, 100.802524
1759319642.088760, 3.364452, 20.088250, 2.736423, 1.796808, 0.507720, -0.233195, -28.026596, -112.771530, 90.952652, 13.767778, 100.802524
1759319642.108724, 9.083900, 17.806426, 5.635203, 1.861857, -2.311278, 0.793182, -30.347290, -113.930893, 92.132050, 13.767778, 100.802524
1759319642.128761, 6.761525, 8.216601, 4.770896, 2.174982, -3.158182, 0.914424, -33.732895, -114.730148, 93.797852, 13.767778, 100.802524
1759319642.148548, -0.863559, -3.038541, 5.868039, 2.477144, -5.142442, 0.719033, -37.664368, -116.251190, 97.203171, 13.767778, 100.802524
1759319642.168758, -3.754856, -11.198130, 0.706439, 1.641150, -4.552344, 0.159032, -40.816376, -117.037628, 99.153076, 13.767778, 100.802524
1759319642.188765, -3.652654, -13.033585, -0.496647, -0.245739, -1.556442, -0.655560, -41.481018, -117.225143, 99.811523, 13.767778, 100.802524
1759319642.208735, -4.471022, -9.037064, 5.459378, -1.768898, 0.853204, -0.843710, -40.471268, -116.555023, 99.673767, 13.767778, 100.802524
1759319642.228768, -5.251083, -5.644929, 2.562843, -2.921723, 1.439198, 0.294083, -39.576385, -114.099609, 98.208344, 13.767778, 100.802524
1759319642.248423, -6.073341, -2.435801, 2.213140, -4.610330, -0.911284, 1.234188, -40.168762, -110.603104, 99.835342, 13.767778, 100.802524
1759319642.268770, -3.538331, 5.613056, -15.430929, -2.085399, -0.167256, -0.141328, -38.713058, -111.603729, 98.508148, 13.767778, 100.802524
1759319642.288763, 0.919673, 17.342549, -14.779556, 2.652642, 2.125300, -1.003686, -38.286819, -114.037079, 97.414261, 13.767778, 100.802524
1759319642.308738, 10.334721, 10.729315, -3.625570, 3.674447, -1.026910, -0.623458, -39.445679, -116.537201, 99.216339, 13.767778, 100.802524
1759319642.328774, -1.726219, 6.533178, 8.344242, 2.509740, 1.100674, -0.055410, -36.075027, -118.147461, 95.261414, 13.767778, 100.802524
1759319642.348279, -16.065542, 18.703803, 11.368118, -0.696591, 6.343840, 0.367389, -33.498703, -117.497772, 94.581879, 13.767778, 100.802524
1759319642.368763, -8.472331, 23.538444, 10.070760, -6.372289, -0.602454, -1.589780, -35.053040, -112.651230, 94.244827, 13.767778, 100.802524
1759319642.388746, 3.034501, 36.571580, 10.431537, -1.599544, -4.970161, -1.481564, -37.224289, -111.505447, 97.174713, 13.767778, 100.802524
1759319642.408679, 1.723676, 27.379641, -1.335965, -1.102986, -5.368869, -0.964775, -40.918762, -111.601196, 100.462143, 13.767778, 100.802524
1759319642.428772, -3.874716, 24.121282, -10.915614, -2.589466, -5.033507, 1.701245, -43.818359, -109.003265, 103.545456, 13.767778, 100.802524
1759319642.448152, -7.584980, 13.455862, -11.174487, -3.640378, 0.208494, 3.300470, -43.651978, -103.896240, 106.222931, 13.767778, 100.802524
1759319642.468779, -13.297097, 4.429273, -9.852289, -1.925691, 2.332500, 1.625959, -42.371979, -101.580643, 103.918839, 13.767778, 100.802524
1759319642.488772, -5.225495, 0.263661, -7.502081, -0.482823, 2.612829, 0.063502, -40.313232, -101.029694, 103.901718, 13.767778, 100.802524
1759319642.508531, -1.874211, -0.191985, -1.831864, -1.300500, 3.814096, -0.745030, -38.990265, -100.255295, 101.063599, 13.767778, 100.802524
1759319642.528695, 2.003498, 0.741005, -0.298078, -1.497589, 1.942305, -0.308370, -37.567169, -99.302856, 100.205414, 13.767778, 100.802524
1759319642.548013, 5.178209, 3.163040, 1.011999, -1.355112, 1.631652, 0.037287, -36.312622, -98.340805, 100.619736, 13.767778, 100.802524
1759319642.568773, 3.765780, 3.208978, 0.652869, -0.743190, 1.072593, 0.218045, -35.795303, -97.753418, 99.769150, 13.767778, 100.802524
1759319642.588781, 5.024681, 0.511461, -1.111807, 0.325618, 0.257551, 0.465797, -35.574280, -97.677917, 99.588455, 13.767778, 100.802524
1759319642.608398, 1.254861, -2.975993, 2.948310, 2.213058, -0.545341, 0.731516, -35.942184, -98.991409, 99.294586, 13.767778, 100.802524
1759319642.628560, -2.550124, 1.387141, 2.942025, 3.350656, -1.616012, 0.025629, -36.871368, -102.120041, 98.387985, 13.767778, 100.802524
1759319642.648773, -5.034856, 6.267122, 1.405546, 4.288557, -2.864493, -0.209269, -38.393341, -106.018539, 99.988312, 13.767778, 100.802524
1759319642.668796, -8.409184, 20.493468, -1.469741, 4.060028, -2.280473, -0.479464, -37.806839, -110.453278, 98.727676, 13.767778, 100.802524
1759319642.688782, -10.201544, 44.176762, -13.229161, 3.758706, 1.412430, 1.037695, -35.563507, -112.538742, 96.499847, 13.767778, 100.802524
1759319642.708237, -8.500613, 35.563172, -10.700136, 1.589228, 5.832796, -0.269434, -31.986664, -112.660446, 94.063293, 13.767778, 100.802524
1759319642.728436, -4.386776, 24.769363, -1.703026, 1.340029, 4.703349, 0.444917, -29.059448, -113.163940, 91.689987, 13.767778, 100.802524
1759319642.748782, 1.640926, 20.041563, 1.342549, 0.918656, 1.895070, -0.285870, -29.067490, -113.632523, 92.684036, 13.767778, 100.802524
1759319642.768781, 6.532130, 16.507422, 5.398326, 1.422818, -1.529487, -0.148509, -31.433899, -114.692383, 92.899200, 13.767778, 100.802524
1759319642.788784, 7.177667, 11.921029, 10.454730, 1.856188, -4.182160, 0.539185, -35.529251, -116.016159, 94.822861, 13.767778, 100.802524
1759319642.808099, -0.441730, 1.107767, 5.854122, 2.740340, -5.038816, 0.358925, -39.804474, -117.139267, 98.692764, 13.767778, 100.802524
1759319642.828281, -4.635324, -9.985766, -0.602291, 1.544871, -4.755732, 0.388631, -42.757812, -117.402832, 100.910812, 13.767778, 100.802524
1759319642.848236, -3.764433, -13.584102, -0.086491, -0.271138, -2.604560, -0.587931, -43.683334, -116.707260, 101.731644, 13.767778, 100.802524
1759319642.868782, -2.875885, -11.375451, 3.596689, -2.019500, -0.047158, -0.478425, -43.844482, -116.015717, 101.049973, 13.767778, 100.802524
1759319642.888798, -3.472790, -6.432172, 1.028010, -2.843427, 1.346913, 0.584005, -42.580734, -114.122513, 101.537308, 13.767778, 100.802524
1759319642.908052, -4.477007, -2.364274, 2.252495, -4.190541, 0.523067, 1.224208, -42.152191, -110.811356, 100.708389, 13.767778, 100.802524
1759319642.928108, -3.523517, 4.968717, -3.476979, -2.835069, 1.256127, 0.230648, -40.431564, -109.555161, 99.417725, 13.767778, 100.802524
1759319642.948786, 0.061950, 22.437710, -13.295002, 2.098284, 2.330963, 0.182527, -38.278625, -111.649185, 98.350708, 13.767778, 100.802524
1759319642.968783, 6.834548, 11.573122, -2.689137, 3.709380, -0.956504, 0.250133, -40.186676, -113.248428, 98.798920, 13.767778, 100.802524
1759319642.988793, 6.384588, -2.028787, -1.970428, 3.942928, -2.834527, -0.055336, -41.918686, -115.101562, 101.334595, 13.767778, 100.802524
1759319643.007907, -6.496367, 1.873313, 4.591031, 1.036520, 2.944049, 0.152314, -38.906174, -116.104889, 97.586807, 13.767778, 100.802524
1759319643.027967, -12.246192, 16.708086, 12.077251, -1.174148, 5.792010, 0.434122, -35.395401, -114.476059, 95.318588, 13.767778, 100.802524
1759319643.048797, -10.692056, 29.204771, 10.130466, -6.042266, -1.088639, -1.127467, -36.256744, -111.329712, 97.365921, 13.767761, 100.802554
1759319643.068796, 4.196587, 42.215761, -5.785139, -3.134676, -1.806163, -1.549628, -37.951096, -110.300735, 98.617584, 13.767761, 100.802554
1759319643.088800, 0.890643, 28.640488, -0.791284, -3.659635, -6.554858, -0.427143, -42.453308, -107.667831, 103.372665, 13.767761, 100.802554
1759319643.107778, -2.689886, 22.139781, -4.597915, -2.669300, -4.623839, 1.742344, -44.107040, -104.532837, 106.974701, 13.767761, 100.802554
1759319643.127963, -6.729652, 16.170288, -6.940791, -3.959627, -2.253280, 3.245455, -44.045334, -99.764389, 108.719513, 13.767761, 100.802554
1759319643.148796, -15.169512, 5.379771, -19.989639, -3.147092, 3.516794, 2.963734, -41.476440, -96.954865, 108.341187, 13.767761, 100.802554
1759319643.168840, -8.401104, 2.542044, -5.605125, -1.145094, 3.626580, -0.204486, -39.932159, -96.516861, 105.719711, 13.767761, 100.802554
1759319643.188797, -0.584036, 1.063175, -1.687763, -0.788329, 3.260547, -0.773090, -38.500824, -96.422470, 103.799316, 13.767761, 100.802554
1759319643.208007, 2.880075, 1.543811, -1.433678, -1.170251, 4.003371, -0.899288, -36.400955, -96.295914, 102.789841, 13.767761, 100.802554
1759319643.227805, 4.588637, 6.060922, 3.982156, -0.677618, 2.983540, -0.278659, -35.008484, -96.013672, 101.295731, 13.767761, 100.802554
1759319643.248800, 4.235343, 3.343503, 3.807230, 0.112816, 1.149904, 0.154664, -34.525833, -95.795731, 101.549942, 13.767761, 100.802554
1759319643.268803, 3.403956, -2.430264, 0.701950, 1.479490, 0.224108, 1.011678, -35.014236, -96.500137, 100.052567, 13.767761, 100.802554
1759319643.288803, 1.136947, -5.973832, 4.256591, 2.813221, -2.047092, 0.833116, -36.503189, -98.431290, 100.554153, 13.767761, 100.802554
1759319643.308776, -1.138144, -2.133832, 0.516848, 3.458704, -2.833545, 0.010199, -38.123505, -101.307404, 101.454346, 13.767761, 100.802554
1759319643.328792, -3.918710, 1.672799, -0.121206, 3.910303, -2.621750, -0.712498, -39.642212, -104.783279, 100.412521, 13.767761, 100.802554
1759319643.348819, -6.738630, 10.152313, -3.395277, 4.081173, -1.319761, -1.620811, -39.308548, -106.823700, 100.812943, 13.767761, 100.802554
1759319643.368815, -13.333908, 35.677645, -10.421810, 3.859339, 1.827065, 0.491580, -36.920700, -110.323563, 97.925949, 13.767761, 100.802554
1759319643.388785, -4.758775, 39.703046, -12.543971, 2.962343, 3.628381, 0.199775, -34.305389, -112.111862, 96.383530, 13.767761, 100.802554
1759319643.408784, -0.833631, 30.456190, -3.305345, 2.240459, 4.504562, -0.402598, -31.683838, -113.372620, 93.179596, 13.767761, 100.802554
1759319643.428788, -0.232387, 23.038056, -4.329764, 1.308572, 2.583972, 0.010587, -30.173325, -113.973724, 92.365128, 13.767761, 100.802554
1759319643.448823, 6.218041, 18.686744, 2.543091, 1.258703, -1.008118, 0.132201, -31.698441, -114.623276, 93.498230, 13.767761, 100.802554
1759319643.468826, 8.738986, 20.185065, 7.934983, 1.229940, -5.025512, 1.590491, -36.187317, -114.448059, 95.729553, 13.767761, 100.802554
1759319643.488803, -0.554856, 2.099864, 5.084536, 1.849563, -6.076853, 0.731489, -40.899094, -115.040359, 100.302719, 13.767761, 100.802554
1759319643.508787, -10.351929, -13.581857, -11.189301, 1.326383, -4.124806, 0.315482, -43.563324, -114.926865, 101.232834, 13.767761, 100.802554
1759319643.528652, -3.255965, -14.027777, 1.700482, -0.633535, -0.480396, -1.367545, -43.378220, -115.640121, 100.871307, 13.767761, 100.802554
1759319643.548795, 0.356137, -5.748927, 7.083395, -0.994283, 1.325398, -1.143641, -42.595947, -116.081299, 101.277832, 13.767761, 100.802554
1759319643.568814, -2.798672, -4.414010, 5.913080, -2.247584, 1.446665, -0.030750, -41.316467, -115.090866, 99.350494, 13.767761, 100.802554
1759319643.588150, -5.144092, -3.911677, 2.663400, -3.172012, 1.164431, 0.450762, -40.512695, -111.881729, 98.898026, 13.767761, 100.802554
1759319643.608313, -4.151695, -1.127669, 0.197522, -4.428917, 0.056729, 0.550887, -39.703186, -109.604599, 99.149063, 13.767761, 100.802554
1759319643.628807, 3.596241, 16.648680, -14.962863, -0.204665, 3.029280, -0.570466, -36.798172, -110.459671, 97.276657, 13.767761, 100.802554
1759319643.648158, 7.988553, 19.725079, -10.519823, 1.767300, 2.716576, -0.535067, -36.169373, -112.273621, 97.238129, 13.767761, 100.802554
1759319643.668804, -2.561796, 6.618322, 7.067234, 3.884629, 0.284867, -0.672996, -35.939865, -115.602646, 95.990372, 13.767761, 100.802554
1759319643.688526, -9.919776, 7.708581, 8.867824, 0.204522, 3.859264, 0.425792, -32.466843, -116.728867, 94.213013, 13.767761, 100.802554
1759319643.708796, -6.810456, 16.937780, 7.146393, -4.877079, -1.846556, -1.412363, -34.225998, -113.376984, 95.560059, 13.767761, 100.802554
1759319643.728853, -0.888847, 37.926100, 15.670349, -4.584324, -3.589411, -2.626721, -36.580811, -112.323044, 97.060684, 13.767761, 100.802554
1759319643.748803, 3.200748, 38.351819, 3.866486, -4.225137, -6.759717, 0.098638, -41.002289, -109.231461, 102.757446, 13.767761, 100.802554
1759319643.768815, -7.370699, 23.427563, -19.486856, -3.616271, -5.349989, 2.141377, -43.356583, -105.574249, 106.073837, 13.767761, 100.802554
1759319643.788807, -9.550321, 15.365687, -17.576583, -4.526896, 0.851008, 3.175624, -42.927139, -100.001801, 106.784241, 13.767761, 100.802554
1759319643.808323, -10.327688, 7.919720, -7.025635, -2.497366, 4.149783, 2.240399, -40.648361, -96.817627, 106.238892, 13.767761, 100.802554
1759319643.828817, -5.707926, 1.272518, -3.360561, -0.711780, 3.535583, 0.662723, -38.451660, -95.957703, 103.713226, 13.767761, 100.802554
1759319643.848832, -2.443881, 0.976535, 0.533608, -1.252827, 3.574805, -0.363419, -37.492554, -95.145432, 103.993729, 13.767761, 100.802554
1759319643.868830, 1.115099, -0.409558, -0.111630, -0.730666, 1.632598, -0.399595, -36.245667, -94.612167, 102.580872, 13.767761, 100.802554
1759319643.888838, 5.253627, 0.779762, -2.317438, -0.144719, 0.157285, -0.117853, -36.016724, -94.926071, 103.241318, 13.767761, 100.802554
1759319643.908804, 4.122217, 0.543633, -2.108843, 0.546128, 0.419949, -0.104981, -35.912659, -95.362366, 101.723923, 13.767761, 100.802554
1759319643.928837, 1.268179, 1.110910, 4.624849, 0.627990, -0.519985, -0.188158, -36.346985, -95.510223, 101.384003, 13.767761, 100.802554
1759319643.948838, 1.933168, -1.317110, 2.926313, 1.339408, -1.485691, 0.132120, -37.225861, -95.784180, 103.108841, 13.767761, 100.802554
1759319643.968917, 1.425298, -1.163582, 0.447566, 2.847990, -1.279318, 0.333045, -37.949203, -97.414749, 101.996323, 13.767761, 100.802554
1759319643.988841, -1.835006, 3.287389, 0.427964, 4.126881, -1.192643, 0.025591, -38.436508, -100.160034, 102.186508, 13.767761, 100.802554
1759319644.008812, -5.894973, 11.106702, 0.974739, 3.740220, -1.783545, -0.035257, -38.988434, -102.954987, 100.869720, 13.767761, 100.802554
1759319644.028252, -10.835558, 28.580333, -3.470844, 3.298970, 0.052581, 1.264148, -38.206299, -105.569427, 99.953644, 13.767761, 100.802554
1759319644.048845, -8.665963, 40.058435, -6.870760, 4.205619, 4.131980, 1.251660, -34.616669, -108.203934, 97.215759, 13.767747, 100.802579
1759319644.068857, -8.613290, 36.090645, -6.459257, 1.897374, 4.909524, 0.089199, -31.764099, -109.101883, 94.477951, 13.767747, 100.802579
1759319644.088837, -3.541772, 24.439113, -5.711967, 2.181241, 2.812071, 0.211270, -29.486160, -110.188263, 93.030579, 13.767747, 100.802579
1759319644.108820, 5.389498, 18.104953, 1.256208, 1.736997, 1.201390, -0.625496, -28.923187, -111.546722, 92.903732, 13.767747, 100.802579
1759319644.128440, 9.907655, 18.598009, 5.227141, 1.408417, -1.629363, 0.442418, -30.578842, -112.214798, 92.936356, 13.767747, 100.802579
1759319644.148822, 8.683769, 9.551069, 9.897480, 1.549851, -3.742926, 1.260853, -34.213333, -112.244797, 95.619171, 13.767747, 100.802579
1759319644.168867, -5.101146, -3.529951, -0.936582, 2.436998, -5.528853, 0.392335, -38.119019, -113.837051, 97.582153, 13.767747, 100.802579
1759319644.188846, -3.427449, -17.012299, -3.656694, 0.707217, -3.084702, -0.153651, -40.589523, -113.987595, 99.507202, 13.767747, 100.802579
1759319644.208274, -2.468123, -10.814459, 4.605397, -1.158167, -0.035898, -1.131426, -40.801407, -113.835632, 99.700348, 13.767747, 100.802579
1759319644.227876, -4.223671, -6.383540, 5.012710, -1.603828, 0.900495, -1.023157, -39.931900, -113.354401, 98.477829, 13.767747, 100.802579
1759319644.248853, -6.535722, -4.396203, 2.924817, -2.690096, 1.075797, 0.392520, -39.156006, -110.909332, 99.097458, 13.767747, 100.802579
1759319644.268870, -6.221483, -1.731157, 2.360982, -4.345939, -0.939454, 1.439427, -39.503525, -107.216705, 98.882217, 13.767747, 100.802579
1759319644.288857, -2.825008, 7.977779, -12.279411, -2.845348, 1.538457, 0.029512, -37.356003, -106.515060, 98.207581, 13.767747, 100.802579
1759319644.308826, 3.339013, 20.956447, -9.701006, 2.452353, 2.616956, -0.468819, -36.308746, -108.256409, 97.455917, 13.767747, 100.802579
1759319644.328842, 12.502521, 7.830685, 1.545008, 3.349070, -1.598729, -0.221395, -38.293610, -110.062241, 97.386948, 13.767747, 100.802579
1759319644.348477, 5.441571, -1.267431, 3.465308, 3.208138, -2.148213, -0.290840, -39.310349, -111.105865, 99.284363, 13.767747, 100.802579
1759319644.368880, -7.488464, 5.568913, 6.373664, 1.839258, 4.342433, 0.066469, -37.528152, -112.629944, 96.224594, 13.767747, 100.802579
1759319644.388905, -12.582428, 19.380165, 12.507758, -2.816032, 1.639701, 0.657424, -33.683136, -112.196228, 95.127823, 13.767747, 100.802579
1759319644.408359, -7.945607, 27.584196, 7.541885, -6.565353, -0.643114, -1.223438, -35.419327, -107.575638, 95.958817, 13.767747, 100.802579
1759319644.428862, 5.347300, 40.984842, -2.355146, -3.121587, -1.613471, -1.574542, -36.039413, -105.968994, 97.419235, 13.767747, 100.802579
1759319644.448795, -0.973991, 31.340848, -3.604620, -3.851337, -5.782221, 0.129060, -39.927673, -102.971115, 102.123764, 13.767747, 100.802579
1759319644.468868, -4.054730, 21.814170, -4.432565, -3.549370, -3.803623, 2.205059, -42.091217, -99.278381, 104.903564, 13.767747, 100.802579
1759319644.488856, -11.427973, 13.125762, -13.688399, -4.227062, -0.008005, 3.578496, -41.315125, -94.364304, 108.462143, 13.767747, 100.802579
1759319644.508839, -11.633725, 0.996586, -16.156671, -2.394637, 3.623121, 1.449581, -38.938858, -91.584839, 106.501740, 13.767747, 100.802579
1759319644.528641, -6.037877, 4.166659, -1.206827, -1.089859, 3.929737, -0.241405, -36.532288, -90.929413, 104.835388, 13.767747, 100.802579
1759319644.548868, -1.561169, 1.096095, -0.710629, -1.691232, 4.352032, -1.109629, -34.930756, -90.406387, 104.242233, 13.767747, 100.802579
1759319644.568874, 6.312462, 6.419004, 3.965546, -0.892450, 3.137630, -0.713751, -32.880051, -90.450836, 101.887695, 13.767747, 100.802579
1759319644.588868, 5.597643, 3.707870, 1.469591, -0.210752, 0.457275, 0.147587, -32.452209, -90.371902, 101.831558, 13.767747, 100.802579
1759319644.608853, 4.272154, -0.604835, 0.959626, 0.914820, 0.535567, -0.068703, -32.108475, -90.679077, 101.662704, 13.767747, 100.802579
1759319644.628488, 3.018190, -2.731934, 0.820762, 1.396500, -1.077364, -0.062971, -32.981155, -91.769592, 101.144775, 13.767747, 100.802579
1759319644.648926, 0.957980, -4.010737, 3.534739, 2.394798, -2.191108, 0.065318, -34.074173, -93.613953, 101.533829, 13.767747, 100.802579
1759319644.668890, -1.301548, -1.540220, -0.159364, 3.572964, -2.458862, -0.092456, -35.823822, -96.370270, 99.868332, 13.767747, 100.802579
1759319644.688873, -2.198925, 2.006940, 1.937957, 4.174932, -1.887533, -0.396377, -37.149475, -99.580368, 99.307480, 13.767747, 100.802579
1759319644.708852, -7.725191, 9.539098, -1.857751, 4.049379, -0.918149, -0.907536, -36.868027, -103.902481, 99.002029, 13.767747, 100.802579
1759319644.728355, -14.082993, 32.685491, -7.245153, 4.345058, 1.418246, 0.724106, -33.999207, -107.950623, 95.213989, 13.767747, 100.802579
1759319644.748442, -5.390096, 44.103589, -12.444611, 3.384086, 3.990668, 0.686097, -30.654160, -110.275955, 93.609177, 13.767747, 100.802579
1759319644.768619, -5.178060, 38.107460, -4.868459, 2.292604, 4.247971, -0.342569, -28.495499, -111.356323, 91.124802, 13.767747, 100.802579
1759319644.788846, 0.002693, 23.720553, -3.016395, 1.772372, 1.963344, 0.225760, -27.869324, -112.164352, 90.786362, 13.767747, 100.802579
1759319644.808855, 9.511265, 19.731514, 3.406799, 1.222723, -1.526760, 0.618701, -30.382339, -112.668457, 92.337585, 13.767747, 100.802579
1759319644.828887, 9.763255, 14.298322, 6.403143, 1.344519, -4.642618, 1.446076, -32.602844, -112.466309, 92.530289, 13.767747, 100.802579
1759319644.848885, 2.602946, 0.367959, 7.194127, 1.975173, -6.006753, 0.904914, -37.575836, -112.910477, 96.303101, 13.767747, 100.802579
1759319644.868910, -7.843255, -12.122442, -8.889222, 1.442722, -4.249500, 0.579288, -41.234146, -113.853500, 98.519638, 13.767747, 100.802579
1759319644.888699, -3.641281, -16.550817, 0.996736, -0.694030, -1.131211, -0.719034, -42.723068, -113.581833, 100.601196, 13.767747, 100.802579
1759319644.908819, -2.684648, -9.139566, 8.917204, -1.295993, 0.659266, -1.268114, -42.364655, -113.423172, 99.135925, 13.767747, 100.802579
1759319644.928066, -4.821174, -4.118176, 2.753781, -2.145406, 1.216762, -0.416727, -40.910965, -112.677689, 98.254105, 13.767747, 100.802579
1759319644.948916, -5.832874, -1.986290, 1.548899, -3.850743, 1.035535, 0.808015, -40.212448, -109.781128, 98.788605, 13.767747, 100.802579
1759319644.968240, -4.677971, 2.532467, -1.770213, -3.905585, 0.760359, 0.296335, -39.143524, -107.005524, 98.044830, 13.767747, 100.802579
1759319644.988569, 0.405069, 15.179987, -10.459070, -0.366075, 2.670702, -0.228959, -36.468033, -107.559158, 96.321487, 13.767747, 100.802579
1759319645.008676, 6.323685, 15.006706, -8.360702, 2.726142, 1.333865, -0.254820, -36.297943, -109.339432, 95.114929, 13.767747, 100.802579
1759319645.028893, 8.959402, 2.932747, -2.749441, 3.493952, -1.048838, -0.460414, -37.069534, -111.790176, 95.777161, 13.767747, 100.802579
1759319645.048171, -2.138920, 1.208623, 11.729792, 2.353588, 0.568997, -0.717578, -36.431198, -114.320358, 95.680618, 13.767732, 100.802603
1759319645.068937, -10.799047, 9.902568, 8.302493, 0.353906, 4.292912, -0.039515, -31.885223, -115.534317, 93.250427, 13.767732, 100.802603
1759319645.088415, -8.362647, 16.221913, 4.749946, -4.686708, -1.605246, -0.498686, -33.380081, -111.839127, 93.680267, 13.767732, 100.802603
1759319645.108537, -2.909105, 32.543036, 11.608586, -4.917809, -1.778716, -1.777842, -34.421890, -109.861160, 95.306259, 13.767732, 100.802603
1759319645.128900, 1.898752, 37.045183, -8.198495, -4.504150, -3.436356, -1.176934, -37.255142, -107.060013, 98.120895, 13.767732, 100.802603
1759319645.148877, 0.133177, 30.018201, -2.302175, -4.425964, -4.219316, 0.723405, -39.874084, -103.527313, 102.571365, 13.767732, 100.802603
1759319645.168348, -2.869900, 17.839197, -6.240187, -3.816671, -2.733383, 2.382250, -40.820328, -99.422714, 104.461731, 13.767732, 100.802603
1759319645.188272, -12.934525, 12.003929, -18.447623, -3.918465, 0.061756, 2.932064, -39.690277, -95.351166, 105.500854, 13.767732, 100.802603
1759319645.208393, -7.416788, 3.639187, -9.912444, -1.514520, 3.950989, 0.945386, -37.231537, -94.165756, 104.441910, 13.767732, 100.802603
1759319645.228914, -2.495806, 4.908712, -2.926612, -1.730528, 3.223022, 0.018822, -35.493088, -92.720428, 102.692230, 13.767732, 100.802603
1759319645.248136, -0.001347, 1.570447, 1.345092, -1.038592, 3.720240, -0.310624, -34.143234, -92.410355, 102.691223, 13.767732, 100.802603
1759319645.268134, 3.455731, 2.629282, 4.149301, -0.331061, -0.269733, -0.402367, -34.857468, -92.433975, 102.115311, 13.767732, 100.802603
1759319645.288117, 2.556858, 2.550124, -0.344017, 0.237172, -0.910563, -0.206124, -35.433304, -92.953125, 102.396286, 13.767732, 100.802603
1759319645.308249, 2.521843, -0.070330, 0.869394, 1.119819, -0.478140, -0.166312, -35.703003, -92.978760, 102.104004, 13.767732, 100.802603
1759319645.328909, 1.756745, -2.790592, 1.284938, 2.284274, -0.449585, 0.048385, -36.668457, -95.183945, 100.935638, 13.767732, 100.802603
1759319645.348967, 0.155174, -3.175310, 2.481141, 2.957056, -1.059855, -0.022062, -36.633026, -96.428207, 101.783783, 13.767732, 100.802603
1759319645.368936, -3.085228, 1.883189, 0.858172, 4.194247, -0.432931, -0.536009, -37.020935, -99.584717, 99.474091, 13.767732, 100.802603
1759319645.387987, -6.577022, 10.274567, 1.257255, 4.291227, -0.339360, 0.610161, -36.452972, -102.862350, 99.430740, 13.767732, 100.802603
1759319645.408104, -7.645733, 34.900727, -4.462642, 4.622310, 0.274930, 1.494201, -34.349625, -107.126587, 96.036758, 13.767732, 100.802603
1759319645.428924, -7.841609, 45.056032, -13.643807, 3.452110, 1.645400, -0.431909, -32.868958, -109.811646, 94.715988, 13.767732, 100.802603
1759319645.448921, -7.932289, 33.381755, -6.108506, 2.446657, 5.267447, -0.143015, -29.895508, -110.951447, 93.180786, 13.767732, 100.802603
1759319645.468938, -1.956512, 23.998879, -2.158223, 2.427541, 2.715474, -0.083124, -28.139069, -112.571533, 91.677734, 13.767732, 100.802603
1759319645.487930, 9.954193, 18.278832, 6.158336, 2.026212, -1.513852, 0.016248, -29.663574, -114.083542, 93.223297, 13.767732, 100.802603
1759319645.507962, 10.977714, 17.700931, 4.049642, 1.624948, -4.977129, 1.648850, -34.212112, -114.358704, 94.601868, 13.767732, 100.802603
1759319645.528927, 0.999579, -0.731429, 4.740370, 1.941677, -6.516482, 0.826738, -39.168182, -115.099472, 98.152206, 13.767732, 100.802603
1759319645.548212, -7.796418, -16.769288, -10.377667, 1.221461, -3.237086, 0.123940, -41.540405, -115.354584, 101.337372, 13.767732, 100.802603
1759319645.568925, -2.884714, -11.275792, 3.128324, -0.394194, 0.356247, -0.940997, -41.235947, -115.737564, 100.014435, 13.767732, 100.802603
1759319645.588926, -2.124106, -7.013963, 8.550293, -0.655386, 0.842990, -0.648261, -40.523315, -115.539276, 99.510788, 13.767732, 100.802603
1759319645.607965, -3.510349, -6.896947, 5.901408, -1.781034, 0.977745, 0.141591, -39.550797, -114.253235, 99.714951, 13.767732, 100.802603
1759319645.628929, -5.852925, -4.458153, 2.692429, -3.232793, 0.782488, 0.459839, -38.942749, -111.427460, 98.542755, 13.767732, 100.802603
1759319645.647912, -5.332186, -0.467169, -1.142483, -4.023289, 0.217093, 0.383563, -38.365311, -108.833923, 99.359604, 13.767732, 100.802603
1759319645.668931, -0.476895, 8.140286, -6.214150, -2.208158, 2.327367, -0.515435, -36.033585, -108.878326, 97.169281, 13.767732, 100.802603
1759319645.688926, 3.713407, 20.791995, -7.486818, 1.527032, 2.383400, -0.898927, -35.491028, -110.694305, 96.319275, 13.767732, 100.802603
1759319645.708602, 7.208492, 10.281749, -4.623952, 3.305858, -1.361733, -0.401752, -36.892853, -113.255417, 97.854874, 13.767732, 100.802603
1759319645.728932, 1.808370, 4.663157, 1.950526, 4.015388, -0.399079, -0.480102, -36.156113, -115.435150, 95.680191, 13.767732, 100.802603
1759319645.748937, -11.713632, 7.080702, 9.352799, 0.457417, 4.491435, 0.589697, -32.148422, -115.304810, 94.398560, 13.767732, 100.802603
1759319645.768937, -8.244284, 15.152753, 7.780108, -4.099582, -0.348499, -0.100568, -33.597931, -110.885498, 94.063965, 13.767732, 100.802603
1759319645.788939, -2.181716, 23.202508, 13.120375, -5.738180, 0.450081, -2.603430, -34.223389, -108.909103, 95.468521, 13.767732, 100.802603
1759319645.808465, 4.200926, 41.774330, 1.093103, -4.500744, -3.634404, -1.899850, -35.267212, -108.093079, 96.964249, 13.767732, 100.802603
1759319645.828941, -0.901118, 31.455171, -6.961291, -3.923392, -4.644665, 0.606422, -38.344864, -104.941589, 100.252640, 13.767732, 100.802603
1759319645.848916, -5.072715, 21.883153, -10.540473, -3.877745, -3.089458, 2.677720, -40.066238, -100.482697, 104.512421, 13.767732, 100.802603
1759319645.868942, -11.659164, 11.440244, -15.876400, -3.633446, 0.634749, 3.244994, -38.695526, -95.996643, 105.389709, 13.767732, 100.802603
1759319645.888944, -8.516175, 2.074875, -10.943896, -2.131614, 4.301538, 1.367852, -36.140274, -93.552353, 105.108978, 13.767732, 100.802603
1759319645.908322, -3.617190, 2.348113, -1.279701, -1.910395, 3.712745, -0.146896, -34.026978, -92.104782, 102.944107, 13.767732, 100.802603
1759319645.928949, -0.210989, 0.750582, 0.508768, -1.942987, 3.488493, -0.370167, -32.279800, -90.992065, 102.576538, 13.767732, 100.802603
1759319645.948922, 4.910508, 4.487781, 5.763741, -1.260318, 1.422933, -0.178173, -31.578735, -90.268127, 103.182388, 13.767732, 100.802603
1759319645.968947, 4.117129, 2.204760, -1.472135, 0.150681, -0.819740, 0.079837, -31.782166, -90.530777, 102.599487, 13.767732, 100.802603
1759319645.988951, 2.799271, -1.583615, 0.587178, 1.328636, -0.752787, 0.057187, -32.426651, -91.398010, 102.473709, 13.767732, 100.802603
1759319646.008182, 1.428889, -3.877260, 2.765901, 1.713548, -1.313705, -0.157146, -33.899887, -92.542877, 101.909943, 13.767732, 100.802603
1759319646.028765, 0.522535, -3.468300, 2.645742, 2.862420, -1.268462, -0.413796, -34.239548, -95.007294, 101.596756, 13.767732, 100.802603
1759319646.048676, -1.554585, 1.666065, 0.436194, 4.264334, -0.414739, -0.163477, -34.288712, -98.399826, 100.621490, 13.767716, 100.802627
1759319646.068956, -3.629909, 5.546617, 2.053776, 4.287494, -1.512474, 0.213008, -34.895889, -101.724411, 98.518494, 13.767716, 100.802627
1759319646.088963, -9.431957, 22.773347, -1.356016, 4.463485, -1.448647, 0.757011, -33.998932, -105.616470, 97.723343, 13.767716, 100.802627
1759319646.108038, -8.772804, 42.206783, -12.076952, 5.003156, 1.675272, 1.061154, -30.903595, -109.440460, 95.507645, 13.767716, 100.802627
1759319646.128963, -11.531074, 43.486932, -14.280964, 2.224914, 6.078532, -0.629278, -27.283340, -110.168304, 92.325928, 13.767716, 100.802627
1759319646.148961, -2.492514, 28.315325, -4.687697, 2.156292, 3.410713, 0.150719, -25.702866, -111.002502, 91.922729, 13.767716, 100.802627
1759319646.168974, 8.492533, 22.928970, 7.246800, 1.854314, 0.361468, 0.325699, -27.476151, -112.286346, 91.641464, 13.767716, 100.802627
1759319646.188933, 10.281001, 19.405453, 6.208315, 1.544891, -4.398786, 1.755294, -32.341507, -112.113007, 93.747391, 13.767716, 100.802627
1759319646.208939, 6.122871, 3.475782, 8.983344, 1.939935, -6.237922, 1.094695, -38.083282, -113.055878, 98.079880, 13.767716, 100.802627
1759319646.229008, -7.692271, -10.772860, -8.344691, 2.214164, -6.027099, 0.399098, -41.159637, -113.412109, 99.487579, 13.767716, 100.802627
1759319646.248963, -4.000112, -17.464205, -1.598728, 0.211392, -0.949135, -0.785887, -41.308212, -114.144257, 100.372604, 13.767716, 100.802627
1759319646.268964, -1.306935, -6.548291, 8.933664, -0.706351, 0.331851, -1.253846, -40.664810, -113.761490, 98.598236, 13.767716, 100.802627
1759319646.288975, -4.087351, -6.175544, 7.834875, -1.552576, 1.438097, -0.301690, -39.305161, -112.074783, 97.878723, 13.767716, 100.802627
1759319646.308476, -5.596297, -5.253627, 3.512443, -2.994255, 1.789811, 0.390018, -38.612854, -110.871643, 97.755020, 13.767716, 100.802627
1759319646.328966, -7.699004, -1.360505, 3.919907, -4.509037, 0.258962, 0.577820, -38.315506, -107.201065, 98.109589, 13.767716, 100.802627
1759319646.348970, -3.583372, 4.541950, -7.219416, -3.259624, 0.955248, -0.253763, -37.024246, -105.715805, 98.873245, 13.767716, 100.802627
1759319646.368976, 4.744410, 19.051112, -12.778453, 0.959504, 3.015750, -0.969061, -34.677795, -107.569763, 96.100388, 13.767716, 100.802627
1759319646.388966, 8.897153, 15.282937, -3.955520, 3.612301, -0.557608, -0.588476, -35.931137, -110.073410, 97.099976, 13.767716, 100.802627
1759319646.408947, 3.570353, 8.463204, -3.393781, 4.947692, -0.880156, -0.446549, -35.519073, -113.275436, 95.414200, 13.767716, 100.802627
1759319646.428980, -12.720244, 8.910770, 10.056096, 1.107930, 6.544672, 0.066233, -30.194199, -114.068390, 92.449387, 13.767716, 100.802627
1759319646.448975, -8.284387, 14.126538, 8.805724, -4.116684, -0.271362, -0.402989, -30.948212, -110.279114, 93.266403, 13.767716, 100.802627
1759319646.468975, -4.531326, 23.638552, 12.423512, -5.412410, -0.929788, -2.588069, -32.429611, -107.929047, 94.249008, 13.767716, 100.802627
1759319646.488955, 0.002245, 36.188059, 8.219893, -5.028637, -5.573755, -2.159638, -36.493011, -105.511795, 98.527924, 13.767716, 100.802627
1759319646.508958, -0.117017, 34.846109, -1.831415, -3.710169, -5.815907, 0.132320, -39.362793, -103.575897, 102.501938, 13.767716, 100.802627
1759319646.528957, -6.682067, 19.758299, -22.946178, -4.005000, -4.500623, 1.983759, -41.335861, -98.934769, 106.419403, 13.767716, 100.802627
1759319646.548988, -7.833678, 12.036400, -15.367483, -4.183372, 0.710036, 2.553906, -39.679520, -94.825714, 108.096100, 13.767716, 100.802627
1759319646.569002, -7.368754, 4.708646, -7.590218, -1.997066, 4.096015, 2.094624, -36.574219, -92.558578, 105.164978, 13.767716, 100.802627
1759319646.588968, -6.317999, 0.005237, -3.211672, -2.727500, 5.199625, 0.549439, -33.597427, -90.089828, 103.981247, 13.767716, 100.802627
1759319646.608480, -4.007295, -1.614440, 1.059434, -2.331554, 4.616264, 0.051529, -31.708191, -89.327087, 104.005310, 13.767716, 100.802627
1759319646.629007, 4.471321, 1.699135, 2.543091, -0.612386, -0.066785, -0.106978, -31.634766, -88.822067, 103.544220, 13.767716, 100.802627
1759319646.648966, 3.402909, -0.231489, -0.332644, 0.956852, 0.295902, 0.300963, -31.521744, -89.164673, 104.054871, 13.767716, 100.802627
1759319646.668970, 2.471265, -1.645116, 4.749797, 0.665254, -1.062315, -0.310367, -32.719742, -89.361023, 103.253937, 13.767716, 100.802627
1759319646.688727, 2.082058, -2.766500, 2.969558, 1.220337, -1.553423, -0.380085, -34.024734, -90.742325, 102.950226, 13.767716, 100.802627
1759319646.708972, -0.108188, -1.536329, 3.909731, 3.562083, -1.838246, -0.405290, -35.333435, -93.134705, 102.435989, 13.767716, 100.802627
1759319646.728972, -1.463755, 4.166210, 2.910900, 3.780813, -2.203874, -0.199637, -36.604950, -95.880127, 101.236176, 13.767716, 100.802627
1759319646.748979, -7.732822, 22.199187, 1.801188, 4.444101, -1.594814, -0.287344, -36.516617, -100.141479, 100.248367, 13.767716, 100.802627
1759319646.768986, -11.026047, 41.971851, -9.403377, 4.989629, 0.992727, 1.741215, -34.178024, -103.285477, 96.269165, 13.767716, 100.802627
1759319646.788982, -13.221380, 41.250898, -6.672191, 3.388500, 6.752953, 0.393659, -29.604294, -105.037613, 92.822159, 13.767716, 100.802627
1759319646.808975, -6.931363, 29.721021, -4.603751, 2.535875, 4.171112, 0.503605, -28.081879, -105.606277, 91.722565, 13.767716, 100.802627
1759319646.828990, 1.100136, 20.870106, -1.328782, 2.601355, 1.812404, -0.514681, -26.390991, -107.354202, 91.387756, 13.767716, 100.802627
1759319646.848993, 12.505364, 22.030546, 10.099341, 2.078792, -2.116286, 0.451709, -27.079041, -109.511627, 91.314651, 13.767716, 100.802627
1759319646.869005, 8.883236, 11.037120, 9.251345, 2.142874, -4.703805, 1.560227, -31.173828, -109.977768, 92.560883, 13.767716, 100.802627
1759319646.889010, -1.634342, -6.012289, 1.637933, 3.431565, -7.053758, 0.474658, -36.523880, -111.994614, 95.757309, 13.767716, 100.802627
1759319646.908518, -5.285350, -20.268114, -8.899696, 1.131756, -3.026347, -0.394794, -40.363358, -113.191177, 97.530655, 13.767716, 100.802627
1759319646.928999, -3.034501, -10.582820, 6.240936, -0.770387, 0.456233, -1.482424, -40.930756, -113.995056, 97.526474, 13.767716, 100.802627
1759319646.949007, -2.466327, -7.077260, 9.975890, -1.581510, 0.853864, -1.071088, -40.072144, -113.778961, 97.720474, 13.767716, 100.802627
1759319646.969019, -4.502745, -3.615544, 1.074548, -2.753052, 0.898139, -0.126891, -39.010406, -112.659668, 96.278732, 13.767716, 100.802627
1759319646.989008, -5.950190, -1.404199, 2.224064, -4.033585, 0.549978, 0.307989, -38.371597, -109.860977, 96.702545, 13.767716, 100.802627
1759319647.008631, -3.484910, 3.400515, -5.236718, -2.944499, 0.815283, -0.244219, -37.590134, -107.941498, 96.502960, 13.767716, 100.802627
1759319647.028738, 1.985691, 14.713117, -10.952724, 0.532317, 2.892093, -0.425781, -34.898239, -108.949051, 95.409882, 13.767716, 100.802627
1759319647.048079, 6.049399, 17.674146, -1.857152, 2.462630, 0.864394, -0.418182, -34.237350, -110.871384, 94.804062, 13.767698, 100.802648
1759319647.068953, 6.062568, 10.515483, -9.613917, 5.102180, -1.112900, -0.021934, -34.667816, -114.594513, 94.356155, 13.767698, 100.802648
1759319647.089012, -10.662876, 6.951116, 10.045621, 1.740592, 4.183553, -0.059795, -32.346130, -116.155457, 92.007721, 13.767698, 100.802648
1759319647.108247, -7.828441, 11.862371, 7.318326, -1.351039, 1.505826, -0.544118, -30.621582, -115.383163, 92.174103, 13.767698, 100.802648
1759319647.128132, -4.957045, 16.778116, 5.705532, -4.804361, -0.961019, -2.306463, -31.954391, -112.653503, 92.222595, 13.767698, 100.802648
1759319647.149019, -0.263661, 35.332132, 11.127052, -4.365922, -3.956524, -1.917651, -34.412430, -110.907394, 94.865417, 13.767698, 100.802648
1759319647.168806, 0.463428, 38.050748, 0.741155, -4.509377, -5.393950, 0.122849, -38.375061, -107.505417, 97.669769, 13.767698, 100.802648
1759319647.188957, -1.918354, 25.832987, -4.412663, -5.174238, -3.925623, 2.936256, -40.497086, -101.578049, 102.055313, 13.767698, 100.802648
1759319647.208996, -17.226580, 14.625280, -34.348115, -5.702736, 0.328126, 3.204605, -39.514603, -95.449921, 104.543961, 13.767698, 100.802648
1759319647.229019, -11.031583, 4.552724, -10.744279, -2.145067, 5.486775, 1.640928, -35.904755, -93.115036, 101.859589, 13.767698, 100.802648
1759319647.249024, -3.688717, 5.371391, 2.717419, -1.286698, 4.832488, 0.273889, -32.887238, -91.913437, 100.866257, 13.767698, 100.802648
1759319647.268654, -2.904765, 0.343418, 5.228488, -1.663792, 2.895561, -0.036578, -31.723801, -90.702515, 100.087234, 13.767698, 100.802648
1759319647.288785, 5.361815, -0.481534, 3.033454, -0.560064, -0.232386, -0.496919, -31.854614, -90.686539, 100.249451, 13.767698, 100.802648
1759319647.308331, 5.426608, 0.945410, -4.194492, -0.098254, -1.763217, -0.003438, -32.207275, -90.534927, 101.160629, 13.767698, 100.802648
1759319647.329045, 4.584597, -1.099836, -4.327968, 0.904625, -0.582376, 0.125340, -32.600113, -91.092606, 101.246994, 13.767698, 100.802648
1759319647.349027, 1.756297, -1.956512, 2.719963, 0.988486, -0.384696, -0.340664, -33.425446, -91.685776, 101.540985, 13.767698, 100.802648
1759319647.368520, 0.833631, -1.806724, 6.306028, 1.631927, -1.276065, -0.558594, -34.160416, -92.834244, 100.592545, 13.767698, 100.802648
1759319647.388526, -1.319205, 1.422754, -3.092111, 3.161032, -0.977503, -0.036670, -34.974213, -94.911270, 101.163467, 13.767698, 100.802648
1759319647.408700, -1.291522, 4.022259, 3.586065, 3.830121, -0.696625, -0.267985, -35.377838, -97.875381, 98.820419, 13.767698, 100.802648
1759319647.428570, -5.060444, 12.205341, 1.209970, 3.559567, -1.154712, -0.511705, -35.565674, -101.371872, 97.465790, 13.767698, 100.802648
1759319647.449037, -7.263858, 37.962013, -4.270059, 4.269384, 0.116145, 0.927964, -34.140274, -105.140900, 97.072830, 13.767698, 100.802648
1759319647.468305, -7.842357, 45.878590, -5.532551, 4.332091, 4.991409, 0.735627, -29.977798, -108.879257, 92.773956, 13.767698, 100.802648
1759319647.488376, -9.634417, 36.502597, -4.140772, 2.505198, 3.609937, 0.420907, -27.604279, -109.976105, 91.920212, 13.767698, 100.802648
1759319647.509010, -3.217807, 22.467488, -5.148132, 2.693841, 0.891737, -0.042225, -26.783035, -111.943710, 90.479858, 13.767698, 100.802648
1759319647.528673, 8.415768, 17.010055, 3.573047, 2.271867, -2.006729, -0.023282, -28.849091, -113.469727, 91.081619, 13.767698, 100.802648
1759319647.549046, 11.779622, 11.875988, 7.561338, 1.821265, -3.616158, 1.331671, -32.424286, -114.324997, 94.046677, 13.767698, 100.802648
1759319647.568088, 3.103783, -0.064643, 2.378490, 2.188870, -5.352421, 0.879783, -36.507996, -115.265076, 95.443268, 13.767698, 100.802648
1759319647.588234, -5.273080, -12.981212, -3.240702, 1.744765, -3.865396, 0.155946, -39.798920, -116.233475, 97.843628, 13.767698, 100.802648
1759319647.609015, -2.755128, -14.537144, 2.909853, -0.302659, -1.062476, -0.809790, -40.848709, -116.539932, 99.249939, 13.767698, 100.802648
1759319647.629028, -2.823063, -8.090007, 9.553164, -1.324874, 0.557296, -0.952932, -40.152451, -116.024872, 98.537003, 13.767698, 100.802648
1759319647.649096, -4.144513, -6.299893, 4.180875, -2.372211, 1.736462, -0.143627, -38.611130, -114.513550, 97.576889, 13.767698, 100.802648
1759319647.669043, -6.535273, -2.811391, 3.419818, -3.920362, 1.221001, 0.831623, -37.954773, -111.022903, 96.533920, 13.767698, 100.802648
1759319647.688084, -4.640262, 0.534356, -3.253720, -3.823296, -0.559013, 0.487521, -37.750946, -108.812729, 97.033295, 13.767698, 100.802648
1759319647.709026, -0.559645, 14.087931, -14.977976, 0.397075, 2.456238, -0.684644, -35.018875, -110.846237, 95.391418, 13.767698, 100.802648
1759319647.729045, 4.205266, 20.807258, -3.049165, 3.142147, 1.967332, -0.844702, -34.914093, -113.066101, 94.161026, 13.767698, 100.802648
1759319647.749052, 8.297555, 5.974581, -6.450578, 4.373509, -2.436967, -0.136924, -36.542007, -116.244232, 96.196976, 13.767698, 100.802648
1759319647.769049, -6.083517, 5.147982, 5.740697, 1.817343, 2.548899, -0.175850, -33.413498, -116.887817, 93.084946, 13.767698, 100.802648
1759319647.789032, -9.976189, 13.406332, 7.112575, -0.920855, 5.165476, -0.004897, -30.858887, -115.125900, 92.250839, 13.767698, 100.802648
1759319647.808812, -7.424868, 17.719486, 3.211223, -6.089446, 0.042845, -2.249546, -31.271271, -112.841965, 92.425735, 13.767698, 100.802648
1759319647.829056, 2.335993, 38.924631, 18.985271, -4.548894, -3.930688, -2.551696, -32.649826, -111.071396, 93.835724, 13.767698, 100.802648
1759319647.848820, 1.041178, 35.902251, 1.255011, -3.216581, -7.625463, -0.227695, -38.006363, -109.017395, 99.285507, 13.767698, 100.802648
1759319647.869055, -5.842900, 22.879440, -19.359215, -3.044769, -5.806163, 2.228287, -41.053299, -106.388641, 103.090500, 13.767698, 100.802648
1759319647.889059, -8.638280, 15.233557, -17.796251, -4.732931, 0.446714, 3.638187, -41.363876, -100.529160, 106.006836, 13.767698, 100.802648
1759319647.909034, -12.546066, 7.578097, -10.252420, -2.475038, 5.639496, 2.842598, -37.478729, -96.482590, 103.046188, 13.767698, 100.802648
1759319647.929048, -6.084115, 2.320281, 0.778564, -1.564555, 4.176930, 0.708458, -34.969437, -95.046982, 101.612503, 13.767698, 100.802648
1759319647.949060, -2.184859, 0.929698, -0.180463, -1.727495, 3.247211, -0.348111, -33.033463, -93.925476, 102.451675, 13.767698, 100.802648
1759319647.969060, 3.103634, -0.393397, 0.842160, -1.632338, 1.682479, -0.629106, -32.134872, -93.320297, 101.210541, 13.767698, 100.802648
1759319647.989058, 5.283554, 1.609203, -0.371849, -0.163344, -0.183799, -0.043107, -32.100143, -93.390396, 101.402740, 13.767698, 100.802648
1759319648.009036, 3.093757, -0.023792, 1.631798, 0.498506, -0.158533, -0.254880, -32.260590, -93.837616, 101.486908, 13.767698, 100.802648
1759319648.029060, 2.506430, -1.269226, 1.804031, 1.177674, -0.755282, -0.070361, -33.119400, -94.615936, 101.690216, 13.767698, 100.802648
1759319648.049056, 0.569221, -3.610905, 4.592528, 2.511821, -1.350424, 0.079643, -34.060196, -96.090271, 102.021683, 13.767678, 100.802670
1759319648.069066, -1.675193, 1.190218, -0.631321, 3.882192, -1.634315, -0.104435, -34.995132, -98.986588, 100.101578, 13.767678, 100.802670
1759319648.089070, -3.486556, 5.844994, 3.196858, 4.610374, -1.842743, -0.145566, -36.364395, -102.256958, 99.886261, 13.767678, 100.802670
1759319648.109042, -7.780856, 11.313501, -1.708562, 4.110640, -2.328374, 0.025973, -36.935760, -105.524277, 100.819153, 13.767678, 100.802670
1759319648.128806, -9.681403, 33.587507, -8.189516, 4.444530, 0.201438, 0.456393, -35.260300, -109.532440, 97.656052, 13.767678, 100.802670
1759319648.149072, -7.904606, 42.699090, -11.644948, 3.513624, 4.896230, 0.158240, -31.511215, -111.453033, 95.197723, 13.767678, 100.802670
1759319648.169073, -6.616526, 34.336144, -3.601029, 1.973179, 5.122421, -0.050246, -28.915482, -112.014648, 92.646957, 13.767678, 100.802670
1759319648.189073, -1.419313, 22.629545, -4.068646, 1.790893, 1.764363, -0.178875, -28.586792, -112.897202, 91.520920, 13.767678, 100.802670
1759319648.209048, 8.464251, 17.261296, 5.684284, 1.520953, -1.450414, 0.043484, -31.108093, -113.806549, 93.188644, 13.767678, 100.802670
1759319648.229082, 9.505130, 15.440356, 7.362619, 1.661603, -4.802550, 0.932805, -35.304916, -114.466904, 94.691345, 13.767678, 100.802670
1759319648.249080, 2.874089, 1.704821, 5.320664, 2.075030, -4.993459, 0.759453, -39.752304, -115.203201, 99.175507, 13.767678, 100.802670
1759319648.269078, -6.340445, -13.000665, -6.019771, 1.495255, -4.814034, 0.368195, -42.506149, -115.389160, 100.145218, 13.767678, 100.802670
1759319648.288581, -2.534562, -14.815918, -0.301370, -0.649287, -0.419367, -0.808609, -42.414352, -115.164474, 101.234222, 13.767678, 100.802670
1759319648.309052, -1.351228, -7.135020, 10.664522, -1.491710, 0.772739, -1.126759, -42.031647, -114.898788, 99.508286, 13.767678, 100.802670
1759319648.329084, -2.668787, -4.687697, 4.343231, -2.370588, 0.973266, -0.233040, -40.813797, -113.891998, 99.085495, 13.767678, 100.802670
1759319648.349081, -5.980117, -2.539051, 1.582268, -3.968318, 1.531832, 0.839449, -39.852295, -110.900970, 99.038544, 13.767678, 100.802670
1759319648.369077, -5.835118, 0.478391, -1.182287, -4.092407, 0.927799, 0.607597, -38.871048, -107.714050, 97.691345, 13.767678, 100.802670
1759319648.388497, -1.105373, 15.076737, -12.891728, -0.510984, 3.086310, -0.577531, -35.830902, -108.547134, 97.247574, 13.767678, 100.802670
1759319648.409058, 5.961712, 20.506487, -4.179528, 2.935826, 1.343482, -0.766157, -35.281555, -110.708191, 94.764801, 13.767678, 100.802670
1759319648.429086, 7.833229, 4.938041, -6.903980, 4.954273, -2.293854, -0.334899, -36.698120, -114.445786, 95.733231, 13.767678, 100.802670
1759319648.449089, -7.636456, 3.971382, 7.660099, 1.817238, 3.330973, -0.328077, -34.115662, -115.908905, 95.050720, 13.767678, 100.802670
1759319648.469088, -10.400412, 14.405612, 4.301333, -0.343779, 4.868060, -0.237206, -30.608780, -115.309296, 92.205551, 13.767678, 100.802670
1759319648.488318, -6.395661, 16.724097, 4.166509, -5.851705, -0.931100, -1.983920, -31.725418, -111.954193, 92.894852, 13.767678, 100.802670
1759319648.509064, 0.700603, 40.398861, 15.314810, -5.167293, -3.934003, -2.308021, -34.715790, -109.778778, 95.411285, 13.767678, 100.802670
1759319648.529094, 1.217601, 36.341138, 2.794333, -4.126328, -7.253088, -0.206286, -39.463211, -107.046005, 100.441925, 13.767678, 100.802670
1759319648.548762, -4.639963, 21.443518, -20.633080, -3.378525, -5.304482, 1.585783, -41.964890, -103.343277, 105.461945, 13.767678, 100.802670
1759319648.569101, -6.529736, 15.510686, -14.754717, -4.760672, 0.114343, 3.396246, -41.091858, -97.892059, 105.777847, 13.767678, 100.802670
1759319648.588865, -13.107506, 7.537695, -9.723601, -2.164282, 5.011598, 2.921996, -37.036407, -94.961060, 103.607483, 13.767678, 100.802670
1759319648.609070, -7.719355, -0.964115, -1.287033, -1.661916, 4.554154, 0.974298, -34.895248, -93.082458, 102.966690, 13.767678, 100.802670
1759319648.629088, -3.041384, -2.975394, 0.962768, -1.759700, 3.141110, -0.411265, -33.566238, -92.241455, 101.295044, 13.767678, 100.802670
1759319648.649098, 5.669619, 3.299958, 3.727922, -0.931021, 0.990364, -0.824942, -33.481232, -92.036011, 102.302521, 13.767678, 100.802670
1759319648.669104, 7.192331, 3.130269, -5.132570, -0.000183, -0.932331, -0.163929, -33.716858, -92.645172, 101.041962, 13.767678, 100.802670
1759319648.688417, 3.273622, 0.710479, -0.813879, 0.942538, 0.640684, 0.017564, -33.877502, -92.860077, 100.555649, 13.767678, 100.802670
1759319648.708189, 1.111059, -1.435773, 5.745186, 0.985258, -0.387750, 0.193834, -34.306519, -93.347778, 101.067459, 13.767678, 100.802670
1759319648.729119, -0.897676, -3.986495, 3.605219, 2.507256, -1.654791, 0.038426, -35.440079, -95.882431, 99.811325, 13.767678, 100.802670
1759319648.749105, -3.612401, 0.527323, -0.613065, 4.276633, -1.696199, -0.541209, -36.636246, -99.742508, 99.941467, 13.767678, 100.802670
1759319648.769145, -5.485415, 8.633940, 2.745850, 4.286746, -2.369104, -0.379603, -37.685898, -103.450958, 98.974075, 13.767678, 100.802670
1759319648.788194, -8.388534, 21.890036, -2.224363, 3.917468, -1.476111, -0.021460, -37.298843, -105.434692, 99.161926, 13.767678, 100.802670
1759319648.809080, -6.594080, 44.551304, -10.558280, 4.738162, 2.529159, 0.708166, -34.422714, -109.110794, 95.772171, 13.767678, 100.802670
1759319648.829131, -11.099220, 38.035185, -7.731027, 2.483004, 5.473652, 0.234116, -30.920319, -110.438110, 92.828003, 13.767678, 100.802670
1759319648.849118, -5.899463, 27.404780, -3.874417, 2.439246, 3.903134, 0.283501, -27.835419, -111.796219, 91.764496, 13.767678, 100.802670
1759319648.869108, 3.175460, 18.210747, 0.432902, 2.233140, 1.415337, -0.626761, -27.600601, -113.343277, 90.410370, 13.767678, 100.802670
1759319648.889111, 11.206809, 17.997962, 9.651177, 2.112718, -2.123837, -0.117856, -29.388260, -115.568954, 92.537430, 13.767678, 100.802670
1759319648.909085, 8.189666, 11.150695, 6.967875, 1.953574, -3.696220, 0.958490, -33.083298, -116.460495, 94.090927, 13.767678, 100.802670
1759319648.929126, -1.941398, -3.910928, 0.851139, 2.176612, -5.298545, 0.435733, -37.435486, -117.695770, 96.726318, 13.767678, 100.802670
1759319648.949020, -3.279458, -16.434399, -5.284003, 0.979211, -3.973070, -0.235446, -40.376938, -118.256256, 99.443604, 13.767678, 100.802670
1759319648.968133, -0.559345, -10.375423, 3.307590, -0.950143, -0.677569, -1.039428, -40.362305, -118.298325, 99.085541, 13.767678, 100.802670
1759319648.988957, -2.873042, -8.333468, 7.674613, -1.769942, 1.267204, -0.697155, -39.074097, -117.450089, 98.042191, 13.767678, 100.802670
1759319649.009092, -4.657770, -5.187337, 2.305018, -3.145948, 1.374370, 0.378685, -37.968353, -114.720367, 97.012009, 13.767678, 100.802670
1759319649.029123, -3.711461, -2.427870, 2.312051, -4.633385, 0.415152, 0.760444, -37.294739, -111.401382, 97.546997, 13.767678, 100.802670
1759319649.049121, -1.815703, 7.542334, -6.640618, -2.851167, 2.545932, -0.150831, -34.345520, -111.121567, 96.012573, 13.767659, 100.802688
1759319649.069122, 0.693121, 22.690747, -10.334721, 2.028900, 3.081651, -0.188863, -32.671799, -113.092896, 94.037399, 13.767659, 100.802688
1759319649.088765, 7.633014, 11.020061, -2.030283, 3.419486, -1.064847, -0.141766, -34.857788, -115.980286, 95.586151, 13.767659, 100.802688
1759319649.109105, 0.249895, 1.167473, 4.911106, 4.063235, -2.400091, -0.559951, -35.137253, -118.730438, 95.953156, 13.767659, 100.802688
1759319649.129163, -11.235240, 7.603685, 5.834370, 0.997027, 5.480096, -0.254393, -30.128998, -120.330627, 92.369003, 13.767659, 100.802688
1759319649.149128, -6.167463, 15.402348, 5.721693, -3.871674, -1.473650, -0.358615, -32.486618, -115.767731, 94.202850, 13.767659, 100.802688
1759319649.169125, -3.711761, 27.625945, 11.524789, -5.433580, -0.584622, -2.203370, -33.468597, -113.569885, 94.253326, 13.767659, 100.802688
1759319649.188635, 1.174954, 38.790107, 8.463503, -5.252519, -5.097001, -1.326200, -38.176422, -109.840881, 98.205231, 13.767659, 100.802688
1759319649.209102, 1.246032, 27.014974, -6.038326, -3.769675, -6.183321, 0.881695, -40.710526, -107.165573, 102.964630, 13.767659, 100.802688
1759319649.229128, -5.542876, 19.091663, -17.170915, -4.115701, -2.717770, 2.014539, -41.204514, -102.471924, 104.137863, 13.767659, 100.802688
1759319649.249131, -5.170278, 13.644705, -8.768913, -3.754113, 1.294885, 3.092153, -39.112839, -98.620514, 105.157776, 13.767659, 100.802688
1759319649.269118, -11.822867, 5.869984, -9.842264, -1.599467, 3.043991, 2.132269, -36.760803, -96.917313, 102.757217, 13.767659, 100.802688
1759319649.288476, -6.457012, 2.666991, -2.769044, -1.631246, 3.173635, 0.315745, -35.832962, -96.086716, 103.769745, 13.767659, 100.802688
1759319649.308941, -2.290802, 0.164302, -0.389207, -1.646123, 3.616444, -0.559188, -33.964294, -94.984467, 101.657547, 13.767659, 100.802688
1759319649.329135, 4.576217, -0.558448, -0.273238, -0.991921, 2.249423, -0.462649, -32.769318, -94.576599, 101.173050, 13.767659, 100.802688
1759319649.348976, 3.912724, 2.110189, 3.319561, 0.621381, 0.658181, -0.768680, -32.221405, -95.276062, 101.146118, 13.767659, 100.802688
1759319649.369146, 2.428319, 1.816301, 5.901408, 0.734224, -0.413530, -0.889971, -32.989532, -96.167725, 100.334793, 13.767659, 100.802688
1759319649.388334, 3.148674, -1.377713, 0.535254, 2.002148, -1.697526, 0.066064, -34.078186, -97.374359, 101.487030, 13.767659, 100.802688
1759319649.409112, 1.029058, -4.304026, 1.378162, 3.174229, -1.797082, 0.323584, -34.994186, -99.699844, 100.634155, 13.767659, 100.802688
1759319649.429142, -3.290830, 1.835904, -2.173187, 4.185459, -1.316494, -0.207138, -35.739594, -103.041977, 100.298325, 13.767659, 100.802688
1759319649.448856, -5.539135, 8.347983, 1.927781, 3.914997, -2.050662, 0.052532, -36.640152, -105.801178, 100.665604, 13.767659, 100.802688
1759319649.468996, -8.055890, 20.464738, -0.546477, 3.440328, -0.859258, 0.559836, -35.638702, -109.324310, 98.684769, 13.767659, 100.802688
1759319649.488197, -6.154744, 42.668564, -6.900388, 4.435465, 2.571488, 0.897762, -32.197784, -112.469421, 96.100510, 13.767659, 100.802688
1759319649.508591, -10.613945, 40.830416, -6.136189, 2.909198, 4.999209, 0.040673, -29.728607, -113.535233, 93.918671, 13.767659, 100.802688
1759319649.529156, -5.504719, 27.384729, -4.558710, 2.745089, 1.877812, 0.219336, -28.892975, -115.323318, 93.445343, 13.767659, 100.802688
1759319649.548713, 2.204162, 21.365856, -4.829404, 2.252614, 0.292397, -0.208726, -29.539856, -116.488220, 94.706985, 13.767659, 100.802688
1759319649.568853, 10.996568, 16.014516, 4.349067, 1.514960, -1.416767, -0.070560, -32.009262, -116.859665, 94.451523, 13.767659, 100.802688
1759319649.589145, 8.986037, 11.448474, 4.547188, 0.937763, -4.192409, 1.876593, -36.405029, -116.373795, 97.319855, 13.767659, 100.802688
1759319649.608470, -0.815974, -5.373187, 4.115333, 1.758463, -5.252111, 0.263198, -40.220749, -116.888168, 101.060471, 13.767659, 100.802688
1759319649.629188, -4.158579, -15.324237, -3.197905, 1.031774, -3.710814, 0.112828, -42.087616, -117.082962, 101.438568, 13.767659, 100.802688
1759319649.648565, -2.969109, -11.838579, 3.403956, -1.050607, -0.367595, -0.697321, -41.847916, -116.537262, 102.215256, 13.767659, 100.802688
1759319649.668707, -4.353706, -7.481731, 6.621314, -2.049584, 0.678696, -0.681948, -40.987289, -114.949219, 100.354156, 13.767659, 100.802688
1759319649.689177, -4.356400, -5.599439, 1.444452, -3.940889, 1.610952, 0.792936, -39.559921, -111.736649, 99.320755, 13.767659, 100.802688
1759319649.709128, -4.953005, 0.225953, -1.052401, -3.884011, 0.754845, 0.519029, -38.734985, -109.369385, 99.820541, 13.767659, 100.802688
1759319649.729137, -1.298405, 14.688128, -11.713332, 0.137783, 2.668757, -0.829199, -36.233673, -110.702621, 97.169785, 13.767659, 100.802688
1759319649.748423, 0.179715, 20.006997, -7.749731, 1.999150, 2.485835, -1.139770, -35.430130, -111.702744, 97.974579, 13.767659, 100.802688
1759319649.768565, 8.272565, 12.157606, 0.009278, 3.137288, -1.315050, -0.728306, -37.151581, -114.085724, 97.583862, 13.767659, 100.802688
1759319649.788941, -2.805555, 5.042338, 5.080496, 2.590342, 1.969797, -0.552388, -37.745071, -116.993317, 98.887985, 13.767659, 100.802688
1759319649.809133, -12.757952, 13.708600, 4.691887, -0.570442, 5.830304, -0.237742, -32.860626, -117.981766, 94.367584, 13.767659, 100.802688
1759319649.829216, -7.327753, 14.331392, 3.228880, -5.605595, -0.351957, -1.243394, -32.309143, -114.670090, 94.129517, 13.767659, 100.802688
1759319649.848282, -3.247136, 22.406436, 13.799729, -5.209743, -0.002833, -1.882596, -32.971603, -112.264526, 95.348984, 13.767659, 100.802688
1759319649.868408, 2.086098, 39.308452, 2.897433, -3.173769, -5.105697, -1.008693, -35.943451, -111.094803, 97.835861, 13.767659, 100.802688
1759319649.889154, -1.753902, 27.964126, -9.805303, -3.712212, -5.412900, 1.159905, -39.753220, -108.285034, 102.971085, 13.767659, 100.802688
1759319649.908858, -4.728997, 17.117045, -9.196877, -3.900454, -2.312597, 3.241275, -41.466705, -103.927567, 105.018173, 13.767659, 100.802688
1759319649.929174, -12.102240, 6.601113, -14.194473, -3.354753, 1.102858, 3.222920, -40.539291, -99.229156, 106.311569, 13.767659, 100.802688
1759319649.949171, -7.243657, 0.022595, -7.450307, -1.211454, 4.456754, 1.397911, -37.445923, -97.072891, 105.741837, 13.767659, 100.802688
1759319649.968274, -5.238962, 0.586130, -1.971924, -1.656589, 3.807290, -0.121371, -35.222885, -95.849762, 102.851212, 13.767659, 100.802688
1759319649.989171, 1.059285, 0.175226, 0.538097, -1.507556, 3.242683, -0.473476, -33.319931, -94.921005, 102.096695, 13.767659, 100.802688
1759319650.008871, 4.441693, 3.549703, 3.101539, -1.027313, 1.282228, -0.342607, -32.427948, -94.566284, 101.527878, 13.767659, 100.802688
1759319650.029167, 4.205714, 1.519720, -1.292719, 0.652463, 0.626837, -0.133987, -32.373459, -94.999451, 101.282013, 13.767659, 100.802688
1759319650.049175, 2.682254, -0.706439, 4.010138, 1.203215, -0.958863, 0.074487, -33.275101, -95.437180, 101.990921, 13.767638, 100.802706
1759319650.069178, 0.383521, -3.277512, 5.107131, 1.973966, -3.043085, 0.145368, -35.127106, -96.481140, 102.044067, 13.767638, 100.802706
1759319650.089184, -1.808370, -2.234239, -0.956783, 3.379292, -2.485757, 0.031446, -36.938538, -98.786774, 101.523895, 13.767638, 100.802706
1759319650.109148, -3.743484, 5.436933, 2.287660, 3.956653, -2.055116, -0.051564, -37.825104, -101.733582, 101.799637, 13.767638, 100.802706
1759319650.129178, -6.588693, 15.720478, 1.035193, 3.974589, -1.698501, 0.174757, -38.082291, -104.835266, 100.464905, 13.767638, 100.802706
1759319650.149186, -7.695563, 40.604762, -7.428759, 4.187253, 0.102486, 0.625394, -36.476944, -108.314713, 99.528488, 13.767638, 100.802706
1759319650.168777, -11.030386, 40.946086, -6.978948, 3.685347, 6.332919, 0.328472, -32.672791, -110.263504, 95.274918, 13.767638, 100.802706
1759319650.189157, -6.603507, 29.544000, -2.456152, 2.244261, 3.822475, 0.074235, -30.328964, -111.210526, 93.516266, 13.767638, 100.802706
1759319650.209158, -1.126173, 22.890364, -3.715202, 2.181628, 1.390122, -0.538406, -29.919067, -113.013641, 93.688705, 13.767638, 100.802706
1759319650.229205, 10.074052, 19.254469, 7.826795, 1.815429, -2.257740, 0.085625, -32.507828, -113.882294, 94.097977, 13.767638, 100.802706
1759319650.249188, 7.823802, 9.248053, 3.224990, 1.872068, -4.305489, 0.835158, -36.074905, -114.776291, 97.432083, 13.767638, 100.802706
1759319650.268642, 0.706888, 0.220865, -0.413000, 1.538769, -4.502132, 0.593262, -37.859161, -114.640228, 98.122757, 13.767638, 100.802706
1759319650.289183, -2.930652, -13.110050, -3.245191, 0.526725, -3.192801, -0.274813, -41.954910, -115.317795, 101.328827, 13.767638, 100.802706
1759319650.308847, -0.538845, -11.116578, 1.019631, -0.658315, -1.025844, -1.028576, -42.219894, -115.065109, 101.301895, 13.767638, 100.802706
1759319650.329231, -1.087267, -7.909844, 6.743119, -1.080938, 0.821076, -1.126944, -41.922379, -115.342392, 101.142670, 13.767638, 100.802706
1759319650.349193, -6.045658, -4.680964, 2.327014, -2.055825, 2.069178, 0.033213, -40.000229, -114.824097, 100.520798, 13.767638, 100.802706
1759319650.368501, -6.245724, -3.465757, 3.749918, -4.102026, 1.040676, 1.341880, -39.147659, -111.467392, 99.502289, 13.767638, 100.802706
1759319650.389194, -4.670339, 2.905813, -4.022408, -3.329828, 1.230951, 0.147381, -38.106964, -109.196106, 100.128998, 13.767638, 100.802706
1759319650.409171, 1.594538, 19.861549, -13.104214, 1.375073, 3.068453, -0.546052, -34.918472, -110.808289, 97.265762, 13.767638, 100.802706
1759319650.428489, 10.184934, 12.425607, -4.069395, 3.491541, -0.124268, -0.272049, -35.158890, -112.895020, 97.264038, 13.767638, 100.802706
1759319650.448560, 3.970634, 3.135207, -3.485509, 4.568843, -1.615620, -0.686088, -36.399551, -116.196289, 98.018127, 13.767638, 100.802706
1759319650.468347, -10.225336, 4.624251, 10.431537, 1.061933, 4.145883, -0.208693, -34.131516, -117.626663, 95.449265, 13.767638, 100.802706
1759319650.489198, -7.737611, 15.156494, 4.878336, -0.502847, 0.763269, -0.472392, -32.188385, -117.983093, 94.704208, 13.767638, 100.802706
1759319650.508373, -5.834819, 18.207155, 4.559308, -5.352606, -1.049757, -2.630646, -33.709457, -115.323547, 95.671677, 13.767638, 100.802706
1759319650.529200, -1.285986, 43.753437, 11.254843, -5.089076, -2.801187, -2.473283, -34.806595, -113.520676, 96.427780, 13.767638, 100.802706
1759319650.549198, 2.583493, 37.915625, 4.398597, -4.290315, -4.957966, 0.710381, -38.696518, -110.019394, 100.682907, 13.767638, 100.802706
1759319650.568207, -4.008492, 22.115989, -12.329241, -4.210921, -5.876651, 2.729475, -41.204208, -105.590240, 104.268112, 13.767638, 100.802706
1759319650.588547, -12.230480, 12.498331, -19.557485, -4.324037, 0.532749, 2.822006, -40.868225, -100.607330, 104.937363, 13.767638, 100.802706
1759319650.609213, -10.137349, 5.329493, -8.973318, -2.156826, 3.957238, 2.018488, -38.370972, -97.967896, 103.937073, 13.767638, 100.802706
1759319650.628264, -5.915324, 1.663970, -2.525284, -1.007359, 4.273960, 0.733305, -35.505219, -96.608719, 102.603455, 13.767638, 100.802706
1759319650.649202, -3.328539, -1.198747, 0.284162, -1.793316, 4.213768, -0.574883, -33.275314, -95.431946, 101.571167, 13.767638, 100.802706
1759319650.669201, 4.974104, 1.042824, 1.271022, -1.236228, 3.095316, -0.786513, -31.610596, -95.017303, 99.822205, 13.767638, 100.802706
1759319650.689209, 5.985355, 3.204340, 0.296432, -0.569693, 1.031205, -0.052538, -30.873795, -94.647293, 99.591400, 13.767638, 100.802706
1759319650.709178, 4.161422, 0.927155, 1.939303, 0.580153, 0.651242, -0.045608, -31.075516, -95.137024, 99.564392, 13.767638, 100.802706
