SamplingTime,AccelerationX,AccelerationY,AccelerationZ,GyroX,GyroY,GyroZ,Durations,Subject,Activity
1759224755.04457,5.707029,4.150349,0.804601,0.878652,1.924694,-0.199314,8.52,1,RUN
1759224755.06535,9.228301,-1.49054,0.231938,0.523673,1.605155,0.565404,8.54,1,RUN
1759224755.08534,10.532392,-6.293009,1.830816,0.036042,0.420672,1.066107,8.56,1,RUN
1759224755.10493,7.73387,-8.81964,2.163909,-0.629848,-0.488424,1.302621,8.58,1,RUN
1759224755.12539,0.722151,-8.131307,-0.445172,-0.823895,-0.648542,1.231968,8.60,1,RUN
1759224755.14458,-1.483956,-1.450138,-2.383877,-0.543203,-0.44138,0.913291,8.62,1,RUN
1759224755.16535,-6.034136,5.123442,-0.615609,-0.265641,-0.234248,0.103289,8.64,1,RUN
1759224755.18518,-8.791957,10.753856,2.047192,-0.293335,-4.31335,-1.247307,8.66,1,RUN
1759224755.20494,-10.352079,23.977181,9.586982,-0.690062,-9.477724,-2.793818,8.68,1,RUN
1759224755.22535,14.142699,43.95844,9.969905,-1.293558,-2.441035,0.69175,8.70,1,RUN
1759224755.24460,5.490353,2.79538,-49.766175,5.896954,7.237927,0.663873,8.72,1,RUN
1759224755.26448,8.529194,-2.029086,10.882095,3.659497,2.751299,1.518848,8.74,1,RUN
1759224755.28519,5.666926,-0.039654,28.516588,-2.019092,-4.755682,1.509134,8.76,1,RUN
1759224755.30498,3.207183,2.053926,1.988833,-3.843447,-6.536638,1.473147,8.78,1,RUN
1759224755.32537,10.958411,20.538958,-8.592341,-2.268919,-0.641186,1.231571,8.80,1,RUN
1759224755.34462,15.633089,41.161564,-5.113566,1.2585,5.364355,4.478281,8.82,1,RUN
1759224755.36473,-9.694571,30.267198,-9.087492,-0.042518,7.361622,4.759514,8.84,1,RUN
1759224755.38535,-15.55453,14.146889,1.644368,-1.893304,-0.544305,0.948168,8.86,1,RUN
1759224755.40498,-8.347085,12.937218,-4.564994,-1.515825,-0.977373,0.35693,8.88,1,RUN
1759224755.42534,-6.87899,9.17473,-5.080047,-0.670126,0.14464,1.022726,8.90,1,RUN
1759224755.44463,-4.916643,4.239383,-2.480094,-0.650458,0.47748,0.984969,8.92,1,RUN
1759224755.46535,-6.403592,2.641852,-1.39163,-0.231848,1.751142,0.101024,8.94,1,RUN
1759224755.48534,-7.113323,-0.576703,-0.230292,0.003247,3.167836,-0.53878,8.96,1,RUN
1759224755.50500,-6.296152,-3.366397,-0.537498,0.229045,2.493032,-1.308664,8.98,1,RUN
1759224755.52435,-3.345298,-3.296666,-4.655974,0.748133,0.974153,-1.64688,9.00,1,RUN
1759224755.54465,0.019453,-0.142006,-7.668927,1.608462,0.524494,-1.569751,9.02,1,RUN
1759224755.56535,1.574487,2.494908,-3.288137,2.830661,0.248612,-1.650319,9.04,1,RUN
1759224755.58498,0.481235,5.31004,0.157119,3.609857,-0.644524,-1.667318,9.06,1,RUN
1759224755.60501,-0.285658,18.685547,3.589656,3.231789,1.137526,-1.691563,9.08,1,RUN
1759224755.62535,2.61387,49.981055,9.962872,1.175425,1.765329,-1.185492,9.10,1,RUN
1759224755.64467,-1.082179,40.399011,6.78008,-0.578067,-4.927938,-2.169119,9.12,1,RUN
1759224755.66534,8.129512,25.515306,-8.395268,-0.233585,-1.734309,-2.743223,9.14,1,RUN
1759224755.68532,7.157616,16.054319,-1.236605,-0.171656,0.636069,-1.670977,9.16,1,RUN
1759224755.70503,-1.640926,13.719374,0.661099,-0.628056,3.2598,-1.262576,9.18,1,RUN
1759224755.72535,1.006762,14.033314,3.623624,-0.256686,2.451539,-0.684529,9.20,1,RUN
1759224755.74468,5.51654,7.735217,1.185878,0.683972,1.273957,0.02442,9.22,1,RUN
1759224755.76535,10.474034,0.589722,-1.926135,0.617004,1.097783,0.594146,9.24,1,RUN
1759224755.78534,11.505635,-4.970063,1.842787,-0.241952,0.209365,0.803913,9.26,1,RUN
1759224755.80504,8.490737,-6.173898,3.068469,-0.638443,-0.61515,0.780547,9.28,1,RUN
1759224755.82534,4.52534,-6.607548,2.058116,-0.60905,-1.150931,1.032729,9.30,1,RUN
1759224755.84470,0.997335,-6.557868,-1.151761,-0.443841,-1.68373,1.436242,9.32,1,RUN
1759224755.86534,0.488716,-2.876334,-2.083255,-0.680602,0.765304,1.061302,9.34,1,RUN
1759224755.88533,-5.69805,6.133795,1.143082,-0.513365,-1.150817,-0.487715,9.36,1,RUN
1759224755.90505,-10.918757,10.12867,3.171569,-1.090471,-7.005087,-2.655978,9.38,1,RUN
1759224755.92438,-6.570138,14.420726,3.760842,-1.379397,-7.213116,-2.515253,9.40,1,RUN
1759224755.94471,-0.662595,10.812364,0.051176,-0.203962,-3.841079,-0.902347,9.42,1,RUN
1759224755.96535,8.70008,31.937004,13.446585,-1.246951,2.4408,3.065375,9.44,1,RUN
1759224755.98534,-10.68218,18.435353,-15.502306,2.328839,-2.197083,0.552763,9.46,1,RUN
1759224756.00509,4.541202,-0.450858,-8.66686,2.679258,0.56399,-1.573379,9.48,1,RUN
1759224756.02536,7.907001,5.491401,4.820126,0.405377,0.476255,-0.001846,9.50,1,RUN
1759224756.04474,12.214768,13.097331,11.244218,-1.239516,-2.232073,2.7776,9.52,1,RUN
1759224756.06534,15.300894,32.902915,4.062062,0.445113,-2.200903,5.138333,9.54,1,RUN
1759224756.08534,4.501698,32.592566,4.753238,-1.407058,7.722159,4.241933,9.56,1,RUN
1759224756.10510,-4.287866,24.672398,-1.725172,-4.477772,8.813189,3.886976,9.58,1,RUN
1759224756.12535,-11.17329,13.729849,-19.846136,-2.140474,-3.106747,2.201333,9.60,1,RUN
1759224756.14476,-4.076577,7.582137,-12.16434,-0.148129,1.111826,1.563217,9.62,1,RUN
1759224756.16535,-0.944961,6.716484,3.469946,-0.569867,-0.640452,1.214602,9.64,1,RUN
1759224756.18519,-5.00882,3.175609,-3.248782,-0.02241,0.450954,0.787729,9.66,1,RUN
1759224756.20511,-7.523031,1.702128,-0.457293,0.415314,1.364608,0.122165,9.68,1,RUN
1759224756.22529,-8.119486,-1.643171,1.861791,0.498195,1.53828,-0.794616,9.70,1,RUN
1759224756.24477,-6.068703,-2.942025,-0.817321,0.425818,0.904633,-1.575079,9.72,1,RUN
1759224756.26534,-4.504391,-2.653224,-3.446154,0.83682,0.764912,-1.950964,9.74,1,RUN
1759224756.28534,-1.754202,-1.360056,-4.97979,1.590161,0.837352,-1.849395,9.76,1,RUN
1759224756.30513,1.591396,2.302324,-4.334253,2.35203,0.384698,-1.582431,9.78,1,RUN
1759224756.32535,0.922366,3.305345,-0.369306,3.062176,-0.730184,-1.60728,9.80,1,RUN
1759224756.34479,-1.1769,10.110115,2.317138,3.10045,-1.082868,-1.899833,9.82,1,RUN
1759224756.36534,0.07826,31.22009,4.911705,1.903406,1.93547,-2.089915,9.84,1,RUN
1759224756.40519,1.997213,24.976162,-1.25097,-0.734214,-3.607123,-2.307664,9.88,1,RUN
1759224756.42536,11.680113,18.640057,-1.785027,-0.72975,-1.142216,-2.907773,9.90,1,RUN
1759224756.44480,-4.097826,16.008979,-6.079028,-0.419075,0.894762,-2.076068,9.92,1,RUN
1759224756.46534,-1.99437,16.67741,-2.106598,0.348151,3.050465,-0.852425,9.94,1,RUN
1759224756.48510,4.092738,7.577499,3.427599,0.641547,2.242561,-0.031812,9.96,1,RUN
1759224756.50516,8.84463,1.367089,1.713051,0.850311,1.812131,0.41409,9.98,1,RUN
1759224756.52535,9.907356,-3.005172,1.624765,0.33673,1.918943,1.147238,10.00,1,RUN
1759224756.54481,8.303391,-7.083096,3.871424,-0.225784,0.413901,1.243343,10.02,1,RUN
1759224756.56534,4.955249,-8.606407,4.444835,-1.229791,-0.915911,1.315249,10.04,1,RUN
1759224756.58531,0.430358,-8.056638,3.029413,-1.58984,-1.493804,1.362929,10.06,1,RUN
1759224756.60518,-1.710956,-2.904466,-1.662025,-1.243169,-2.14469,0.817051,10.08,1,RUN
1759224756.62534,-6.300192,9.267955,-7.726538,-0.093436,-0.221372,-0.860368,10.10,1,RUN
1759224756.64483,-4.832247,17.807174,1.740585,-1.34593,-4.346987,-2.237535,10.12,1,RUN
1759224756.66534,-5.638495,10.961553,2.254889,-1.03332,-6.823935,-2.137889,10.14,1,RUN
1759224756.68534,8.99741,20.400693,6.679074,0.424712,-5.878122,0.137496,10.16,1,RUN
1759224756.70518,2.438045,20.917841,-12.195614,0.446809,0.714933,0.607991,10.18,1,RUN
1759224756.72534,4.746654,6.717681,-2.8283,2.314177,0.385196,-1.316425,10.20,1,RUN
1759224756.74485,5.343409,2.842965,5.267393,0.205574,-0.704098,0.526809,10.22,1,RUN
1759224756.76534,7.630321,7.227796,8.147917,-1.23847,-2.351103,2.557589,10.24,1,RUN
1759224756.78533,15.38933,29.5645,7.445967,-0.56402,-2.889791,6.58535,10.26,1,RUN
1759224756.80519,2.243666,40.37881,2.711134,1.672758,6.415345,4.828259,10.28,1,RUN
1759224756.82532,-4.442441,30.041994,0.218022,-4.759135,11.736944,4.174465,10.30,1,RUN
1759224756.84486,-12.774263,13.990517,-19.330186,-1.803106,-3.272883,1.888608,10.32,1,RUN
1759224756.86534,-2.681506,8.544307,-0.882712,-0.940266,0.464496,1.572856,10.34,1,RUN
1759224756.88534,-1.133654,3.728969,-5.028721,-1.081966,0.363029,1.318727,10.36,1,RUN
1759224756.90522,-2.903718,2.970755,-4.77344,-0.597886,0.867204,1.053255,10.38,1,RUN
1759224756.92533,-7.930943,2.589628,-0.230442,-0.017758,1.923783,0.277228,10.40,1,RUN
1759224756.94488,-9.03467,-1.566706,1.253365,0.195737,2.058883,-0.699009,10.42,1,RUN
1759224756.96534,-7.06903,-3.19177,-3.046173,0.600127,0.777438,-1.457855,10.44,1,RUN
1759224756.98533,-4.115483,-1.994669,-5.593454,1.122579,0.440087,-1.750373,10.46,1,RUN
1759224757.00523,1.63524,1.522862,-4.114585,1.839636,0.833727,-1.633215,10.48,1,RUN
1759224757.02532,2.778621,2.252495,-2.697517,2.413836,0.442038,-1.2312,10.50,1,RUN
1759224757.04489,-0.239121,4.189254,-0.472855,3.053843,0.296728,-1.385074,10.52,1,RUN
1759224757.06534,-2.854038,12.362909,1.550246,3.480997,0.116874,-1.907438,10.54,1,RUN
1759224757.08533,-2.619257,27.543494,6.770054,1.925192,0.731762,-3.070566,10.56,1,RUN
1759224757.10525,6.025457,57.695621,6.493673,0.614073,-2.860485,-2.536647,10.58,1,RUN
1759224757.12532,3.186383,33.750911,0.817171,-0.245464,-2.765603,-2.589337,10.60,1,RUN
1759224757.14491,15.754296,23.696761,1.70961,-0.319283,-1.420501,-2.213158,10.62,1,RUN
1759224757.16531,5.000141,9.232491,-3.90614,-0.417313,-0.038909,-1.593805,10.64,1,RUN
1759224757.18532,-1.067964,11.358991,-1.848024,-0.186724,2.916065,-0.910747,10.66,1,RUN
1759224757.20525,0.192584,11.090391,1.697489,0.080319,2.101019,-0.336746,10.68,1,RUN
1759224757.22532,4.747253,4.605397,0.665887,0.735265,0.85833,-0.088001,10.70,1,RUN
1759224757.24493,10.459519,-2.092383,0.048632,0.35475,0.25368,0.52779,10.72,1,RUN
1759224757.26532,10.525509,-6.952013,2.386421,-0.069998,-0.182259,1.013662,10.74,1,RUN
1759224757.28532,8.224831,-8.626159,3.023278,-0.351535,-0.378619,1.264927,10.76,1,RUN
1759224757.30529,1.683573,-8.540566,3.007117,-0.362708,-0.749255,1.573417,10.78,1,RUN
1759224757.32532,0.019154,-4.088399,0.233734,-0.396859,-0.123786,1.189887,10.80,1,RUN
1759224757.34494,0.197222,3.700688,0.062698,-0.95191,1.327497,0.491916,10.82,1,RUN
1759224757.36506,-12.372336,14.030022,1.747468,-0.891478,-5.001925,-1.995389,10.84,1,RUN
1759224757.38467,-9.131784,16.486323,4.328567,-2.47243,-8.158235,-2.774685,10.86,1,RUN
1759224757.40531,-1.568651,12.413936,0.553509,-0.817353,-3.744092,-1.241267,10.88,1,RUN
1759224757.42536,9.806351,35.121592,5.616049,0.349672,0.027963,2.022573,10.90,1,RUN
1759224757.44496,-2.435053,7.191434,-21.369447,4.147162,2.381931,-0.462758,10.92,1,RUN
1759224757.46534,6.510433,1.72173,4.547487,1.240458,1.824198,-0.307942,10.94,1,RUN
1759224757.48533,7.658453,7.656058,8.145373,-0.890786,-0.181393,1.682445,10.96,1,RUN
1759224757.50532,13.646201,23.506422,8.85705,-2.150825,-4.339559,5.658741,10.98,1,RUN
1759224757.52535,7.840113,37.238664,0.710629,0.900677,0.662944,4.50557,11.00,1,RUN
1759224757.54497,1.246481,31.057434,-2.086996,-3.129711,10.481202,3.965854,11.02,1,RUN
1759224757.56533,-14.478935,16.461034,-17.806127,-2.740715,0.122185,2.464783,11.04,1,RUN
1759224757.58533,-6.519561,8.266879,-11.590181,-0.55655,0.074717,1.735848,11.06,1,RUN
1759224757.60533,-0.186897,5.902006,0.026785,-0.6831,-0.398301,1.483073,11.08,1,RUN
1759224757.62534,-2.517204,3.036147,-3.319561,0.038682,0.144728,0.973231,11.10,1,RUN
1759224757.64499,-6.819285,0.525228,0.192434,0.576193,1.006645,0.452979,11.12,1,RUN
1759224757.66533,-7.932289,-3.132663,1.993771,0.732564,1.185403,-0.489886,11.14,1,RUN
1759224757.68531,-6.401946,-3.197606,-1.654094,0.693451,0.554305,-1.344855,11.16,1,RUN
1759224757.70533,-5.238813,-1.774552,-3.742736,0.962647,0.5686,-1.796742,11.18,1,RUN
1759224757.72533,-1.141436,0.031274,-4.400842,1.602259,0.780929,-1.562094,11.20,1,RUN
1759224757.74501,0.909797,1.714248,-3.388843,2.302545,0.225376,-1.44435,11.22,1,RUN
1759224757.76533,0.353444,5.114164,0.525976,3.041292,-0.81447,-1.742197,11.24,1,RUN
1759224757.78533,-1.144728,17.229872,1.07365,2.603541,-0.152832,-2.096761,11.26,1,RUN
1759224757.80533,3.397372,37.433343,3.739294,1.401331,0.545006,-2.124755,11.28,1,RUN
1759224757.82535,6.872406,52.700718,4.270208,0.595708,-2.030718,-2.15411,11.30,1,RUN
1759224757.84503,3.558981,35.511398,0.108637,-0.025259,-2.176705,-3.014274,11.32,1,RUN
1759224757.86532,6.644359,16.081853,-3.409642,0.102405,-1.062981,-2.193673,11.34,1,RUN
1759224757.88531,-0.44577,12.426206,-1.707066,0.13742,2.946473,-1.362608,11.36,1,RUN
1759224757.90531,-0.958728,12.675951,2.439841,0.583779,2.571769,-0.907427,11.38,1,RUN
1759224757.92531,3.181295,6.691494,0.884209,1.2437,1.608504,-0.348098,11.40,1,RUN
1759224757.94504,4.493168,2.745102,0.807893,1.312941,1.28699,-0.263075,11.42,1,RUN
1759224757.96533,9.053075,-3.728371,-0.024092,0.417499,1.548919,0.049555,11.44,1,RUN
1759224757.98535,9.837326,-8.934263,4.80202,-0.184643,0.762791,0.477888,11.46,1,RUN
1759224758.00533,6.050297,-12.663381,6.934356,-1.625376,-0.970976,0.883617,11.48,1,RUN
1759224758.02535,0.565929,-10.784232,0.810288,-0.71351,-0.84812,0.838734,11.50,1,RUN
1759224758.04506,1.915062,-2.340931,-0.859369,-0.281867,0.039427,0.981819,11.52,1,RUN
1759224758.06533,1.441908,4.717176,-3.711162,-0.220573,1.43751,0.653161,11.54,1,RUN
1759224758.08509,-9.853487,12.439673,4.161422,-0.755044,-5.834836,-1.484971,11.56,1,RUN
1759224758.10533,-8.495076,16.010027,6.190358,-2.587723,-9.842845,-2.290402,11.58,1,RUN
1759224758.12534,3.181744,19.490896,-4.177283,-1.085494,-4.305388,-0.150112,11.60,1,RUN
1759224758.14507,5.559336,36.146011,-3.959112,1.832728,2.099616,2.028688,11.62,1,RUN
1759224758.16533,3.083732,4.603152,-1.244237,2.066928,1.529652,-0.798788,11.64,1,RUN
1759224758.18533,3.043629,0.779911,3.763386,0.489634,0.818012,0.04684,11.66,1,RUN
1759224758.20533,5.931784,4.475661,10.966341,-1.8857,-2.218968,1.543818,11.68,1,RUN
1759224758.22534,17.019931,21.885098,9.528773,-3.032715,-4.089335,5.873866,11.70,1,RUN
1759224758.24510,7.26326,37.363313,-2.847903,1.377342,3.803764,6.706491,11.72,1,RUN
1759224758.26477,-2.41141,34.860624,0.681599,-2.82152,14.135879,5.095588,11.74,1,RUN
1759224758.28533,-11.638214,18.18067,-17.182138,-2.642028,-0.149492,2.26008,11.76,1,RUN
1759224758.30533,-0.104746,8.790162,-6.039374,-0.787459,-1.59695,1.783036,11.78,1,RUN
1759224758.32534,-1.828272,4.861277,-3.964648,-0.672513,0.255392,1.338728,11.80,1,RUN
1759224758.34511,-5.071218,2.100014,-4.50903,0.195583,-0.167306,0.665895,11.82,1,RUN
1759224758.36532,-6.7304,1.179294,-2.526032,0.798549,0.573103,0.19493,11.84,1,RUN
1759224758.38533,-8.765172,-0.736965,0.159813,0.849595,1.667827,-0.561365,11.86,1,RUN
1759224758.40533,-8.465149,-0.907253,0.091279,0.730358,1.629607,-1.622253,11.88,1,RUN
1759224758.42532,-5.888689,-1.078438,-2.961179,0.929427,1.388245,-2.305986,11.90,1,RUN
1759224758.44512,-3.15062,-1.331775,-5.840206,1.794358,0.442568,-2.318051,11.92,1,RUN
1759224758.46533,-0.452953,1.158494,-5.083489,2.717684,1.005768,-1.69039,11.94,1,RUN
1759224758.48532,0.138116,4.236241,4.791845,3.220952,-0.159011,-2.065731,11.96,1,RUN
1759224758.50535,-3.044377,15.402049,3.235913,3.401051,-0.641509,-2.560113,11.98,1,RUN
1759224758.52507,-3.288137,40.627358,8.409783,0.633164,-0.140955,-3.683024,12.00,1,RUN
1759224758.56532,12.405107,42.055499,-2.329857,0.440292,-0.826212,-3.07024,12.04,1,RUN
1759224758.58523,12.20968,11.63986,0.915782,0.577108,-1.348415,-1.838669,12.06,1,RUN
1759224758.60513,0.116268,8.068759,-0.166098,-0.48539,3.990207,-1.610457,12.08,1,RUN
1759224758.62535,-2.135628,14.232182,3.064877,0.136814,3.505854,-1.254173,12.10,1,RUN
1759224758.64515,1.49473,7.84101,-0.320524,1.684374,0.875282,-0.238882,12.12,1,RUN
1759224758.66531,8.605808,-1.017985,-3.545364,1.279607,0.587212,0.306438,12.14,1,RUN
1759224758.68532,13.854646,-7.075464,3.188478,0.120925,0.550391,1.042102,12.16,1,RUN
1759224758.70464,15.222484,-13.122919,15.392023,-2.046671,-2.018769,1.937817,12.18,1,RUN
1759224758.72532,0.60693,-13.804967,-0.258574,-1.633048,-1.119373,1.549598,12.20,1,RUN
1759224758.74517,0.143054,-3.41069,0.08679,-0.299533,-1.500835,1.574981,12.22,1,RUN
1759224758.76532,1.02397,1.217601,-5.588815,-0.063391,1.064613,1.310167,12.24,1,RUN
1759224758.78533,-13.012037,12.218359,2.683451,-0.055783,-0.261519,-0.842908,12.26,1,RUN
1759224758.80532,-12.672958,22.366183,5.702988,-2.087299,-7.207661,-3.511992,12.28,1,RUN
1759224758.82532,-9.644592,16.960824,5.064634,-2.054885,-7.704867,-3.354902,12.30,1,RUN
1759224758.84518,13.389573,42.306441,0.935235,1.50807,-3.228519,1.178607,12.32,1,RUN
1759224758.86530,0.614711,2.662203,-24.785823,4.208287,6.183825,0.107587,12.34,1,RUN
1759224758.88529,7.286304,-0.079308,12.889035,0.621456,2.206564,0.53971,12.36,1,RUN
1759224758.90532,5.41748,2.323273,14.669872,-3.595674,-4.209307,1.983711,12.38,1,RUN
1759224758.92537,9.337237,10.043975,1.092504,-3.682314,-4.485413,4.188836,12.40,1,RUN
1759224758.94520,15.997756,41.000853,-7.914034,1.400183,-1.157281,7.965056,12.42,1,RUN
1759224758.96531,1.546954,43.957243,-1.993622,1.652878,13.13942,6.661989,12.44,1,RUN
1759224758.98531,-13.201478,21.067329,3.548955,-5.057981,6.197623,3.035043,12.46,1,RUN
1759224759.00532,-7.471406,7.13921,-14.458883,-1.759184,-2.092833,0.886336,12.48,1,RUN
1759224759.02532,1.841141,6.045359,-6.080973,-1.141919,-0.439638,1.283269,12.50,1,RUN
1759224759.04521,-2.309058,2.627187,-7.054216,-0.109465,0.229076,1.066455,12.52,1,RUN
1759224759.06532,-8.493131,2.386271,-2.403479,1.074551,-0.354406,0.490668,12.54,1,RUN
1759224759.08531,-9.001001,0.153977,0.99943,0.875291,0.862709,-0.251404,12.56,1,RUN
1759224759.10512,-7.642292,-0.293439,1.045518,0.722612,1.377612,-1.221531,12.58,1,RUN
1759224759.12534,-5.862352,-1.096245,-2.648586,0.58949,1.317413,-1.784955,12.60,1,RUN
1759224759.14523,-1.194856,-0.751181,-8.423699,1.550559,0.4223,-1.452713,12.62,1,RUN
1759224759.16531,3.428497,1.547851,-3.947739,2.282373,0.826497,-0.947123,12.64,1,RUN
1759224759.18529,1.181987,2.18022,1.006313,2.420786,0.662291,-0.904902,12.66,1,RUN
1759224759.20532,-0.004938,7.583783,0.484676,3.676357,-1.40255,-1.340062,12.68,1,RUN
1759224759.22532,-0.426018,28.031463,3.505411,3.919605,-0.034761,-2.420652,12.70,1,RUN
1759224759.26532,5.896769,25.533562,5.124489,0.724927,-3.659951,-4.318096,12.74,1,RUN
1759224759.28532,11.550377,24.835952,4.073136,-1.601892,-4.856428,-4.541417,12.76,1,RUN
1759224759.30532,3.830274,11.099968,-8.021922,-0.882286,-1.3972,-2.401457,12.78,1,RUN
1759224759.32530,-3.073706,7.984663,-2.677316,0.509864,3.062598,-1.082067,12.80,1,RUN
1759224759.34527,-1.959504,6.183774,5.462221,0.208544,4.05848,-0.340482,12.82,1,RUN
1759224759.36531,5.740697,1.505205,5.788431,0.63555,1.53511,0.134009,12.84,1,RUN
1759224759.38531,10.267983,-3.717148,2.302025,1.058098,0.983261,0.478591,12.86,1,RUN
1759224759.40531,12.617443,-7.702296,7.214927,-0.472101,0.021876,0.684799,12.88,1,RUN
1759224759.42532,6.584204,-11.956793,-5.529109,-0.924227,-1.077134,0.661447,12.90,1,RUN
1759224759.44528,3.812317,-8.730307,1.561169,-0.048998,-1.83409,0.900939,12.92,1,RUN
1759224759.46532,4.936245,-0.698808,-7.643788,0.001402,1.384017,1.007103,12.94,1,RUN
1759224759.48530,-5.972635,8.893112,1.357961,-0.339843,-0.608945,-0.681662,12.96,1,RUN
1759224759.50434,-13.431172,14.665682,11.006295,-2.175183,-12.618466,-3.49684,12.98,1,RUN
1759224759.52535,2.038812,23.809438,4.475212,-3.342434,-5.782638,-1.321509,13.00,1,RUN
1759224759.54528,8.846276,26.340408,7.240964,0.056043,3.038833,2.019184,13.02,1,RUN
1759224759.56531,-0.069282,7.671471,-13.423541,4.261305,-0.864621,1.144814,13.04,1,RUN
1759224759.58442,5.855469,5.651962,1.483806,0.733156,4.335223,1.751251,13.06,1,RUN
1759224759.60536,14.609119,15.328278,10.969633,-2.186172,1.611598,4.751036,13.08,1,RUN
1759224759.62532,8.07654,22.648848,6.870461,-1.609276,-3.273695,5.578043,13.10,1,RUN
1759224759.64528,10.330531,39.099408,4.481347,-2.324635,3.441469,4.10023,13.12,1,RUN
1759224759.66529,-12.706327,29.781175,-13.050943,-4.104264,2.634063,2.739484,13.14,1,RUN
1759224759.68530,-8.349778,14.968399,-10.102484,-1.861214,-0.601969,1.847445,13.16,1,RUN
1759224759.70531,-2.769193,7.698107,-3.998167,-1.24426,-0.081745,2.225322,13.18,1,RUN
1759224759.72531,-5.283105,2.540697,-6.934955,-0.558465,0.457791,1.250726,13.20,1,RUN
1759224759.74528,-7.11841,4.853196,-2.858078,0.482978,0.505196,0.599199,13.22,1,RUN
1759224759.76531,-7.929147,2.39495,-0.115371,0.592053,0.820115,0.055081,13.24,1,RUN
1759224759.78536,-9.014319,-0.461482,-1.079186,0.716586,1.482026,-0.828965,13.26,1,RUN
1759224759.80516,-7.103896,-1.533785,-1.774552,0.928967,1.820075,-1.914581,13.28,1,RUN
1759224759.82532,-3.137302,-2.074725,-3.777601,1.627439,1.136665,-2.207767,13.30,1,RUN
1759224759.84528,2.627337,-1.642123,-7.17647,2.27041,0.33913,-1.418708,13.32,1,RUN
1759224759.86529,2.281674,2.222118,-0.516699,2.720317,0.298124,-1.206115,13.34,1,RUN
1759224759.88528,0.06599,5.666776,1.557578,3.483425,-1.174899,-1.520238,13.36,1,RUN
1759224759.90510,-1.91162,11.325921,0.871639,3.7169,-1.435893,-1.919286,13.38,1,RUN
1759224759.92528,-0.530316,38.856546,5.022287,2.489701,1.135108,-2.540192,13.40,1,RUN
1759224759.96530,-1.591097,30.208241,-0.106243,-0.501868,-4.124044,-4.037624,13.44,1,RUN
1759224759.98530,13.351415,18.506431,-1.655291,-0.691153,-1.768142,-3.307527,13.46,1,RUN
1759224760.00530,-0.115371,8.302642,-2.732233,-0.15229,2.28547,-2.545202,13.48,1,RUN
1759224760.02531,-3.613299,7.809886,-0.22281,0.61722,4.569066,-1.350984,13.50,1,RUN
1759224760.04527,1.774403,2.870648,5.348796,0.617081,2.914222,0.057719,13.52,1,RUN
1759224760.06530,7.306804,-2.383278,5.149628,0.610281,0.923338,0.554161,13.54,1,RUN
1759224760.08530,12.736405,-7.047781,1.14802,0.20405,1.37494,0.693393,13.56,1,RUN
1759224760.10529,13.365182,-10.765827,7.251738,-1.040213,0.091145,0.698184,13.58,1,RUN
1759224760.12530,7.454197,-14.946851,-3.246986,-1.554948,-1.509914,1.256493,13.60,1,RUN
1759224760.14485,3.749021,-7.208193,-0.171036,-0.467825,-1.594956,1.044799,13.62,1,RUN
1759224760.16529,1.073949,2.060809,-7.428011,-0.188678,0.62403,0.357303,13.64,1,RUN
1759224760.18531,-10.002975,16.004789,0.122254,-0.26841,0.280321,-1.491061,13.66,1,RUN
1759224760.20530,-16.270396,15.234604,5.937321,-1.705962,-10.268737,-4.502634,13.68,1,RUN
1759224760.22530,-3.657891,19.746328,6.077232,-2.552304,-6.900868,-3.247874,13.70,1,RUN
1759224760.26530,0.457143,1.37487,-21.838561,4.738467,5.51795,-0.989923,13.74,1,RUN
1759224760.28530,11.02051,-0.32636,22.236148,-0.241591,1.038752,0.400613,13.76,1,RUN
1759224760.30530,8.426243,1.393575,9.678411,-4.622383,-4.594497,2.628981,13.78,1,RUN
1759224760.32529,26.645968,9.430162,-19.069816,-1.578767,-0.862473,5.525225,13.80,1,RUN
1759224760.34527,9.321525,23.89937,-0.282217,0.854597,0.428757,6.421609,13.82,1,RUN
1759224760.36529,1.989282,45.064412,2.706346,0.873244,9.903322,5.873539,13.84,1,RUN
1759224760.38530,-16.316784,29.24248,-0.338181,-4.15827,3.369504,2.643675,13.86,1,RUN
1759224760.40530,-11.118373,8.377012,-9.538499,-2.572207,-3.45046,0.677393,13.88,1,RUN
1759224760.42531,-4.103512,4.918738,-7.866898,-0.741571,-0.578074,0.777728,13.90,1,RUN
1759224760.44485,-3.977966,0.619649,-7.767838,-0.207484,-0.403977,0.359085,13.92,1,RUN
1759224760.46530,-8.043769,1.966687,-2.278233,0.484701,0.029832,0.243568,13.94,1,RUN
1759224760.48529,-6.714389,-0.894983,0.741604,0.695787,0.833623,-0.158761,13.96,1,RUN
1759224760.50484,-6.116287,-2.090587,-1.174206,0.706205,0.780775,-0.688693,13.98,1,RUN
1759224760.52530,-5.93747,-0.875829,-2.1473,0.745817,0.702571,-1.435677,14.00,1,RUN
1759224760.54526,-3.821894,0.064045,-5.859509,1.398839,-0.098631,-1.743108,14.02,1,RUN
1759224760.56531,1.393425,1.660528,-7.032818,2.416916,0.156787,-1.409104,14.04,1,RUN
1759224760.58529,0.253785,3.584868,2.817975,3.231686,-0.58769,-1.532126,14.06,1,RUN
1759224760.60485,-3.113061,12.870929,2.133832,3.96593,-0.256788,-2.426192,14.08,1,RUN
1759224760.62529,1.088913,49.196205,8.436418,1.960985,1.04823,-2.838687,14.10,1,RUN
1759224760.66531,-4.607791,25.541643,-0.753725,-0.888035,-2.030519,-5.155548,14.14,1,RUN
1759224760.68530,8.902989,19.147628,-2.664298,-0.318845,-0.266237,-3.224958,14.16,1,RUN
1759224760.70455,0.68953,10.19885,-0.886304,0.960532,3.402072,-1.563791,14.18,1,RUN
1759224760.72529,-1.431882,8.298453,2.715025,0.489449,4.426432,-0.530425,14.20,1,RUN
1759224760.74527,5.187636,4.056975,4.16217,0.605871,2.908199,0.349761,14.22,1,RUN
1759224760.76529,9.01387,-2.537704,1.013346,1.193732,1.954485,0.503937,14.24,1,RUN
1759224760.78529,13.259238,-8.713996,1.190816,0.596352,1.688102,0.755626,14.26,1,RUN
1759224760.80485,13.38658,-13.51452,6.048502,-1.334609,-1.295443,1.64866,14.28,1,RUN
1759224760.82529,2.032528,-13.281834,1.303942,-1.239528,-1.338485,1.014913,14.30,1,RUN
1759224760.84527,-0.632967,-7.394043,1.694496,-0.900416,-1.517478,0.845423,14.32,1,RUN
1759224760.86529,2.77069,3.491644,-3.707571,-0.890987,1.267888,0.888322,14.34,1,RUN
1759224760.88534,-10.361955,12.478729,0.845901,-0.431801,-1.126305,-1.069495,14.36,1,RUN
1759224760.90487,-10.431686,14.154071,5.039645,-1.825906,-8.183153,-3.483396,14.38,1,RUN
1759224760.92529,-3.639785,12.654852,1.898153,-2.405885,-7.506212,-2.544197,14.40,1,RUN
1759224760.94526,7.634959,56.474429,16.18181,-1.422431,-0.139014,1.898154,14.42,1,RUN
1759224760.96528,-9.169343,16.47929,-27.552173,4.965598,0.845156,-0.751722,14.44,1,RUN
1759224760.98529,3.714454,-0.216226,3.698443,1.490571,4.171154,-0.604932,14.46,1,RUN
1759224761.00431,13.745261,2.824859,25.226805,-3.361296,-2.349135,1.485779,14.48,1,RUN
1759224761.02528,39.347657,11.459547,-29.251308,-0.856367,-0.1781,6.639841,14.50,1,RUN
1759224761.04526,5.692214,16.531065,7.47769,0.535675,-1.514549,6.698298,14.52,1,RUN
1759224761.06528,1.715894,44.721742,2.826056,-1.076836,10.040339,4.507689,14.54,1,RUN
1759224761.08529,-17.448343,34.118122,3.389591,-4.102977,-0.091673,1.784848,14.56,1,RUN
1759224761.10484,-13.230957,12.560431,-7.928548,-2.889076,-5.600268,-0.107052,14.58,1,RUN
1759224761.12531,-6.711396,4.848258,-15.064317,-1.146715,-0.512624,0.2085,14.60,1,RUN
1759224761.14526,1.082179,1.998859,-4.356549,-0.616807,-0.121221,1.319506,14.62,1,RUN
1759224761.16528,-7.200561,1.119589,-2.197877,0.288264,-0.381942,1.054734,14.64,1,RUN
1759224761.18528,-9.070433,-2.948759,1.502212,0.213482,0.563582,0.083302,14.66,1,RUN
1759224761.20483,-7.142352,-2.908805,-2.656666,0.549846,0.896574,-0.724975,14.68,1,RUN
1759224761.22531,-7.146842,-1.249175,-2.464382,0.717511,0.779447,-1.56136,14.70,1,RUN
1759224761.24483,-4.932654,0.542586,-3.899706,1.14664,0.746945,-1.929983,14.72,1,RUN
1759224761.26528,1.43697,1.989432,-6.208763,2.06322,0.286437,-1.240541,14.74,1,RUN
1759224761.28528,0.35494,2.499696,-0.459537,2.93913,0.348084,-1.347984,14.76,1,RUN
1759224761.30485,-1.236904,6.977751,2.294393,3.330602,-0.483308,-1.635164,14.78,1,RUN
1759224761.32534,-2.946963,24.341998,6.34643,3.079128,0.304392,-1.969622,14.80,1,RUN
1759224761.36529,4.694581,32.605136,-4.615871,0.445703,-2.658329,-2.540349,14.84,1,RUN
1759224761.38529,12.046725,22.046258,4.731242,-0.099208,-2.073857,-3.156085,14.86,1,RUN
1759224761.40484,0.270246,11.563096,-4.8104,-0.226687,0.38756,-2.491082,14.88,1,RUN
1759224761.42529,-2.88606,11.564593,0.12794,0.459159,3.266284,-1.481192,14.90,1,RUN
1759224761.44526,1.287482,8.251766,3.001281,0.604976,3.078489,-0.246699,14.92,1,RUN
1759224761.46529,6.308123,1.946187,3.548207,1.07235,1.910949,0.317973,14.94,1,RUN
1759224761.48529,11.497555,-3.393631,2.454206,1.035484,1.43333,1.22578,14.96,1,RUN
1759224761.50483,12.736554,-10.997765,6.147861,-0.333385,0.072737,1.593289,14.98,1,RUN
1759224761.52528,4.417452,-12.227936,-2.09358,-1.374071,-0.455042,1.351118,15.00,1,RUN
1759224761.54525,-1.498321,-9.000403,3.290381,-1.222623,-1.763343,1.01529,15.02,1,RUN
1759224761.56528,-0.589722,-5.556344,-1.803283,-0.567302,-1.441681,0.930097,15.04,1,RUN
1759224761.58526,0.120907,2.918981,-4.882675,-0.261097,1.499719,0.680411,15.06,1,RUN
1759224761.60483,-7.10225,10.280702,1.556381,-0.377446,-4.593264,-1.265063,15.08,1,RUN
1759224761.62527,-5.378275,16.105196,7.273884,-3.278162,-8.446065,-2.223281,15.10,1,RUN
1759224761.64525,6.448932,31.349826,0.710779,-0.999972,-5.421213,0.171223,15.12,1,RUN
1759224761.66427,-3.421464,39.864505,0.996287,-0.200567,1.048224,1.155532,15.14,1,RUN
1759224761.68528,3.035997,2.626888,-12.720543,2.978405,2.875672,-1.76173,15.16,1,RUN
1759224761.70487,5.73935,1.599925,11.855338,0.873584,0.860597,-0.616606,15.18,1,RUN
1759224761.72527,8.762479,6.900538,10.672154,-2.916534,-2.719064,1.900557,15.20,1,RUN
1759224761.74525,17.597831,24.122779,1.959804,-1.80837,-3.413409,5.321113,15.22,1,RUN
1759224761.76526,10.509498,38.353913,-8.343045,0.598425,7.070023,5.654169,15.24,1,RUN
1759224761.78525,-8.553734,27.488577,-4.573823,-2.735136,9.251711,4.962153,15.26,1,RUN
1759224761.80482,-16.839767,18.775928,-5.171924,-2.164263,0.425864,2.945874,15.28,1,RUN
1759224761.82526,-3.507505,8.391228,-5.233426,-1.896569,-1.447055,1.565342,15.30,1,RUN
1759224761.84525,-3.145682,2.062006,-7.553557,-0.784345,0.024865,1.170561,15.32,1,RUN
1759224761.86525,-5.942409,3.148226,-3.223793,0.002103,0.755486,0.807254,15.34,1,RUN
1759224761.88525,-9.319729,-0.116867,0.651821,0.533763,1.175811,0.183554,15.36,1,RUN
1759224761.90482,-9.860071,-1.065869,1.265036,0.764821,0.620118,-0.522061,15.38,1,RUN
1759224761.92527,-7.838467,-1.732055,-1.246631,0.71591,-0.257614,-1.786322,15.40,1,RUN
1759224761.94525,-2.628235,-0.441132,-6.46225,1.270607,-0.094676,-1.863408,15.42,1,RUN
1759224761.96528,0.395642,2.077419,-6.008249,2.145442,1.026445,-1.275843,15.44,1,RUN
1759224761.98527,0.648679,1.66008,-1.146374,2.542022,1.065854,-1.385799,15.46,1,RUN
1759224762.00443,-0.373196,3.747375,1.29257,3.158354,-0.175542,-1.639179,15.48,1,RUN
1759224762.02528,-2.289755,11.72665,0.481085,3.914938,-1.654302,-2.180954,15.50,1,RUN
1759224762.04524,-3.056498,29.70501,8.445247,1.633536,0.744283,-2.686235,15.52,1,RUN
1759224762.06527,4.267664,56.496725,2.600253,0.102256,-3.304163,-2.101277,15.54,1,RUN
1759224762.08524,-4.653281,30.027179,-0.422277,-0.17891,-2.627711,-2.945215,15.56,1,RUN
1759224762.10482,8.466196,24.144925,1.250073,-0.362446,-1.001725,-3.128441,15.58,1,RUN
1759224762.12525,-0.22296,12.901156,-3.221398,-0.555476,2.174906,-2.679612,15.60,1,RUN
1759224762.14524,-3.623026,12.82499,-0.150835,-0.203917,4.048046,-1.735862,15.62,1,RUN
1759224762.16437,-1.064522,7.655161,3.051709,0.050187,2.799741,-0.385442,15.64,1,RUN
1759224762.18525,6.857143,1.803432,2.226159,0.514625,1.291794,0.584493,15.66,1,RUN
1759224762.20482,10.472088,-3.373729,0.386514,0.507673,0.967089,1.360456,15.68,1,RUN
1759224762.22525,10.378116,-8.948179,3.257461,-0.192163,0.292892,1.097748,15.70,1,RUN
1759224762.24524,8.689905,-11.444434,3.49329,-1.308526,-0.855731,1.0958,15.72,1,RUN
1759224762.26525,2.017414,-7.990199,0.754174,-0.66276,-1.077999,1.15657,15.74,1,RUN
1759224762.28525,0.299574,1.017835,-3.727024,-0.513142,0.555712,0.534743,15.76,1,RUN
1759224762.30481,-2.338985,9.395745,-5.848586,0.076333,1.837452,-0.240925,15.78,1,RUN
1759224762.32527,-7.411551,13.140426,0.343718,-0.207802,-5.607172,-1.884984,15.80,1,RUN
1759224762.34524,-9.397092,10.090513,7.099706,-1.969786,-10.074564,-2.749193,15.82,1,RUN
1759224762.36526,8.740781,28.066628,12.257415,-2.506758,-3.413096,0.443218,15.84,1,RUN
1759224762.38532,-15.499313,35.362658,-19.670611,2.950179,-1.721225,-0.028753,15.86,1,RUN
1759224762.40480,7.059753,1.704223,-2.282572,3.201902,3.468662,-0.529368,15.88,1,RUN
1759224762.42526,9.379884,0.826,20.028844,-1.661892,-0.113324,1.472241,15.90,1,RUN
1759224762.44439,5.459678,4.31091,4.143465,-3.776866,-2.989858,3.127523,15.92,1,RUN
1759224762.46527,16.061053,16.945411,-0.340725,-1.911472,-2.982962,5.598716,15.94,1,RUN
1759224762.48526,9.572168,37.544524,-7.113921,2.906705,3.05906,6.510104,15.96,1,RUN
1759224762.50481,-7.549367,33.921648,-5.955128,-0.94848,13.675954,5.661823,15.98,1,RUN
1759224762.52526,-11.938537,15.598673,2.059313,-2.219419,-2.016907,1.548053,16.00,1,RUN
1759224762.54499,-6.551733,9.212888,-5.127033,-2.003287,-2.236336,0.612687,16.02,1,RUN
1759224762.56527,-3.429694,3.181445,-6.954108,-1.253877,0.01007,0.974023,16.04,1,RUN
1759224762.58526,-4.569633,0.009577,-5.271733,-0.594095,0.741626,1.01038,16.06,1,RUN
1759224762.60482,-7.806594,1.16029,-0.265158,-0.011516,0.758414,0.616622,16.08,1,RUN
1759224762.62526,-8.835951,-1.549797,1.368286,0.041043,1.727253,-0.420578,16.10,1,RUN
1759224762.64523,-7.697059,-1.830218,-1.006762,0.202847,1.119266,-1.531161,16.12,1,RUN
1759224762.66443,-6.442946,0.177321,-4.446032,0.655049,0.632792,-2.163549,16.14,1,RUN
1759224762.68507,0.709282,4.086304,-7.617601,1.502669,0.502887,-1.445318,16.16,1,RUN
1759224762.70481,3.618985,3.755305,-5.370643,2.835474,0.098287,-1.004522,16.18,1,RUN
1759224762.72526,0.650175,5.46686,1.956661,3.57405,0.12607,-1.061259,16.20,1,RUN
1759224762.74440,-1.124527,15.366884,3.274071,3.617616,1.143036,-1.4107,16.22,1,RUN
1759224762.76526,1.92404,37.830481,4.080318,2.31687,1.459341,-1.354292,16.24,1,RUN
1759224762.78525,6.946626,54.905628,2.653823,1.028166,-2.532415,-1.757933,16.26,1,RUN
1759224762.80430,3.734356,28.822148,2.513912,0.063311,-3.261204,-3.895649,16.28,1,RUN
1759224762.82526,4.749647,19.659089,-0.556802,-0.676549,-1.68266,-3.217096,16.30,1,RUN
1759224762.84523,0.57805,14.052018,-1.194108,-0.485178,1.728971,-2.456721,16.32,1,RUN
1759224762.86525,0.465223,12.224943,0.770783,0.510036,2.886239,-1.205326,16.34,1,RUN
1759224762.88527,2.917185,7.036409,2.098667,1.376249,2.325148,-0.324526,16.36,1,RUN
1759224762.90481,8.05589,0.261866,3.081487,1.553545,1.854708,0.175715,16.38,1,RUN
1759224762.92475,12.667122,-6.51582,2.82411,0.869844,0.972763,0.698282,16.40,1,RUN
1759224762.94524,14.813973,-12.33358,9.354894,-0.882946,-1.636317,1.110085,16.42,1,RUN
1759224762.96525,3.002329,-14.858565,-1.096993,-1.832463,-1.841732,0.906779,16.44,1,RUN
1759224762.98509,-0.516998,-10.130017,1.515679,-1.754785,-2.0683,0.756356,16.46,1,RUN
1759224763.00483,2.210147,1.63105,-1.221641,-1.490683,0.218971,0.948472,16.48,1,RUN
1759224763.02526,-2.828001,7.525425,-4.322731,-0.84242,1.082349,0.482718,16.50,1,RUN
1759224763.04523,-10.509199,16.671275,2.407669,0.085826,-6.589158,-1.762963,16.52,1,RUN
1759224763.06526,-10.774207,28.564472,10.93402,-1.80661,-13.194256,-2.370717,16.54,1,RUN
1759224763.08525,15.67424,49.487999,7.702147,-1.877275,-0.328859,2.844287,16.56,1,RUN
1759224763.10486,-7.105392,1.732205,-35.630958,5.908895,5.782535,0.567991,16.58,1,RUN
1759224763.12527,6.071845,-0.287454,10.908132,2.136297,3.945373,0.726424,16.60,1,RUN
1759224763.14523,7.704541,3.043479,18.983775,-2.117233,-1.969163,1.685195,16.62,1,RUN
1759224763.16452,14.065486,15.102325,4.682759,-3.62793,-5.073926,4.079755,16.64,1,RUN
1759224763.18525,14.685883,36.067152,-9.894338,-0.005232,0.665257,3.647896,16.66,1,RUN
1759224763.20481,1.323994,29.60146,-4.031836,-1.46147,8.897328,5.146919,16.68,1,RUN
1759224763.22531,-15.061324,18.730139,1.653944,-2.088315,2.112237,2.535546,16.70,1,RUN
1759224763.24523,-11.208156,10.046369,-5.546767,-2.303164,-1.959768,0.524054,16.72,1,RUN
1759224763.26525,-4.263624,7.310844,-8.639626,-1.168235,-0.262724,0.64084,16.74,1,RUN
1759224763.28525,-1.271171,3.037344,-6.875998,-0.632087,0.588508,0.830228,16.76,1,RUN
1759224763.30481,-4.13748,3.250578,-2.714127,0.313178,0.077816,0.572987,16.78,1,RUN
1759224763.32529,-7.204302,0.63177,1.336713,0.436235,0.559806,0.011525,16.80,1,RUN
1759224763.34505,-7.662343,-2.382231,0.427215,0.572655,1.491635,-0.871002,16.82,1,RUN
1759224763.36522,-6.443096,-2.145953,-1.582567,0.486034,1.150701,-1.75446,16.84,1,RUN
1759224763.38524,-4.859481,-0.820613,-4.92996,1.053251,0.746212,-2.155771,16.86,1,RUN
1759224763.40477,0.944213,1.723526,-6.500706,2.350175,0.558537,-1.483522,16.88,1,RUN
1759224763.42524,0.716465,2.914941,0.575506,3.306132,0.460412,-1.415195,16.90,1,RUN
1759224763.44522,-0.985663,10.155904,3.677643,3.298418,0.224651,-1.607736,16.92,1,RUN
1759224763.46524,-0.113575,27.818828,8.156895,1.552274,0.789382,-1.630044,16.94,1,RUN
1759224763.50481,0.005537,30.947451,-6.31755,0.552389,-3.01265,-3.648935,16.98,1,RUN
1759224763.52445,9.631275,29.258042,3.250877,0.171034,-0.814297,-3.308174,17.00,1,RUN
1759224763.54522,0.493954,13.848362,-2.261772,0.203463,1.77346,-2.308116,17.02,1,RUN
1759224763.56526,-1.494281,12.198757,1.755548,0.564565,3.429901,-1.457266,17.04,1,RUN
1759224763.58513,0.820912,9.167548,2.268656,0.954057,2.654333,-0.658651,17.06,1,RUN
1759224763.60478,4.787805,3.366996,3.104831,1.559262,1.732608,0.008201,17.08,1,RUN
1759224763.62480,8.513482,-2.619706,2.379088,1.572035,1.628348,0.637522,17.10,1,RUN
1759224763.64522,13.268366,-8.765472,4.936694,0.376227,0.785816,0.73063,17.12,1,RUN
1759224763.66459,15.009998,-18.088493,10.321403,-2.493253,-2.521177,0.824861,17.14,1,RUN
1759224763.68486,-0.643142,-15.023316,0.242862,-1.979317,-1.826965,0.314093,17.16,1,RUN
1759224763.70478,0.609324,-1.26758,-2.700659,-1.478178,-0.730448,0.816395,17.18,1,RUN
1759224763.72525,-1.972523,6.728455,-10.436026,-0.529356,2.27622,0.954226,17.20,1,RUN
1759224763.74522,-13.140277,13.929765,5.002385,-0.004605,-3.926603,-1.446019,17.22,1,RUN
1759224763.76523,-11.383681,20.688446,10.704326,-1.589004,-12.922131,-2.762455,17.24,1,RUN
1759224763.78522,9.330653,44.779053,6.461501,-2.466943,-5.574529,1.020198,17.26,1,RUN
1759224763.80485,8.873809,43.452815,-5.111471,0.0959,-0.579014,2.509686,17.28,1,RUN
1759224763.82524,-0.595109,1.047912,-16.85488,4.86313,4.907413,-0.685219,17.30,1,RUN
1759224763.84522,10.97113,0.981024,22.454619,-1.87537,-0.346231,1.253755,17.32,1,RUN
1759224763.86483,9.064148,4.22412,12.686426,-3.438199,-2.404138,2.387746,17.34,1,RUN
1759224763.88524,18.304121,16.971747,-0.859069,-2.938552,-3.265652,5.8908,17.36,1,RUN
1759224763.90485,7.532757,34.039113,-5.788282,1.96589,0.85726,6.019973,17.38,1,RUN
1759224763.92522,0.33878,34.56075,0.328903,-1.673004,11.681413,4.886258,17.40,1,RUN
1759224763.94521,-15.365837,17.488446,-1.295413,-2.695632,-0.315192,1.87004,17.42,1,RUN
1759224763.96462,-9.390807,10.100838,-7.636605,-2.208572,-2.262885,0.371928,17.44,1,RUN
1759224763.98524,-2.065298,7.262661,-5.454889,-1.262297,-0.782999,0.954666,17.46,1,RUN
1759224764.00445,-0.809689,1.244087,-6.78427,-0.465074,0.161758,0.79501,17.48,1,RUN
1759224764.02524,-5.447108,2.522142,-1.480664,0.25265,0.476808,0.702226,17.50,1,RUN
1759224764.04521,-7.762002,-1.039084,0.942717,0.134238,1.365607,0.153086,17.52,1,RUN
1759224764.06524,-8.516774,-1.807922,-0.826748,0.509716,1.174223,-0.991667,17.54,1,RUN
1759224764.08457,-6.814048,0.218022,-3.993528,0.745829,0.3394,-1.709817,17.56,1,RUN
1759224764.10524,-0.901267,2.564639,-8.668057,1.579633,0.308582,-1.330912,17.58,1,RUN
1759224764.12524,2.255039,3.361908,-2.040009,3.159549,0.025356,-1.03117,17.60,1,RUN
1759224764.14522,-0.750433,9.305364,2.023849,3.468026,0.308951,-1.54254,17.62,1,RUN
1759224764.16468,0.80116,20.159926,6.186019,2.550519,1.031989,-2.477323,17.64,1,RUN
1759224764.18436,5.687725,53.371244,2.482937,1.736944,-1.456166,-2.507878,17.66,1,RUN
1759224764.20445,0.645537,41.745151,-0.576554,0.60102,-3.901549,-3.288226,17.68,1,RUN
1759224764.22525,2.640206,26.759393,-0.98671,0.251013,-1.061439,-3.609183,17.70,1,RUN
1759224764.24521,8.015638,14.420576,1.66008,-0.10022,0.557734,-1.95076,17.72,1,RUN
1759224764.26470,3.926491,8.739435,1.627159,0.484119,2.73062,-0.964237,17.74,1,RUN
1759224764.28454,1.512836,8.525453,2.838027,0.895846,3.00596,-0.495786,17.76,1,RUN
1759224764.30446,3.755605,5.949292,2.709488,1.408471,1.656037,-0.107298,17.78,1,RUN
1759224764.32529,5.957821,-0.377087,1.89097,1.664049,0.792197,-0.021774,17.80,1,RUN
1759224764.34521,12.888885,-6.015282,3.144634,1.023791,0.114215,0.474067,17.82,1,RUN
1759224764.36463,15.973066,-15.919645,4.779724,-1.243705,-2.699164,1.582342,17.84,1,RUN
1759224764.38524,0.562637,-14.34022,3.258359,-0.60883,-0.839436,0.148207,17.86,1,RUN
1759224764.40444,0.171634,-5.779603,0.292841,-0.602791,-0.097853,0.530741,17.88,1,RUN
1759224764.42523,-0.428562,3.585317,-5.688474,-0.501599,2.736048,0.603124,17.90,1,RUN
1759224764.44521,-9.972748,9.864111,1.663821,0.184849,-2.492357,-1.331666,17.92,1,RUN
1759224764.46524,-12.280908,14.224251,7.112126,-0.92546,-13.058084,-3.470071,17.94,1,RUN
1759224764.48524,1.980304,35.904944,11.255142,-3.590265,-9.611881,-0.926793,17.96,1,RUN
1759224764.50480,-3.295319,34.794783,-19.956419,2.122717,1.939804,2.257489,17.98,1,RUN
1759224764.52523,2.355446,-1.093552,0.108487,3.695626,6.956425,0.488993,18.00,1,RUN
1759224764.54520,7.005584,1.243937,12.027871,0.950934,2.184786,1.82349,18.02,1,RUN
1759224764.56486,9.599851,8.765023,11.766005,-2.938568,-2.089152,3.945148,18.04,1,RUN
1759224764.58523,11.072734,29.897743,-0.574908,-1.785042,-1.878554,6.270516,18.06,1,RUN
1759224764.60474,7.015161,37.252431,-2.760963,0.135972,6.102208,3.913932,18.08,1,RUN
1759224764.62524,-8.212411,22.516718,-8.618378,-3.640352,5.665986,3.480461,18.10,1,RUN
1759224764.64520,-10.213964,12.28839,-6.531083,-1.824784,-0.903001,1.360751,18.12,1,RUN
1759224764.66475,-4.000711,8.275558,-4.126107,-1.405453,0.167073,1.236521,18.14,1,RUN
1759224764.68522,-1.764676,1.808819,-6.248866,-0.999032,0.221544,1.045071,18.16,1,RUN
1759224764.70473,-3.975572,1.952771,-2.809745,-0.043445,0.668128,0.792714,18.18,1,RUN
1759224764.72523,-7.591565,0.829142,1.211017,0.201172,1.605807,0.202491,18.20,1,RUN
1759224764.74460,-7.04853,-1.681478,-1.352125,0.673975,1.466238,-0.480985,18.22,1,RUN
1759224764.76423,-5.001637,-2.139967,-4.759374,1.050192,0.261046,-1.033602,18.24,1,RUN
1759224764.78523,2.291251,2.272247,-5.734861,1.608837,-0.022661,-1.414244,18.26,1,RUN
1759224764.80523,4.1086,2.477699,-3.977667,2.189162,0.152042,-0.824378,18.28,1,RUN
1759224764.82522,0.6195,1.656488,-2.630629,2.618469,0.469192,-0.720855,18.30,1,RUN
1759224764.84502,-2.859724,4.789451,1.122282,3.481594,0.142316,-1.416724,18.32,1,RUN
1759224764.86424,-5.307347,17.865832,4.692486,3.94992,0.009409,-2.818304,18.34,1,RUN
1759224764.88522,-7.015759,48.946909,13.48998,0.601296,-1.209866,-4.048279,18.36,1,RUN
1759224764.90523,4.801571,47.242088,2.25459,-0.571148,-6.305356,-3.269368,18.38,1,RUN
1759224764.92522,-6.257396,32.097715,-6.353014,-1.228294,-0.65038,-4.356427,18.40,1,RUN
1759224764.94483,7.551462,19.554492,-1.074099,-0.301456,0.645062,-2.544463,18.42,1,RUN
1759224764.96426,0.916231,8.514829,-1.69285,0.233171,4.538581,-1.331458,18.44,1,RUN
1759224764.98522,-0.525527,6.369923,4.519355,-0.129676,4.348988,-0.422679,18.46,1,RUN
1759224765.00473,4.296545,5.245696,4.643105,0.269019,2.123162,0.23026,18.48,1,RUN
1759224765.02523,8.443601,0.462829,0.600645,0.932893,0.614485,0.914216,18.50,1,RUN
1759224765.04519,14.232032,-4.57098,-1.695095,0.423467,1.288944,1.545794,18.52,1,RUN
1759224765.06522,16.601544,-10.031555,8.343793,-1.819535,-1.540143,1.689443,18.54,1,RUN
1759224765.08522,3.513491,-11.265467,-1.472584,-1.460547,-0.792863,0.70897,18.56,1,RUN
1759224765.10522,-0.965013,-7.227945,1.524358,-0.664981,-1.569697,0.301573,18.58,1,RUN
1759224765.12521,1.844283,4.143615,-5.626224,-0.145102,1.393234,0.381066,18.60,1,RUN
1759224765.14519,-6.557718,10.971279,1.216853,0.502402,0.908094,-0.689185,18.62,1,RUN
1759224765.16482,-13.570784,11.859828,7.585729,-0.809106,-9.641478,-3.489985,18.64,1,RUN
1759224765.18521,-4.285022,17.68073,7.363367,-2.9028,-8.474082,-2.783403,18.66,1,RUN
1759224765.20518,11.591827,51.088822,10.891074,-1.60976,-0.692168,2.727819,18.68,1,RUN
1759224765.22522,-5.134964,6.845023,-26.860698,5.581341,2.882181,0.313197,18.70,1,RUN
1759224765.24519,5.425411,0.110433,7.738209,1.388485,2.871114,0.994713,18.72,1,RUN
1759224765.26521,8.265682,4.75279,17.567904,-2.256935,-1.409624,2.596627,18.74,1,RUN
1759224765.28522,11.686697,16.709283,6.507739,-2.549722,-3.31451,4.986983,18.76,1,RUN
1759224765.30524,11.889456,33.040282,-4.132691,2.109728,1.944451,4.339592,18.78,1,RUN
1759224765.32521,-1.345242,29.326875,-2.422782,-2.955339,12.648494,4.993585,18.80,1,RUN
1759224765.34476,-12.984504,14.814721,-5.797559,-1.897104,-1.792286,1.953985,18.82,1,RUN
1759224765.36432,-5.190779,9.97993,-4.430171,-2.053947,-0.669367,1.324534,18.84,1,RUN
1759224765.38521,-0.688034,5.639243,-6.817789,-1.383342,-0.017319,1.61641,18.86,1,RUN
1759224765.40522,-1.041777,3.456329,-4.791995,-0.863364,0.90125,1.194844,18.88,1,RUN
1759224765.42490,-7.773674,3.793762,-1.34599,-0.217979,0.986416,0.695177,18.90,1,RUN
1759224765.44519,-10.451588,0.871938,-0.20665,0.248356,1.513711,-0.096699,18.92,1,RUN
1759224765.46521,-9.754127,-1.16837,-0.492308,0.445034,0.71712,-1.127503,18.94,1,RUN
1759224765.48519,-7.436839,-1.334319,-5.133617,0.687191,0.370864,-1.887575,18.96,1,RUN
1759224765.50521,-0.504877,1.309628,-6.475717,1.585924,1.013077,-1.736352,18.98,1,RUN
1759224765.52523,2.657863,3.314323,-3.530849,2.918837,0.454552,-1.488411,19.00,1,RUN
1759224765.54519,1.080982,8.055291,1.108366,3.776349,0.426014,-1.653858,19.02,1,RUN
1759224765.56486,0.069282,21.893029,5.914277,3.026508,1.306875,-2.217514,19.04,1,RUN
1759224765.58521,1.725322,39.084744,5.31004,1.49512,-0.31261,-2.685494,19.06,1,RUN
1759224765.60521,5.849783,41.653273,1.467197,0.29146,-4.231114,-3.155022,19.08,1,RUN
1759224765.62521,3.295469,31.390977,-2.297386,0.291366,-1.887661,-3.88448,19.10,1,RUN
1759224765.64497,5.703288,20.49706,2.929156,-0.438327,-0.502643,-2.888463,19.12,1,RUN
1759224765.66494,1.737293,12.625224,-0.7431,0.041868,2.434506,-1.969141,19.14,1,RUN
1759224765.68471,0.017358,10.589255,2.077419,0.491724,2.78165,-1.241798,19.16,1,RUN
1759224765.70520,2.678663,7.372495,1.447295,1.239233,2.435293,-0.399344,19.18,1,RUN
1759224765.72521,6.769904,0.221015,1.399261,1.413797,2.089339,0.203273,19.20,1,RUN
1759224765.74518,12.884995,-6.021716,2.06859,0.627529,1.102567,1.156324,19.22,1,RUN
1759224765.76519,15.809512,-11.234791,10.238953,-1.169661,-2.040626,1.945805,19.24,1,RUN
1759224765.78519,2.050185,-12.840403,-2.195333,-1.852424,-2.00643,1.209103,19.26,1,RUN
1759224765.80519,-1.80837,-8.290522,1.29646,-1.63968,-2.030135,0.584274,19.28,1,RUN
1759224765.82518,0.815375,0.781258,-3.619734,-0.926445,0.252006,0.627086,19.30,1,RUN
1759224765.84521,-1.13964,4.212299,-4.939238,-0.561982,0.020187,-0.340835,19.32,1,RUN
1759224765.86520,-9.517401,10.575039,6.501754,-0.701439,-3.803241,-1.496441,19.34,1,RUN
1759224765.88521,-5.389348,21.218463,9.98412,-2.003151,-8.376129,-1.646491,19.36,1,RUN
1759224765.90519,3.462315,35.151519,5.278167,-1.462253,-5.66233,1.166876,19.38,1,RUN
1759224765.92518,-9.797522,22.617125,-25.543588,2.216259,0.274956,1.395849,19.40,1,RUN
1759224765.94518,4.074931,1.355268,-0.199766,2.659162,3.952239,-0.957344,19.42,1,RUN
1759224765.96462,6.729502,2.333598,7.95249,1.071288,1.877562,0.152064,19.44,1,RUN
1759224765.98520,10.546608,8.804228,10.144831,-1.104629,-1.125105,2.513694,19.46,1,RUN
1759224766.00487,14.880712,19.02268,8.857349,-1.541489,-3.704463,5.948848,19.48,1,RUN
1759224766.02519,5.133617,29.782971,-0.871489,-0.331841,3.279475,4.195972,19.50,1,RUN
1759224766.04518,-0.423026,30.30341,-2.920028,-2.775532,9.086285,4.231215,19.52,1,RUN
1759224766.06477,-12.767679,17.139341,-7.275979,-2.324759,-1.175261,1.973508,19.54,1,RUN
1759224766.08520,-3.993828,9.31105,-8.652794,-1.602413,-0.244573,1.32768,19.56,1,RUN
1759224766.10521,1.335665,7.807941,-4.206762,-1.145016,-0.386862,1.464489,19.58,1,RUN
1759224766.12520,-0.29718,4.555717,-4.515315,-0.52365,0.039186,1.245544,19.60,1,RUN
1759224766.14517,-5.713164,0.674267,-0.852785,0.046674,0.750791,1.031017,19.62,1,RUN
1759224766.16497,-10.665869,-1.173757,0.314688,0.44069,1.145295,-0.006236,19.64,1,RUN
1759224766.18520,-10.122535,-0.916231,0.649726,0.449658,0.157062,-1.243714,19.66,1,RUN
1759224766.20520,-8.425046,-1.617582,-5.672911,0.629349,0.112712,-2.142032,19.68,1,RUN
1759224766.22519,-2.863764,0.994342,-7.379378,1.540896,0.652588,-1.834122,19.70,1,RUN
1759224766.24474,1.33372,2.60145,-3.599682,2.782374,0.488372,-1.566867,19.72,1,RUN
1759224766.26520,0.755371,7.504775,2.382979,3.531618,0.304136,-1.673216,19.74,1,RUN
1759224766.28520,-0.741903,21.712566,6.16058,2.799834,1.131482,-2.234939,19.76,1,RUN
1759224766.30521,1.830816,47.692048,6.292411,1.066911,-0.533991,-2.776012,19.78,1,RUN
1759224766.32524,7.466617,39.857023,-0.659752,0.584197,-3.231869,-2.408827,19.80,1,RUN
1759224766.34517,1.865981,27.5414,2.115726,0.547861,-0.872707,-3.594157,19.82,1,RUN
1759224766.36520,5.973234,21.064635,4.653729,-0.677169,-1.332888,-2.779724,19.84,1,RUN
1759224766.38520,-1.575085,13.794492,-1.900846,-0.759022,1.944208,-2.293934,19.86,1,RUN
1759224766.40520,0.33025,12.300959,0.848595,-0.206801,3.212901,-1.179369,19.88,1,RUN
1759224766.42519,3.645172,6.285976,2.343624,1.072843,2.52735,0.004069,19.90,1,RUN
1759224766.44517,7.355436,0.5366,1.805378,1.587282,1.718598,0.803756,19.92,1,RUN
1759224766.46520,11.265916,-5.66498,0.221164,0.530422,1.39332,1.028569,19.94,1,RUN
1759224766.48517,10.646267,-9.147197,3.268684,-0.629902,-0.556933,0.966323,19.96,1,RUN
1759224766.50522,7.240365,-10.553791,-0.34252,-0.940742,-0.908091,0.903639,19.98,1,RUN
1759224766.52519,2.197129,-8.816199,2.674174,-0.871505,-0.871293,1.083377,20.00,1,RUN
1759224766.54435,-0.386065,-3.577985,0.215029,-1.072803,0.319767,0.632474,20.02,1,RUN
1759224766.56519,0.688483,4.512322,-3.399317,-0.572837,0.523219,0.217635,20.04,1,RUN
1759224766.58525,-8.877849,9.815329,2.207155,0.076317,-5.475696,-1.944638,20.06,1,RUN
1759224766.60521,-8.400206,17.041628,6.175394,-1.798612,-10.307087,-3.167364,20.08,1,RUN
1759224766.62519,4.602853,34.214189,5.457882,-1.747078,-4.628797,-0.58627,20.10,1,RUN
1759224766.64435,-5.668422,34.171243,-7.493402,1.192757,2.377087,2.286983,20.12,1,RUN
1759224766.66505,3.44361,-0.402675,-8.996961,4.111633,3.332301,-0.834388,20.14,1,RUN
1759224766.68521,5.718401,1.807473,8.995465,1.527671,2.268828,-0.077357,20.16,1,RUN
1759224766.70519,15.600468,9.179369,22.033239,-3.107754,-2.631179,2.87355,20.18,1,RUN
1759224766.72516,13.627197,22.87121,-2.221969,-2.130264,-3.249292,4.783077,20.20,1,RUN
1759224766.74516,9.700856,30.446464,-10.059687,0.033198,4.986039,3.205686,20.22,1,RUN
1759224766.76517,-3.206584,24.408287,-4.499603,-1.079534,6.63483,4.258183,20.24,1,RUN
1759224766.78493,-10.365247,14.739005,4.153341,-1.424037,1.019104,2.215204,20.26,1,RUN
1759224766.80518,-9.953744,10.747122,-5.136011,-2.600198,-1.638199,0.878909,20.28,1,RUN
1759224766.82517,-5.415983,8.132804,-8.879645,-1.422587,-0.640993,0.771936,20.30,1,RUN
1759224766.84477,-1.254262,6.683414,-5.122993,-0.592008,0.48685,1.115446,20.32,1,RUN
1759224766.86517,-6.001366,2.865111,-2.105251,0.020057,0.44515,0.852023,20.34,1,RUN
1759224766.88517,-6.678476,-0.735469,0.094272,0.263137,1.008506,0.258147,20.36,1,RUN
1759224766.90517,-7.427562,-3.338265,0.480037,0.297163,1.520206,-0.784965,20.38,1,RUN
1759224766.92472,-6.638074,-1.940201,-2.647089,0.614779,0.296035,-1.658961,20.40,1,RUN
1759224766.94515,-3.758897,0.061052,-5.514146,1.118425,0.454118,-1.85422,20.42,1,RUN
1759224766.96520,1.400009,2.215834,-6.252009,2.113796,1.32596,-1.204244,20.44,1,RUN
1759224766.98520,1.406145,2.276886,-0.310348,3.015945,0.350438,-1.235866,20.46,1,RUN
1759224767.00499,-0.259621,5.755362,1.411681,3.410646,-0.537304,-1.561619,20.48,1,RUN
1759224767.02498,1.129764,18.646791,4.556465,3.092484,0.284635,-1.569526,20.50,1,RUN
1759224767.04516,4.776732,59.575668,11.559804,0.252242,0.346926,-0.935627,20.52,1,RUN
1759224767.06518,0.62339,33.922396,-4.197933,0.17339,-3.062531,-3.989181,20.54,1,RUN
1759224767.08459,9.295338,28.656499,0.30541,-0.148931,-2.037929,-3.621753,20.56,1,RUN
1759224767.10518,0.77647,16.230592,-5.202451,-0.037926,0.144086,-2.375789,20.58,1,RUN
1759224767.12492,-3.465008,14.809634,-0.784101,-0.169788,3.116843,-1.574036,20.60,1,RUN
1759224767.14472,-1.712153,12.496685,3.338714,-0.049814,3.023774,-0.678814,20.62,1,RUN
1759224767.16512,3.628562,5.788731,2.458247,0.948114,1.803421,0.254921,20.64,1,RUN
1759224767.18518,8.913463,-1.644966,0.638653,1.092911,1.396168,0.782211,20.66,1,RUN
1759224767.20519,12.438925,-6.31755,2.850147,0.070374,0.438111,0.998288,20.68,1,RUN
1759224767.22497,9.47236,-9.130887,4.028394,-1.148265,-1.121313,1.109301,20.70,1,RUN
1759224767.24474,4.180126,-10.081534,-0.848296,-1.14255,-0.89637,1.103266,20.72,1,RUN
1759224767.26518,0.068534,-7.139809,0.614113,-0.977307,-0.36374,1.242536,20.74,1,RUN
1759224767.28516,0.637456,0.225205,-3.631256,-0.809625,1.364933,0.858809,20.76,1,RUN
1759224767.30523,-10.176704,9.234286,-2.494758,0.010167,-2.632871,-1.112062,20.78,1,RUN
1759224767.32518,-11.21893,15.966931,7.187693,-1.449481,-10.063062,-3.058899,20.80,1,RUN
1759224767.34473,-3.848978,13.196241,3.474735,-2.295338,-7.411613,-1.733298,20.82,1,RUN
1759224767.36519,9.747244,29.658921,8.046463,-0.40388,-0.821418,1.798565,20.84,1,RUN
1759224767.38519,-13.841029,21.191677,-13.541006,2.763471,-0.210014,1.347596,20.86,1,RUN
1759224767.40518,6.282086,0.947805,-12.510302,3.344824,2.636657,-1.429804,20.88,1,RUN
1759224767.42525,11.999589,7.867796,14.385112,-0.688188,-0.091515,0.910404,20.90,1,RUN
1759224767.44515,10.969334,14.644583,7.301118,-2.571632,-3.915582,3.240696,20.92,1,RUN
1759224767.46518,18.261773,25.053824,3.379715,-0.183179,-2.842156,3.332336,20.94,1,RUN
1759224767.48518,5.70643,28.233473,-6.447286,-0.743512,5.670238,5.192295,20.96,1,RUN
1759224767.50519,-5.556344,23.147441,-3.963302,-1.270492,8.508857,4.801311,20.98,1,RUN
1759224767.52519,-12.762442,16.628479,-3.17531,-1.68959,-1.218151,2.169676,21.00,1,RUN
1759224767.54515,-6.030844,11.843517,-5.484517,-1.740775,-1.524387,1.364064,21.02,1,RUN
1759224767.56518,-1.578677,8.918252,-5.951836,-1.050928,-0.791456,1.226097,21.04,1,RUN
1759224767.58518,-2.86571,5.077204,-4.424036,-0.387166,0.36807,1.09927,21.06,1,RUN
1759224767.60518,-5.832575,2.632275,-1.330578,0.113307,0.591726,0.91973,21.08,1,RUN
1759224767.62516,-7.791181,-0.276979,1.218499,0.326513,1.211445,0.070734,21.10,1,RUN
1759224767.64495,-7.636755,-2.924667,1.403301,0.152308,0.684484,-1.108135,21.12,1,RUN
1759224767.66518,-5.852027,-2.484433,-4.039168,0.516854,-0.333512,-1.95383,21.14,1,RUN
1759224767.68518,-3.444508,-1.104326,-6.930166,1.477452,0.445355,-2.089149,21.16,1,RUN
1759224767.70517,0.183007,2.024746,-5.18195,2.306497,0.877098,-1.358986,21.18,1,RUN
1759224767.72518,-0.338181,2.412757,-0.39654,3.144677,0.229809,-1.394878,21.20,1,RUN
1759224767.74515,-1.33776,5.796811,2.539949,3.385035,-0.767836,-1.653104,21.22,1,RUN
1759224767.76468,-1.68462,11.263671,3.350087,3.194476,-0.437004,-1.701494,21.24,1,RUN
1759224767.78486,0.052672,36.852749,9.528623,1.199756,1.019514,-1.377668,21.26,1,RUN
1759224767.80515,7.886201,58.354176,1.76707,-0.009251,-3.085554,-1.169124,21.28,1,RUN
1759224767.82515,10.199898,23.914334,2.920028,-0.495164,-1.915654,-3.451669,21.30,1,RUN
1759224767.84515,6.96982,18.257883,1.903989,-0.794331,-1.462456,-2.815709,21.32,1,RUN
1759224767.86517,-1.676689,14.691869,-4.485238,-0.48519,1.466205,-2.059491,21.34,1,RUN
1759224767.88517,-3.094955,14.354586,-0.365565,-0.16723,3.168679,-1.02321,21.36,1,RUN
1759224767.90518,1.682675,7.336432,2.134132,0.119389,2.551891,0.099734,21.38,1,RUN
1759224767.92503,8.521862,0.793528,1.540369,0.409753,1.577072,0.944685,21.40,1,RUN
1759224767.94514,10.845434,-4.95076,1.575085,-0.282009,0.818689,1.20737,21.42,1,RUN
1759224767.96517,7.883657,-5.359869,1.73834,-0.666137,-0.057131,1.048091,21.44,1,RUN
1759224767.98517,5.511751,-6.132748,-0.250643,-0.462497,-0.292938,1.244733,21.46,1,RUN
1759224768.00521,1.603666,-6.464644,0.85473,-0.229982,-0.032029,1.066803,21.48,1,RUN
1759224768.02517,0.695366,-2.37415,-3.229479,-0.335405,0.223864,0.287417,21.50,1,RUN
1759224768.04514,-4.667197,6.097882,-3.742736,-0.252574,-0.239597,-0.773207,21.52,1,RUN
1759224768.06516,-9.421333,12.424111,2.720861,-1.047091,-5.467295,-2.529665,21.54,1,RUN
1759224768.08517,-7.055563,8.606108,6.117933,-2.080936,-6.909099,-2.828539,21.56,1,RUN
1759224768.10517,1.690007,7.501034,0.647482,-0.382887,-2.169121,-0.934152,21.58,1,RUN
1759224768.12517,12.14788,41.61736,20.034979,-0.950393,0.996255,2.63649,21.60,1,RUN
1759224768.14514,-9.371205,21.59121,-42.830472,5.352432,-0.928445,-0.187866,21.62,1,RUN
1759224768.16475,6.89545,2.434305,9.485378,1.694234,1.297394,-0.530384,21.64,1,RUN
1759224768.18516,10.233416,4.951658,18.040609,-2.236073,-2.229438,1.149066,21.66,1,RUN
1759224768.20490,11.284321,10.855759,5.632509,-2.660239,-4.4696,2.593398,21.68,1,RUN
1759224768.22459,15.698032,29.342887,-5.478233,0.473727,-1.379562,4.452879,21.70,1,RUN
1759224768.24514,3.262249,32.20291,-6.728156,0.48713,8.225254,5.850579,21.72,1,RUN
1759224768.26472,-10.576835,23.430256,-4.279785,-1.837946,8.588488,4.208121,21.74,1,RUN
1759224768.28517,-9.483882,12.784588,-2.893542,-2.019292,-2.519551,1.678629,21.76,1,RUN
1759224768.30515,-5.106383,9.637859,-7.122451,-1.57789,-1.568017,1.430623,21.78,1,RUN
1759224768.32491,-2.408866,6.446089,-5.521478,-0.589674,0.324363,1.477139,21.80,1,RUN
1759224768.34514,-6.073641,4.485387,-2.558653,-0.095095,1.009019,0.955437,21.82,1,RUN
1759224768.36477,-8.360403,2.408866,0.253636,0.239748,1.710744,0.260809,21.84,1,RUN
1759224768.38516,-9.314791,-1.663072,2.063054,0.455897,1.669845,-1.078417,21.86,1,RUN
1759224768.40523,-6.60231,-2.995745,-0.504578,0.430585,0.683218,-2.211832,21.88,1,RUN
1759224768.42517,-3.105878,-2.235137,-5.784391,0.91175,0.101007,-2.426445,21.90,1,RUN
1759224768.44514,3.118448,1.162235,-8.210915,1.932825,0.746555,-1.429047,21.92,1,RUN
1759224768.46516,2.181716,2.422633,-3.031059,3.163198,0.191284,-1.138591,21.94,1,RUN
1759224768.48516,0.829292,5.135712,1.676839,3.597858,-0.547973,-1.165902,21.96,1,RUN
1759224768.50515,0.759112,18.274642,4.343381,2.758239,0.65216,-0.953981,21.98,1,RUN
1759224768.52520,2.148497,44.348546,10.091261,0.681838,1.658493,-0.792763,22.00,1,RUN
1759224768.54513,4.81474,37.051617,-0.703895,0.424171,-4.091238,-2.615214,22.02,1,RUN
1759224768.56502,4.670489,27.96652,-2.554015,0.126811,-1.859876,-3.453401,22.04,1,RUN
1759224768.58517,4.135086,17.454029,1.467496,-0.392848,-0.371076,-1.955377,22.06,1,RUN
1759224768.60517,0.791733,13.984831,-0.538546,-0.395716,1.933374,-1.405046,22.08,1,RUN
1759224768.62506,-0.031125,13.214946,1.801188,-0.144805,2.495726,-1.013493,22.10,1,RUN
1759224768.64514,3.87307,7.971644,2.157176,0.257515,1.792574,-0.429792,22.12,1,RUN
1759224768.66517,7.863905,0.969203,0.186897,0.363125,1.447407,0.070385,22.14,1,RUN
1759224768.68514,9.848698,-4.131943,1.091756,0.024687,0.641581,0.667281,22.16,1,RUN
1759224768.70516,7.619248,-7.067983,1.969081,-0.642588,-0.63431,0.772369,22.18,1,RUN
1759224768.72513,5.495291,-7.780706,-0.176423,-0.523347,-1.072385,0.946743,22.20,1,RUN
1759224768.74515,0.211139,-7.727136,0.926257,-0.257244,-1.010164,0.961363,22.22,1,RUN
1759224768.76516,-1.107169,-2.275389,-4.699967,-0.036851,0.395133,0.456408,22.24,1,RUN
1759224768.78516,-8.131756,8.513183,-1.927033,0.010133,-0.571683,-1.11167,22.26,1,RUN
1759224768.80516,-15.458462,17.663971,5.856068,-1.110463,-10.5439,-3.829912,22.28,1,RUN
1759224768.82509,1.287482,34.852094,11.954997,-4.282882,-6.418646,-2.36256,22.30,1,RUN
1759224768.84514,0.88376,27.204565,-23.240964,3.567076,-0.061296,1.234122,22.32,1,RUN
1759224768.86517,4.409371,-2.846406,-5.479579,4.32261,6.360895,0.298509,22.34,1,RUN
1759224768.88516,7.514352,2.454805,17.720684,0.222433,1.546222,1.201545,22.36,1,RUN
1759224768.90515,8.594735,7.690176,12.242601,-3.368507,-4.433759,2.871267,22.38,1,RUN
1759224768.92515,12.596643,20.002058,4.055927,-2.872818,-6.417102,5.05794,22.40,1,RUN
1759224768.94513,10.160244,33.772758,-10.620379,1.442676,0.16912,3.106265,22.42,1,RUN
1759224768.96515,0.056264,27.792491,-5.190779,-0.286564,9.802821,4.778129,22.44,1,RUN
1759224768.98515,-11.042208,20.136882,-0.608277,-0.70512,3.941546,3.000001,22.46,1,RUN
1759224769.00516,-12.870031,12.531401,3.813365,-2.582731,-1.279751,0.874531,22.48,1,RUN
1759224769.02515,-9.304017,7.760206,-7.129633,-2.023763,-1.407903,0.303829,22.50,1,RUN
1759224769.04505,-2.717569,4.482694,-7.466019,-0.600375,0.648339,0.9448,22.52,1,RUN
1759224769.06515,0.222062,2.152836,-2.907908,-0.431317,0.532918,0.64717,22.54,1,RUN
1759224769.08515,-2.106149,2.004994,-1.634043,-0.035339,1.057495,0.513363,22.56,1,RUN
1759224769.10486,-5.409699,-0.312743,-0.625036,0.327864,1.320671,0.065076,22.58,1,RUN
1759224769.12516,-7.211186,-1.681328,-0.849343,0.54966,1.455654,-0.945231,22.60,1,RUN
1759224769.14513,-5.073463,-1.796399,-3.413234,0.830725,0.683564,-1.776833,22.62,1,RUN
1759224769.16432,-0.503231,2.101959,-5.312883,1.484503,0.401353,-1.736937,22.64,1,RUN
1759224769.18513,1.475427,3.963451,-4.998046,2.434034,0.11179,-1.456774,22.66,1,RUN
1759224769.20490,0.372897,4.578013,-1.33387,3.500809,-0.515474,-1.48968,22.68,1,RUN
1759224769.22515,-1.382801,11.288212,1.285537,3.876247,-0.181954,-1.861978,22.70,1,RUN
1759224769.24414,0.336834,30.670023,8.745121,2.125543,2.510418,-1.939788,22.72,1,RUN
1759224769.28515,1.291073,25.514259,-2.257283,-0.262638,-3.638729,-3.387041,22.76,1,RUN
1759224769.30519,8.81964,21.369597,1.761833,-1.639408,-2.674996,-3.407227,22.78,1,RUN
1759224769.32515,0.711228,13.655928,-6.00376,-0.806414,0.986327,-2.300599,22.80,1,RUN
1759224769.34468,-1.873313,13.896395,0.089334,-0.106897,3.453088,-1.037344,22.82,1,RUN
1759224769.36515,1.073351,7.630321,2.889352,0.10765,2.741185,-0.017325,22.84,1,RUN
1759224769.38514,6.6686,1.881843,3.554641,0.72727,1.451334,0.59617,22.86,1,RUN
1759224769.40514,8.525154,-4.689044,1.403301,0.363474,0.509088,1.037854,22.88,1,RUN
1759224769.42514,9.772383,-7.859565,0.295534,-0.623038,0.27791,0.984444,22.90,1,RUN
1759224769.44512,6.858041,-6.764966,-0.221763,-0.835726,-0.016584,1.444054,22.92,1,RUN
1759224769.46513,2.591424,-5.903503,0.169839,-0.800034,-0.710683,1.882308,22.94,1,RUN
1759224769.48515,-2.367117,-5.952285,-2.475006,-0.429911,-0.821015,1.370233,22.96,1,RUN
1759224769.50515,-5.820454,4.556914,-3.382558,-0.163936,-0.528895,-0.467359,22.98,1,RUN
1759224769.52515,-8.478916,10.511443,5.218761,-1.313225,-5.53254,-2.539689,23.00,1,RUN
1759224769.54512,-3.634997,14.833127,3.697695,-2.435231,-5.500091,-2.441442,23.02,1,RUN
1759224769.56514,3.799598,13.590985,-0.066589,0.108687,-1.782189,-0.101074,23.04,1,RUN
1759224769.58515,11.029788,37.9053,11.911752,-0.393741,0.821335,3.598275,23.06,1,RUN
1759224769.60515,-9.815479,10.127323,-31.120432,3.495758,-1.247214,-0.258547,23.08,1,RUN
1759224769.62513,7.45734,6.651391,4.314501,0.75254,1.47337,-0.357383,23.10,1,RUN
1759224769.64512,11.171495,15.400253,5.966201,-0.57302,0.628756,2.04522,23.12,1,RUN
1759224769.66514,14.40666,18.597859,12.342858,-0.741465,-2.665507,3.608923,23.14,1,RUN
1759224769.68512,10.774955,19.767127,3.975273,-0.516807,-1.204196,2.886228,23.16,1,RUN
1759224769.70513,3.364452,22.234203,-4.093486,-2.280646,6.166853,4.078914,23.18,1,RUN
1759224769.72512,-8.173505,22.595129,-6.527192,-2.384143,5.45095,3.162383,23.20,1,RUN
1759224769.74511,-9.815778,13.430573,-6.016629,-1.810036,-2.056556,1.662973,23.22,1,RUN
1759224769.76511,-7.199514,8.883985,-6.891859,-1.191136,-0.969368,0.992904,23.24,1,RUN
1759224769.78513,-3.045275,5.473444,-4.148403,-0.378917,0.17552,0.819132,23.26,1,RUN
1759224769.80514,-3.494936,4.05069,-3.866785,-0.153594,0.369752,0.678342,23.28,1,RUN
1759224769.82512,-6.605453,2.007388,-1.47827,0.713577,0.818387,0.321034,23.30,1,RUN
1759224769.84477,-7.773674,1.122432,-0.113425,0.835873,1.170648,-0.019942,23.32,1,RUN
1759224769.86517,-7.83278,0.415693,2.059762,0.720399,1.650456,-1.011232,23.34,1,RUN
1759224769.88471,-5.870433,-0.276231,-1.017536,0.686392,1.36707,-1.671433,23.36,1,RUN
1759224769.90514,-3.197905,-0.798167,-5.327548,1.430956,1.162794,-1.86477,23.38,1,RUN
1759224769.92514,0.315286,2.022502,-6.717082,2.607016,1.088583,-1.587701,23.40,1,RUN
1759224769.94511,0.614711,4.201225,0.823456,3.653734,0.23423,-1.731727,23.42,1,RUN
1759224769.96514,0.329053,14.888193,2.61357,3.324642,-0.05748,-1.864364,23.44,1,RUN
1759224769.98451,2.679411,27.720216,9.453954,1.517979,1.620458,-1.894851,23.46,1,RUN
1759224770.00515,9.45994,49.104627,3.484461,0.689013,-2.477323,-1.878036,23.48,1,RUN
1759224770.02520,4.526238,27.712136,-1.780987,0.293001,-3.282471,-3.638176,23.50,1,RUN
1759224770.04511,6.348824,26.711809,1.678635,0.098032,-2.031872,-3.579446,23.52,1,RUN
1759224770.06514,-1.064372,14.183999,-2.139219,-0.487843,1.04913,-2.625805,23.54,1,RUN
1759224770.08513,-3.829376,14.498537,-0.604386,-0.870184,2.61233,-1.566615,23.56,1,RUN
1759224770.10514,1.340454,11.025598,1.294066,-0.212642,2.490517,-0.527006,23.58,1,RUN
1759224770.12513,6.366033,3.481319,1.701828,0.670048,1.996758,0.137973,23.60,1,RUN
1759224770.14468,9.952247,-2.759168,0.184354,0.229968,1.611304,1.084953,23.62,1,RUN
1759224770.16414,9.51351,-6.435913,1.933617,-0.521191,-0.197053,1.524954,23.64,1,RUN
1759224770.18512,6.807015,-7.071574,2.094029,-0.959919,-1.559749,1.632061,23.66,1,RUN
1759224770.20514,4.338443,-6.495768,0.069432,-0.79844,-1.856995,1.729725,23.68,1,RUN
1759224770.22515,-0.314538,-4.97964,-1.564012,-0.654207,-1.121043,1.301362,23.70,1,RUN
1759224770.24512,-1.272219,2.350208,-5.465513,-0.298074,0.45227,0.468113,23.72,1,RUN
1759224770.26416,-8.76607,11.407174,1.195305,-0.200384,-2.422551,-1.366165,23.74,1,RUN
1759224770.28513,-11.168053,15.006108,8.98918,-1.675283,-8.440829,-3.137197,23.76,1,RUN
1759224770.30488,1.248576,27.067497,8.663419,-2.046933,-5.134423,-1.101738,23.78,1,RUN
1759224770.32518,1.275062,28.901456,-4.620959,0.841153,-2.088865,1.644069,23.80,1,RUN
1759224770.34511,2.135927,0.915184,-17.8998,4.541148,3.468463,-1.227778,23.82,1,RUN
1759224770.36474,6.479458,-0.042347,11.348067,0.521094,1.701331,-0.260648,23.84,1,RUN
1759224770.38513,8.334366,6.363938,12.82484,-2.770068,-2.640667,1.670556,23.86,1,RUN
1759224770.40514,15.747562,22.691046,6.149357,-2.909761,-4.945197,5.088868,23.88,1,RUN
1759224770.42518,9.163807,31.62097,-6.464943,1.842728,-0.029072,3.973151,23.90,1,RUN
1759224770.44511,1.971475,30.459931,-6.551733,-0.420068,9.938246,5.171783,23.92,1,RUN
1759224770.46419,-8.794501,19.628713,-1.492186,-1.836585,4.104983,3.537647,23.94,1,RUN
1759224770.48513,-10.069863,11.770943,0.08275,-2.155092,-2.522223,1.446735,23.96,1,RUN
1759224770.50513,-7.736713,9.524284,-7.618948,-1.81004,-1.302239,0.983659,23.98,1,RUN
1759224770.52514,-3.47683,6.331017,-6.491878,-0.638986,0.834545,1.187042,24.00,1,RUN
1759224770.54510,-4.59163,4.74456,-2.718017,-0.258254,0.763195,0.96514,24.02,1,RUN
1759224770.56420,-7.31668,3.411887,-0.148889,0.140207,1.286136,0.423354,24.04,1,RUN
1759224770.58513,-9.115025,-2.045396,1.522712,0.23665,1.918834,-0.668948,24.06,1,RUN
1759224770.60513,-6.401197,-2.607286,-1.504606,0.320507,0.806246,-1.639575,24.08,1,RUN
1759224770.62513,-4.506785,-1.744026,-6.424691,0.902338,0.238048,-1.976074,24.10,1,RUN
1759224770.64510,0.987758,1.949329,-7.167043,1.954372,0.909324,-1.534813,24.12,1,RUN
1759224770.66421,1.95292,3.463961,-2.01906,3.217831,-0.035466,-1.454024,24.14,1,RUN
1759224770.68511,0.689979,7.851186,1.397914,3.631088,-1.011724,-1.45243,24.16,1,RUN
1759224770.70464,0.358532,20.440796,4.914249,2.353741,0.872451,-1.821923,24.18,1,RUN
1759224770.72513,1.580921,42.848429,7.061997,0.624871,-0.044726,-2.522555,24.20,1,RUN
1759224770.74511,7.129035,37.801152,-0.512808,0.53844,-3.697457,-2.668831,24.22,1,RUN
1759224770.76422,4.312406,29.788507,-0.052672,0.302682,-1.314746,-3.220591,24.24,1,RUN
1759224770.78513,4.411017,19.226636,1.520917,-0.671321,-0.045759,-2.401405,24.26,1,RUN
1759224770.80512,0.481384,14.789433,-0.702848,-0.791859,2.232894,-1.781369,24.28,1,RUN
1759224770.82512,0.511012,12.949489,1.627907,0.04134,3.052062,-1.142456,24.30,1,RUN
1759224770.84510,3.829974,6.645107,2.407819,1.080862,2.317402,-0.217459,24.32,1,RUN
1759224770.86424,7.475895,-0.12809,0.542287,1.222071,1.729519,0.61726,24.34,1,RUN
1759224770.88509,10.720487,-4.874894,0.385317,0.209496,0.915009,1.068603,24.36,1,RUN
1759224770.90432,9.789142,-7.765443,2.650681,-0.691643,-0.781171,1.0084,24.38,1,RUN
1759224770.92506,6.855946,-8.915109,1.008408,-1.097753,-1.86899,1.20511,24.40,1,RUN
1759224770.94510,0.648679,-6.58196,0.564134,-0.723594,-1.637341,1.336325,24.42,1,RUN
1759224770.96426,-1.852962,-4.493917,-3.282002,-0.319358,-0.5642,0.943433,24.44,1,RUN
1759224770.98512,-6.494871,4.629787,-3.414281,0.188403,0.406692,-0.318314,24.46,1,RUN
1759224771.00512,-9.438541,11.599907,6.071246,-0.390809,-6.084848,-2.531383,24.48,1,RUN
1759224771.02512,-5.365556,17.217003,7.364714,-2.290226,-7.109909,-2.352046,24.50,1,RUN
1759224771.04473,6.601861,38.729504,11.356596,-1.270116,-2.722288,1.258563,24.52,1,RUN
1759224771.06428,-13.280637,19.949835,-24.749162,3.853919,-3.341566,0.649962,24.54,1,RUN
1759224771.08512,5.115212,-2.160767,-0.038307,2.273516,2.800813,-1.132105,24.56,1,RUN
1759224771.10508,5.069872,2.768296,7.921067,0.457815,1.393881,-0.248648,24.58,1,RUN
1759224771.12511,9.841216,8.53069,15.992669,-3.189678,-3.69573,2.122792,24.60,1,RUN
1759224771.14509,12.239009,28.42905,-0.597054,-1.416794,-3.718835,5.444129,24.62,1,RUN
1759224771.16428,5.527314,29.452571,-5.186739,2.675877,3.648428,4.075296,24.64,1,RUN
1759224771.18510,-2.542044,22.977902,-3.082984,-1.911406,13.030208,4.091518,24.66,1,RUN
1759224771.20513,-6.493075,15.491981,-5.351789,-1.003329,-0.760108,2.143166,24.68,1,RUN
1759224771.22513,-5.118205,11.64405,-3.940706,-1.706399,-2.687656,1.476099,24.70,1,RUN
1759224771.24510,-3.624223,8.661922,-7.415591,-1.477932,-0.101816,1.139565,24.72,1,RUN
1759224771.26513,-1.355417,6.348226,-5.11596,-0.172026,0.98664,1.035618,24.74,1,RUN
1759224771.28513,-5.814169,3.350386,-0.109385,0.150633,0.368833,0.900631,24.76,1,RUN
1759224771.30517,-8.835053,-0.835576,0.791433,0.206747,1.415891,0.190592,24.78,1,RUN
1759224771.32513,-7.710227,-2.337339,-0.172532,0.527925,0.718777,-0.84672,24.80,1,RUN
1759224771.34510,-4.845266,-1.769614,-4.882076,0.435326,0.538112,-0.98451,24.82,1,RUN
1759224771.36512,-2.714576,-0.306308,-6.659622,0.745977,0.577565,-0.881141,24.84,1,RUN
1759224771.38511,2.562245,3.066224,-6.11509,1.678022,0.282192,-0.878959,24.86,1,RUN
1759224771.40513,2.157774,1.745074,-2.784457,2.264371,0.300862,-0.748693,24.88,1,RUN
1759224771.42514,-0.160262,3.455282,0.867449,3.47863,-0.422669,-1.331986,24.90,1,RUN
1759224771.44510,-3.469797,14.765491,2.527978,3.643504,0.237988,-1.931931,24.92,1,RUN
1759224771.46513,-1.532289,42.159497,12.171223,1.193022,1.313925,-2.85873,24.94,1,RUN
1759224771.48512,4.129998,43.237636,1.282095,0.623955,-3.528466,-2.820205,24.96,1,RUN
1759224771.50513,-2.057966,26.302849,-0.391901,0.240256,-2.982626,-3.204975,24.98,1,RUN
1759224771.52509,3.257162,24.179791,1.93257,-1.567484,0.059122,-2.685064,25.00,1,RUN
1759224771.54509,-1.249324,16.634464,-5.683386,-1.205307,1.948749,-2.224643,25.02,1,RUN
1759224771.56434,3.038092,14.955081,3.234716,-0.014924,4.211326,-0.862899,25.04,1,RUN
1759224771.58509,7.181109,7.813477,3.466505,0.753323,3.391648,0.071572,25.06,1,RUN
1759224771.60509,8.434473,0.892888,1.601721,0.838496,2.991866,0.276737,25.08,1,RUN
1759224771.62502,9.804854,-4.486734,0.6605,0.052197,1.854762,0.861923,25.10,1,RUN
1759224771.64509,9.22426,-6.25156,1.847426,-0.280714,1.000468,1.131123,25.12,1,RUN
1759224771.66436,7.503428,-7.384316,2.125752,-1.14186,-0.895734,1.340262,25.14,1,RUN
1759224771.68509,3.759046,-6.358102,-0.665139,-1.112443,-1.450636,1.241482,25.16,1,RUN
1759224771.70510,0.286107,-5.184344,-0.080655,-0.857483,-1.231077,1.000025,25.18,1,RUN
1759224771.72510,-0.189591,1.324293,-5.611261,-0.02023,0.54945,-0.298318,25.20,1,RUN
1759224771.74509,-7.770381,8.563461,2.531719,0.191301,-0.922632,-1.124284,25.22,1,RUN
1759224771.76514,-10.373328,11.816882,8.320599,-1.226654,-7.073632,-3.332894,25.24,1,RUN
1759224771.78509,-1.876156,10.600477,2.892495,-2.61561,-4.721005,-2.516155,25.26,1,RUN
1759224771.80510,4.709544,14.85647,4.596568,-0.359315,0.492326,0.183127,25.28,1,RUN
1759224771.82509,-2.722656,45.437159,8.229769,-0.089662,-1.104731,3.926816,25.30,1,RUN
1759224771.84508,3.038392,2.674024,-28.009915,4.331213,0.739211,-0.070287,25.32,1,RUN
1759224771.86439,5.721992,2.037017,6.323087,1.373709,2.65127,-0.759985,25.34,1,RUN
1759224771.88512,10.28983,8.865429,11.617864,-1.184974,-0.45037,0.392401,25.36,1,RUN
1759224771.90511,17.307534,16.596756,12.07785,-2.313557,-4.964029,2.446682,25.38,1,RUN
1759224771.92442,9.94282,28.967596,-7.70484,-1.193863,-4.429996,3.739385,25.40,1,RUN
1759224771.94508,3.296367,27.980736,-7.187543,0.440944,4.68145,4.536943,25.42,1,RUN
1759224771.96511,-9.075521,24.33302,-0.951546,-0.626485,10.342642,4.691584,25.44,1,RUN
1759224771.98513,-16.462531,14.999374,0.101454,-2.46382,-1.166009,1.8063,25.46,1,RUN
1759224772.00517,-6.979247,10.10817,-9.735572,-1.810769,-2.86059,1.200691,25.48,1,RUN
1759224772.02511,-1.976114,5.307197,-5.575198,-0.546411,0.097172,1.552706,25.50,1,RUN
1759224772.04465,-4.896292,3.242647,-3.119196,-0.214744,0.728365,1.209668,25.52,1,RUN
1759224772.06446,-8.668057,1.055544,1.067365,0.392235,1.594619,0.726114,25.54,1,RUN
1759224772.08511,-9.499594,-1.54411,3.41877,0.782498,1.873268,-0.367013,25.56,1,RUN
1759224772.10510,-6.950218,-2.42802,0.096816,0.655715,1.394458,-1.539974,25.58,1,RUN
1759224772.12510,-2.560299,-2.298733,-5.261857,0.74181,0.685813,-1.838737,25.60,1,RUN
1759224772.14508,2.779818,1.641674,-8.116942,1.377253,0.322417,-1.500813,25.62,1,RUN
1759224772.16442,2.492514,2.685995,-4.964527,2.359982,0.117003,-1.497294,25.64,1,RUN
1759224772.18423,0.936881,4.635474,1.099387,3.187216,-0.642771,-1.622049,25.66,1,RUN
1759224772.20509,-1.13545,14.932636,3.004424,3.127954,-0.366104,-1.696638,25.68,1,RUN
1759224772.22510,-1.905036,35.704729,11.376648,1.679917,1.762939,-1.645403,25.70,1,RUN
1759224772.24508,0.924461,47.141083,2.756025,0.284307,-3.58354,-2.70234,25.72,1,RUN
1759224772.26444,-3.484162,33.517477,-5.824195,-0.432224,-2.584738,-3.655715,25.74,1,RUN
1759224772.28510,5.764789,19.556587,1.02816,-0.001183,-0.266637,-2.185547,25.76,1,RUN
1759224772.30511,0.171335,12.865392,-0.15682,0.258857,2.767907,-1.233093,25.78,1,RUN
1759224772.32510,-0.292841,12.894721,3.057246,0.154981,3.073503,-0.532881,25.80,1,RUN
1759224772.34507,3.079692,9.537751,1.934216,0.356995,2.146321,-0.065659,25.82,1,RUN
1759224772.36510,6.86657,3.34051,-0.291943,0.524295,1.425116,0.146806,25.84,1,RUN
1759224772.38510,9.925762,-1.235558,-0.856975,-0.156388,1.618234,0.383896,25.86,1,RUN
1759224772.40510,10.220099,-4.946271,2.98527,-0.454146,0.502994,0.80016,25.88,1,RUN
1759224772.42508,9.552865,-8.864981,6.056881,-1.260617,-1.587749,0.941292,25.90,1,RUN
1759224772.44507,3.43957,-8.111705,-1.820641,-0.605595,-1.065946,1.019303,25.92,1,RUN
1759224772.46448,0.98686,-4.173542,-3.608212,0.30466,-0.980722,0.981937,25.94,1,RUN
1759224772.48510,0.419135,3.718494,-7.466019,0.434082,1.583518,0.408283,25.96,1,RUN
1759224772.50510,-11.22282,8.478916,5.251382,-0.194736,-2.800408,-1.176764,25.98,1,RUN
1759224772.52475,-13.036278,11.150396,11.483489,-2.203933,-9.90132,-3.813579,26.00,1,RUN
1759224772.54507,1.221342,21.915774,2.187402,-2.189911,-2.14588,-2.087393,26.02,1,RUN
1759224772.56449,0.347758,39.959824,5.025878,0.283299,0.67397,2.807785,26.04,1,RUN
1759224772.58510,0.784251,-0.071377,-25.288156,4.418772,-0.835853,0.330265,26.06,1,RUN
1759224772.60510,4.164564,3.592051,6.133496,0.563931,3.525339,0.269926,26.08,1,RUN
1759224772.62510,8.213309,11.121216,12.439823,-1.233763,0.831752,1.98123,26.10,1,RUN
1759224772.64507,12.082339,22.288072,7.280169,-2.454277,-3.37416,5.079835,26.12,1,RUN
1759224772.66515,6.935104,27.645847,-2.422334,1.203762,-1.774288,3.397959,26.14,1,RUN
1759224772.68508,3.387197,25.286361,-4.336797,-0.877573,5.768816,3.355523,26.16,1,RUN
1759224772.70509,-4.946121,14.550761,-5.787534,-2.441026,7.70711,2.88429,26.18,1,RUN
1759224772.72510,-7.208193,11.762114,-3.97213,-1.372494,-1.7301,1.979808,26.20,1,RUN
1759224772.74508,-7.044041,9.485977,-6.853552,-1.568205,-0.165576,1.490528,26.22,1,RUN
1759224772.76451,-5.972785,8.089558,-5.754314,-0.534864,1.268035,1.37622,26.24,1,RUN
1759224772.78510,-5.979968,3.554492,-2.775778,-0.04449,1.159864,0.958633,26.26,1,RUN
1759224772.80508,-7.422324,0.577601,-1.703923,0.422082,1.458522,0.298966,26.28,1,RUN
1759224772.82510,-8.79076,-0.964714,0.279822,0.737127,1.589653,-0.811259,26.30,1,RUN
1759224772.84507,-6.722918,-1.589451,0.329502,0.504792,1.200554,-1.659239,26.32,1,RUN
1759224772.86453,-4.892551,-1.198148,-3.043479,0.94697,1.170472,-1.987205,26.34,1,RUN
1759224772.88507,-0.520739,2.508525,-5.847688,1.879148,0.999584,-1.726476,26.36,1,RUN
1759224772.90508,1.503409,2.80795,-4.873547,2.950512,0.450012,-1.717696,26.38,1,RUN
1759224772.92513,1.237503,6.385485,0.329951,3.637852,-0.477734,-1.844923,26.40,1,RUN
1759224772.94507,0.089034,18.520197,4.523545,2.349904,0.842152,-2.112957,26.42,1,RUN
1759224772.96509,2.555661,41.885062,10.715998,0.107436,-0.243926,-2.267385,26.44,1,RUN
1759224772.98509,5.008371,41.679909,-0.145597,-0.053635,-3.516621,-2.733744,26.46,1,RUN
1759224773.00508,3.514239,29.003209,-1.839345,0.142493,-0.535178,-3.048384,26.48,1,RUN
1759224773.02514,5.577293,19.125631,0.367809,0.135258,1.295836,-1.84689,26.50,1,RUN
1759224773.04507,-1.184681,12.730419,0.394744,-0.288124,3.669477,-1.003044,26.52,1,RUN
1759224773.06454,-1.641375,10.981305,3.748721,-0.199969,2.48868,-0.654706,26.54,1,RUN
1759224773.08510,2.512116,6.100127,1.747468,0.410168,1.112787,-0.221419,26.56,1,RUN
1759224773.10515,7.583783,0.21039,-1.079037,0.261565,0.795017,0.592184,26.58,1,RUN
1759224773.12507,10.675596,-4.964527,0.207697,-0.909387,0.413877,0.908744,26.60,1,RUN
1759224773.14506,8.057087,-6.950966,2.09343,-1.558703,-0.469217,0.898057,26.62,1,RUN
1759224773.16506,5.680842,-5.905149,1.150863,-0.724386,-0.985898,1.422748,26.64,1,RUN
1759224773.18507,1.851765,-3.601927,-1.088913,-0.076612,0.040937,1.55162,26.66,1,RUN
1759224773.20507,-0.030676,1.772607,-5.95842,0.287334,2.468337,0.751963,26.68,1,RUN
1759224773.22500,-6.724564,8.063821,-3.829974,0.49802,-3.023098,-1.061768,26.70,1,RUN
1759224773.24506,-12.283152,12.059294,6.433818,-0.126229,-7.465964,-2.351465,26.72,1,RUN
1759224773.26459,-4.448876,9.31539,6.092046,-3.366691,-7.492355,-3.10655,26.74,1,RUN
1759224773.28508,7.38716,15.704467,4.002058,-0.527817,0.325802,-0.723749,26.76,1,RUN
1759224773.30510,11.477204,33.314418,8.409035,0.943626,0.110341,3.684616,26.78,1,RUN
1759224773.32507,-4.795436,4.33979,-29.420997,2.696869,2.335673,-0.74437,26.80,1,RUN
1759224773.34507,10.775105,7.995137,6.564751,1.291555,2.484396,-0.635007,26.82,1,RUN
1759224773.36460,13.962535,18.55207,11.81733,-1.175159,-0.042878,1.895906,26.84,1,RUN
1759224773.38471,11.009138,17.110312,7.583334,-1.508292,-4.894216,2.741772,26.86,1,RUN
1759224773.40508,6.930615,25.046192,-2.436998,-1.091321,-1.764932,3.339692,26.88,1,RUN
1759224773.42500,1.081431,22.38803,-1.314716,-1.429422,6.71713,3.656642,26.90,1,RUN
1759224773.44506,-10.440814,22.005407,-0.17343,-2.012538,5.504978,3.246021,26.92,1,RUN
1759224773.46509,-12.979715,13.244574,-6.482451,-2.895939,-3.795093,1.439562,26.94,1,RUN
1759224773.48510,-9.590873,9.057564,-11.742961,-1.289132,-2.061883,0.617592,26.96,1,RUN
1759224773.50508,-5.340566,6.571335,-2.598158,0.227764,0.745068,0.931107,26.98,1,RUN
1759224773.52507,-5.868188,1.500416,-0.579098,-0.036579,1.068354,0.673645,27.00,1,RUN
1759224773.54458,-6.90383,-2.406023,-1.390133,0.085509,1.703567,0.344157,27.02,1,RUN
1759224773.56464,-7.577349,-3.16693,-0.178368,0.583117,2.124616,-0.608024,27.04,1,RUN
1759224773.58466,-6.853103,-2.645892,-0.019303,0.544084,1.9483,-1.621025,27.06,1,RUN
1759224773.60509,-4.477456,-0.733823,-3.134309,0.832366,1.599409,-2.155646,27.08,1,RUN
1759224773.62506,0.154725,1.902492,-4.019266,2.098011,0.47178,-1.524923,27.10,1,RUN
1759224773.64463,1.009006,3.157802,-1.551892,2.627118,0.278163,-1.434332,27.12,1,RUN
1759224773.66409,0.291793,9.821464,1.104326,3.176093,0.180286,-1.266507,27.14,1,RUN
1759224773.68431,2.673575,29.176789,8.598925,2.224014,1.014164,-0.828955,27.16,1,RUN
1759224773.70508,6.7717,58.401611,3.64203,0.067333,1.0766,-0.670441,27.18,1,RUN
1759224773.72507,5.750423,29.681068,-6.538864,1.242786,-0.677012,-2.205018,27.20,1,RUN
1759224773.74506,10.46745,21.31468,4.673931,0.801205,-0.292169,-2.621305,27.22,1,RUN
1759224773.76413,4.570232,13.321338,1.100435,-0.008111,0.082601,-1.459511,27.24,1,RUN
1759224773.78508,1.802983,13.059772,2.607286,-0.280532,0.795334,-0.733555,27.26,1,RUN
1759224773.80509,2.042553,10.360908,1.798943,-0.291541,0.799388,-0.742723,27.28,1,RUN
1759224773.82508,5.595997,5.768679,1.436671,0.156771,1.021934,-0.652627,27.30,1,RUN
1759224773.84506,7.710975,-0.462081,-0.987309,0.372696,0.737591,-0.177841,27.32,1,RUN
1759224773.86415,9.350555,-5.238962,0.442778,0.1015,0.409945,0.768307,27.34,1,RUN
1759224773.88508,7.943662,-9.577256,5.408053,-1.405693,-1.546281,0.899114,27.36,1,RUN
1759224773.90508,1.513584,-7.94441,0.754622,-1.243152,-0.977976,0.585779,27.38,1,RUN
1759224773.92508,-0.779163,-5.73127,-2.25459,-0.4462,-1.497386,0.435238,27.40,1,RUN
1759224773.94455,-1.428291,3.060538,-5.688773,0.222109,0.820085,0.338253,27.42,1,RUN
1759224773.96416,-7.204602,8.413524,2.649633,-0.119772,-1.386191,-0.998826,27.44,1,RUN
1759224773.98507,-7.776517,12.11466,7.421427,-1.363083,-7.055841,-2.44524,27.46,1,RUN
1759224774.00508,-1.245434,9.968109,1.363647,-2.143399,-4.772569,-1.724253,27.48,1,RUN
1759224774.02450,7.175273,20.866216,6.158036,0.352205,-1.646834,0.464641,27.50,1,RUN
1759224774.04506,-0.766743,32.544682,4.359841,-0.355286,0.432851,3.512899,27.52,1,RUN
1759224774.06418,3.016544,1.832013,-16.316484,3.13053,-0.745611,-0.457428,27.54,1,RUN
1759224774.08508,8.879046,10.072406,3.685425,0.773284,1.069565,-0.209295,27.56,1,RUN
1759224774.10505,13.164518,15.617677,11.358691,-0.567302,-0.136215,2.131031,27.58,1,RUN
1759224774.12508,13.682264,20.287268,8.388385,-1.719118,-3.418998,3.533493,27.60,1,RUN
1759224774.14505,7.581988,25.267806,-2.651578,-0.831568,1.088453,3.057982,27.62,1,RUN
1759224774.16420,-0.106692,24.478467,-4.582801,-1.930129,6.828137,4.391086,27.64,1,RUN
1759224774.18508,-12.534992,19.239954,-9.824756,-1.495354,0.934143,2.903827,27.66,1,RUN
1759224774.20508,-8.437765,11.59063,-7.724592,-1.350792,-1.190177,1.633967,27.68,1,RUN
1759224774.22507,-3.510498,7.720851,-2.721309,-0.545765,-0.692459,1.428473,27.70,1,RUN
1759224774.24406,-4.826711,1.932869,-3.185785,-0.155575,-0.097399,1.20333,27.72,1,RUN
1759224774.26421,-8.907927,-0.674866,-0.500388,0.385728,0.87498,0.747341,27.74,1,RUN
1759224774.28507,-10.347141,-0.686986,2.709937,0.70617,1.391502,-0.606718,27.76,1,RUN
1759224774.30509,-7.714417,-0.843358,1.990928,0.440897,0.98083,-1.912507,27.78,1,RUN
1759224774.32508,-4.771195,-0.675315,-2.829049,0.353799,0.821566,-2.570975,27.80,1,RUN
1759224774.34505,-1.13156,0.961571,-6.604405,0.637383,0.743776,-2.156264,27.82,1,RUN
1759224774.36422,0.85458,1.683573,-7.075165,1.473457,0.95817,-1.08585,27.84,1,RUN
1759224774.38451,-0.914884,2.711284,-0.130634,2.632357,0.962653,-1.149606,27.86,1,RUN
1759224774.40507,-0.266205,11.736975,4.818032,2.971105,-0.047995,-1.209061,27.88,1,RUN
1759224774.42508,1.521814,33.115251,10.609605,1.801559,1.187501,-0.71615,27.90,1,RUN
1759224774.44505,6.189909,53.902458,3.869479,0.706843,1.257593,0.291739,27.92,1,RUN
1759224774.46423,2.139369,25.949854,-2.612673,1.497878,-0.779395,-2.715276,27.94,1,RUN
1759224774.48507,10.106673,22.977004,5.66498,-0.219399,-0.590074,-2.989168,27.96,1,RUN
1759224774.50507,3.784036,12.97792,-2.033425,-0.886728,-0.319846,-1.532043,27.98,1,RUN
1759224774.52507,2.77054,14.151079,1.32938,-0.43779,1.908273,-0.667413,28.00,1,RUN
1759224774.54504,4.735432,11.437999,2.537854,0.20799,1.776925,-0.174419,28.02,1,RUN
1759224774.56424,8.237849,4.769549,1.909974,0.676037,0.636483,-0.132365,28.04,1,RUN
1759224774.58507,9.191041,-0.387561,-0.605284,0.584744,0.414971,-0.157999,28.06,1,RUN
1759224774.60507,8.454674,-5.26889,0.52433,0.006958,0.050353,0.314991,28.08,1,RUN
1759224774.62507,5.857564,-7.284209,1.608904,-0.547185,-0.560257,0.463265,28.10,1,RUN
1759224774.64460,1.790115,-7.77936,2.972701,-0.653733,-1.214421,0.526914,28.12,1,RUN
1759224774.66426,-1.08607,-8.298303,1.789366,-0.356361,-1.941462,0.260595,28.14,1,RUN
1759224774.68504,-5.221754,0.151433,-1.263839,-0.287541,0.740476,-0.349304,28.16,1,RUN
1759224774.70489,-9.759215,6.012888,2.566285,-0.376724,-3.395442,-1.87273,28.18,1,RUN
1759224774.72506,-5.495291,12.324003,5.667674,-1.377447,-7.253605,-3.259039,28.20,1,RUN
1759224774.74505,0.895731,11.920132,-0.369006,-1.375576,-4.444801,-1.369253,28.22,1,RUN
1759224774.76429,3.141193,12.947244,-1.177498,0.508709,-1.011505,1.191811,28.24,1,RUN
1759224774.78505,6.18961,49.677739,6.140678,0.636698,0.526218,2.9104,28.26,1,RUN
1759224774.80509,-4.351761,6.191705,-17.851616,2.367823,0.816708,-0.564159,28.28,1,RUN
1759224774.82508,4.894796,1.455076,2.689586,0.833235,0.503255,-0.396456,28.30,1,RUN
1759224774.84488,8.117092,8.718336,4.282927,-0.138167,-0.215045,1.41399,28.32,1,RUN
1759224774.86430,15.669302,18.054226,14.440777,-1.477905,-3.375257,4.30558,28.34,1,RUN
1759224774.88506,7.447164,26.245987,-1.598579,-0.182271,0.867506,3.030796,28.36,1,RUN
1759224774.90506,5.188534,26.016742,-2.945616,-1.217736,6.735711,3.855593,28.38,1,RUN
1759224774.92507,-2.79972,19.146431,-3.230077,-2.439555,4.578819,3.269751,28.40,1,RUN
1759224774.94505,-8.944887,12.696751,-6.090849,-1.662856,-2.477706,1.954125,28.42,1,RUN
1759224774.96431,-7.988553,8.806323,-6.545149,-1.388589,-0.760963,1.104015,28.44,1,RUN
1759224774.98507,-3.258808,6.710648,-4.667945,-0.421945,0.174929,1.238166,28.46,1,RUN
1759224775.00434,-6.147711,6.082769,-4.562899,0.064218,0.984302,0.840609,28.48,1,RUN
1759224775.02506,-8.533533,0.840664,0.719009,0.249205,1.624456,0.034874,28.50,1,RUN
1759224775.04504,-8.584709,-2.56823,2.204312,0.428102,0.902889,-1.233426,28.52,1,RUN
1759224775.06432,-6.250512,-2.915988,-0.997933,0.499129,0.66284,-1.719551,28.54,1,RUN
1759224775.08507,-2.212691,0.046088,-5.155764,1.030743,0.719564,-1.502293,28.56,1,RUN
1759224775.10506,0.979528,2.594417,-5.822848,1.939623,0.758056,-1.573356,28.58,1,RUN
1759224775.12505,0.887351,2.671779,-2.106149,2.874187,0.081196,-1.760531,28.60,1,RUN
1759224775.14504,0.667084,6.813898,1.261894,3.18215,-0.875168,-1.741802,28.62,1,RUN
1759224775.16433,0.827197,21.918916,2.486229,2.827849,-0.380408,-1.70108,28.64,1,RUN
1759224775.18406,6.385635,42.489598,8.52231,1.470493,1.287351,-1.322219,28.66,1,RUN
1759224775.20504,7.468114,32.658856,2.103007,0.444977,-2.578242,-2.124595,28.68,1,RUN
1759224775.22504,7.945757,26.665122,1.023222,0.269943,-1.985623,-3.166141,28.70,1,RUN
1759224775.24498,2.845359,18.302924,-1.400009,-0.428449,-0.838401,-2.017223,28.72,1,RUN
1759224775.26435,-1.827075,16.345364,-3.093608,-0.381577,0.859104,-1.730459,28.74,1,RUN
1759224775.28482,-0.782305,14.377181,1.93227,-0.146074,2.894928,-0.767646,28.76,1,RUN
1759224775.30507,3.620183,7.35379,3.539229,0.272502,1.774505,0.126538,28.78,1,RUN
1759224775.32507,7.502829,1.422305,-0.225504,0.778049,1.145341,0.524498,28.80,1,RUN
1759224775.34503,9.700856,-3.10079,0.808642,0.057766,1.363788,1.176554,28.82,1,RUN
1759224775.36438,7.139509,-6.489334,1.751209,-0.898352,-0.052147,1.36,28.84,1,RUN
1759224775.38506,4.948067,-5.752818,0.458789,-1.185225,-0.951433,1.471232,28.86,1,RUN
1759224775.40507,0.460435,-5.824195,-1.68058,-0.781933,-1.195422,1.609848,28.88,1,RUN
1759224775.42506,-2.169446,-1.345392,-7.334487,0.191005,-0.897393,0.820772,28.90,1,RUN
1759224775.44504,-6.007052,7.842058,1.72607,-0.294536,0.386687,-0.860484,28.92,1,RUN
1759224775.46438,-9.83972,10.692355,5.187487,-1.048047,-5.621058,-2.856386,28.94,1,RUN
1759224775.48506,-3.705326,9.301174,3.863344,-2.189229,-6.686717,-3.073473,28.96,1,RUN
1759224775.50506,4.224569,12.862998,0.679205,-0.092208,-1.410524,-0.648593,28.98,1,RUN
1759224775.52507,9.823409,32.557851,11.901726,0.465332,0.909108,4.052197,29.00,1,RUN
1759224775.54504,-9.153183,8.793155,-23.111378,3.099952,-3.7949,1.893272,29.02,1,RUN
1759224775.56440,5.550059,2.640954,2.038513,1.118057,0.721348,-0.86677,29.04,1,RUN
1759224775.58506,8.754847,12.449998,4.433463,-0.389953,0.955638,0.42741,29.06,1,RUN
1759224775.60507,12.401965,19.903896,11.566239,-1.008983,-2.203565,2.764522,29.08,1,RUN
1759224775.62484,7.724892,21.997626,1.410334,-0.444724,-2.626343,2.90426,29.10,1,RUN
1759224775.64503,4.519355,23.096863,-0.551863,-0.305441,2.762596,3.278859,29.12,1,RUN
1759224775.66442,-0.978331,20.543896,-0.799364,-2.024829,7.486836,3.902009,29.14,1,RUN
1759224775.68506,-7.438485,15.168465,-6.528389,-2.759457,1.786591,2.807641,29.16,1,RUN
1759224775.70506,-5.674557,11.109694,-9.95539,-1.722575,-2.713957,1.724918,29.18,1,RUN
1759224775.72506,-2.229451,9.477298,-4.086603,-0.747751,-0.393603,1.370036,29.20,1,RUN
1759224775.74503,-4.390367,5.332935,-3.292775,-0.276066,0.302669,1.141517,29.22,1,RUN
1759224775.76442,-7.174076,1.488595,-0.893785,-0.038837,0.813865,0.896414,29.24,1,RUN
1759224775.78505,-9.866505,-0.027384,0.866102,0.407812,1.03798,-0.02803,29.26,1,RUN
1759224775.80505,-8.298453,0.362722,0.318728,0.398658,0.567758,-1.294046,29.28,1,RUN
1759224775.82505,-6.447735,0.062549,-2.56404,0.319775,1.095217,-2.024602,29.30,1,RUN
1759224775.84502,-4.068946,0.757765,-5.306299,0.698739,1.211211,-2.254838,29.32,1,RUN
1759224775.86444,-0.048632,3.525013,-5.631013,2.064601,0.533783,-1.875908,29.34,1,RUN
1759224775.88435,0.037559,7.834127,-1.290475,3.469936,0.276698,-1.957334,29.36,1,RUN
1759224775.90505,0.840963,20.687249,4.858434,3.106902,0.913687,-1.934498,29.38,1,RUN
1759224775.92506,4.953005,36.496911,8.459313,1.405643,1.193714,-1.546467,29.40,1,RUN
1759224775.94407,9.491962,37.343411,0.136918,1.336211,-1.835945,-1.091597,29.42,1,RUN
1759224775.96447,7.820809,26.821343,0.419883,1.205367,-1.599315,-2.630388,29.44,1,RUN
1759224775.98505,9.180866,21.171327,6.516418,-0.111591,-2.201199,-2.569252,29.46,1,RUN
1759224776.00504,1.894861,14.460978,-0.504877,-0.885546,0.341658,-2.170437,29.48,1,RUN
1759224776.02482,1.143531,13.689895,1.918055,-0.636066,2.093016,-1.48004,29.50,1,RUN
1759224776.04459,2.825308,7.371747,0.908151,0.232152,1.967721,-0.835573,29.52,1,RUN
1759224776.06447,4.794239,2.107496,0.071976,0.705801,1.894585,-0.247123,29.54,1,RUN
1759224776.08505,7.58124,-3.46022,-0.389656,0.245781,2.087618,0.638759,29.56,1,RUN
1759224776.10505,6.89964,-8.222586,0.608426,-0.697758,0.670948,1.3303,29.58,1,RUN
1759224776.12507,4.538658,-8.780286,0.295385,-1.302239,-0.853124,1.276221,29.60,1,RUN
1759224776.14503,2.926463,-6.742072,-1.293168,-1.169683,-1.295911,1.51772,29.62,1,RUN
1759224776.16449,-0.935834,-3.35278,-6.9369,-0.216764,-0.846341,1.511877,29.64,1,RUN
1759224776.18506,-4.030638,6.859537,-2.582146,-0.059319,1.181588,0.451861,29.66,1,RUN
1759224776.20505,-7.127688,13.604153,2.195184,-0.318467,-3.483405,-1.552288,29.68,1,RUN
1759224776.22505,-8.417115,14.414141,8.581417,-1.649529,-8.021102,-3.315376,29.70,1,RUN
1759224776.24502,11.522544,35.808877,12.529456,-1.852119,-2.395404,-1.37233,29.72,1,RUN
1759224776.26450,0.502932,18.482189,-9.705645,0.435454,-1.322578,2.702003,29.74,1,RUN
1759224776.28504,6.058228,-2.907908,-13.313108,4.340178,1.434209,-0.857924,29.76,1,RUN
1759224776.30509,7.719355,7.724143,10.33936,1.345675,2.763764,0.15725,29.78,1,RUN
1759224776.32505,12.913276,12.870929,19.336022,-2.670583,-3.371621,2.610598,29.80,1,RUN
1759224776.34502,9.967211,20.370167,-0.390105,-2.334591,-5.131925,2.22168,29.82,1,RUN
1759224776.36452,12.208334,26.382157,-4.846912,0.094412,-0.740409,2.36971,29.84,1,RUN
1759224776.38503,-0.42123,20.234745,-4.442441,-1.550174,6.482874,4.924208,29.86,1,RUN
1759224776.40503,-11.566239,20.376751,-3.00996,-0.69066,4.515447,3.147512,29.88,1,RUN
1759224776.42505,-11.030835,12.174964,0.018854,-1.922907,-1.292856,1.153727,29.90,1,RUN
1759224776.44502,-8.897302,8.434324,-6.861183,-2.016752,-1.45794,0.550575,29.92,1,RUN
1759224776.46453,-5.618443,7.693468,-6.463746,-0.280342,-0.019388,0.70423,29.94,1,RUN
1759224776.48503,-4.154838,2.921375,-0.859369,-0.021841,0.159694,0.812076,29.96,1,RUN
1759224776.50413,-5.751172,0.0621,-0.519542,0.249915,0.821534,0.380814,29.98,1,RUN
1759224776.52505,-7.948301,-1.155502,-0.339528,0.502252,1.486788,-0.283408,30.00,1,RUN
1759224776.54432,-6.521656,-0.528071,-1.979257,0.597292,1.127951,-1.19404,30.02,1,RUN
1759224776.56453,-4.557961,-0.331148,-3.661931,0.876769,1.020831,-1.651213,30.04,1,RUN
1759224776.58509,-2.313397,0.491111,-3.804985,1.655136,0.779045,-1.727826,30.06,1,RUN
1759224776.60504,-1.275661,4.222175,-1.429189,2.810186,0.332148,-2.062129,30.08,1,RUN
1759224776.62503,-0.943615,12.714707,1.608006,3.196402,0.175467,-2.365476,30.10,1,RUN
1759224776.64502,3.59639,27.003452,6.96174,1.83567,0.717778,-1.998846,30.12,1,RUN
1759224776.66454,4.523395,43.084706,9.646238,0.324975,-0.254169,-0.889389,30.14,1,RUN
1759224776.68502,-1.385345,28.250083,-4.086154,0.767892,-2.783601,-2.360731,30.16,1,RUN
1759224776.70502,3.177255,26.7567,-1.651251,0.203815,-1.197869,-3.020035,30.18,1,RUN
1759224776.72503,4.500949,15.254057,-0.191835,-0.471383,0.900178,-1.604921,30.20,1,RUN
1759224776.74501,1.554286,13.78297,3.057695,-0.114074,3.031965,-0.971501,30.22,1,RUN
1759224776.76456,1.195305,12.647969,3.160496,0.314773,2.488932,-0.548811,30.24,1,RUN
1759224776.78503,4.028244,7.273435,1.828721,1.013554,1.647945,-0.218977,30.26,1,RUN
1759224776.80505,6.630442,0.651672,-0.036811,1.079191,1.63062,0.212402,30.28,1,RUN
1759224776.82504,9.984569,-3.285144,-0.455497,0.174981,0.962376,0.866768,30.30,1,RUN
1759224776.84433,9.586383,-6.761974,2.839523,-1.091646,-0.735171,0.861873,30.32,1,RUN
1759224776.86458,6.886472,-8.603863,1.069909,-1.527781,-1.616947,0.917506,30.34,1,RUN
1759224776.88501,1.904587,-6.863877,1.499668,-1.288631,-1.756412,1.091076,30.36,1,RUN
1759224776.90506,-1.28434,-3.627216,-1.509395,-0.834083,-1.044863,0.863844,30.38,1,RUN
1759224776.92506,-6.564452,5.259762,-5.836166,-0.276403,0.126383,-0.638887,30.40,1,RUN
1759224776.94501,-11.667992,15.618724,4.666748,-0.872517,-6.140241,-2.931173,30.42,1,RUN
1759224776.96459,-8.6507,14.789133,5.751172,-1.53393,-7.692762,-2.836228,30.44,1,RUN
1759224776.98503,5.053561,25.412805,3.363255,-0.402499,-1.991375,1.010129,30.46,1,RUN
1759224777.00454,7.015011,29.086109,-0.512958,2.437959,0.52877,2.739221,30.48,1,RUN
1759224777.02498,-1.66831,-0.392948,-16.669928,3.479353,3.73348,-1.066128,30.50,1,RUN
1759224777.04502,6.512079,3.170073,8.093299,0.866207,1.121566,-0.120903,30.52,1,RUN
1759224777.06460,11.864466,11.842619,14.448857,-2.327048,-3.532203,2.509851,30.54,1,RUN
1759224777.08503,15.112799,19.646669,7.584831,-2.105637,-5.39225,3.477728,30.56,1,RUN
1759224777.10503,10.868628,28.082639,-5.669918,-0.448971,0.842484,3.37797,30.58,1,RUN
1759224777.12505,3.348291,23.140408,-3.997868,-0.636362,6.406481,4.595183,30.60,1,RUN
1759224777.14501,-2.742857,20.921432,1.400159,-1.7922,6.450036,3.76217,30.62,1,RUN
1759224777.16462,-12.417377,18.560599,-2.373103,-2.574773,-3.209723,1.861529,30.64,1,RUN
1759224777.18509,-8.60925,11.476905,-9.430611,-1.299216,-2.192056,1.351964,30.66,1,RUN
1759224777.20502,-5.517438,7.756316,-9.548974,-0.025878,0.168482,1.389629,30.68,1,RUN
1759224777.22506,-5.439925,3.490746,-1.076343,-0.033502,-0.040817,1.132281,30.70,1,RUN
1759224777.24501,-7.347655,0.505027,-0.429011,0.404744,0.88119,0.290819,30.72,1,RUN
1759224777.26465,-9.278729,-1.42051,1.561768,0.561144,1.330503,-0.160881,30.74,1,RUN
1759224777.28479,-8.236503,-1.699434,0.983269,0.407662,1.328476,-1.371259,30.76,1,RUN
1759224777.30503,-5.949741,-1.203236,-2.756025,0.398689,0.733645,-2.239529,30.78,1,RUN
1759224777.32504,-1.433079,0.518045,-6.533926,0.948765,0.323329,-2.242917,30.80,1,RUN
1759224777.34501,1.410484,2.93185,-5.068675,2.340643,0.040949,-1.845151,30.82,1,RUN
1759224777.36465,0.352247,6.20607,-0.493954,3.508894,-0.193555,-1.78884,30.84,1,RUN
1759224777.38504,0.988656,19.230377,5.872677,3.000448,0.583564,-1.74971,30.86,1,RUN
1759224777.40506,2.388067,37.396682,10.938509,1.005718,1.705378,-1.428197,30.88,1,RUN
1759224777.42507,6.051195,41.748891,-0.849493,0.98539,-2.061421,-1.293682,30.90,1,RUN
1759224777.44501,1.62671,27.425281,-4.43481,1.058282,-2.34438,-3.025878,30.92,1,RUN
1759224777.46469,6.125565,21.813571,3.6338,-0.374256,-1.249905,-2.582321,30.94,1,RUN
1759224777.48504,0.942418,15.728109,-1.12707,-0.911613,1.62869,-1.957174,30.96,1,RUN
1759224777.50466,0.064494,14.601338,1.576283,-0.273098,3.196698,-1.34724,30.98,1,RUN
1759224777.52503,3.908534,9.110536,2.430564,0.704601,2.932945,-0.638598,31.00,1,RUN
1759224777.54501,7.428011,1.856554,0.94571,1.082461,2.531048,-0.190288,31.02,1,RUN
1759224777.56470,10.485257,-3.729418,0.482581,0.350411,2.200173,0.49819,31.04,1,RUN
1759224777.58504,10.050709,-7.772776,1.218798,-0.557951,0.559958,1.082001,31.06,1,RUN
1759224777.60505,6.497265,-7.738658,0.345663,-0.935531,-0.57414,1.351782,31.08,1,RUN
1759224777.62503,1.549946,-5.980865,0.601094,-0.658627,-0.560135,1.508366,31.10,1,RUN
1759224777.64500,-1.081431,-3.378368,-0.917578,-0.650979,-0.909738,1.139476,31.12,1,RUN
1759224777.66475,-1.757943,3.178752,-6.23076,-0.146531,-0.885348,0.319712,31.14,1,RUN
1759224777.68504,-5.093215,12.028768,0.829591,-0.059676,-2.169388,-1.19415,31.16,1,RUN
1759224777.70501,-10.31871,13.166463,7.412897,-0.774601,-7.457999,-2.96823,31.18,1,RUN
1759224777.72504,4.057573,28.118103,7.275979,-1.420058,-5.190997,-2.428269,31.20,1,RUN
1759224777.74501,0.659004,25.634119,-11.762114,0.174124,-1.284091,1.189128,31.22,1,RUN
1759224777.76476,6.117933,-0.30137,-3.238906,3.420406,0.652277,-0.68874,31.24,1,RUN
1759224777.78504,5.992687,4.205565,10.526557,0.248444,1.433014,0.517707,31.26,1,RUN
1759224777.80501,10.751312,9.863213,13.105261,-3.132042,-2.851529,2.511101,31.28,1,RUN
1759224777.82503,10.477924,23.773076,-1.728763,-2.085458,-4.17937,4.54925,31.30,1,RUN
1759224777.84500,9.254338,27.55756,-4.218883,2.005805,1.504801,3.307259,31.32,1,RUN
1759224777.86477,-1.355717,22.690897,-3.413383,-0.931204,9.950114,4.867493,31.34,1,RUN
1759224777.88503,-6.101324,16.844555,0.303166,-1.328525,0.938722,2.869169,31.36,1,RUN
1759224777.90501,-5.693112,13.615376,-2.01487,-2.225676,-2.480022,1.329689,31.38,1,RUN
1759224777.92503,-6.53632,10.472687,-9.998336,-1.879373,-1.397921,0.978451,31.40,1,RUN
1759224777.94500,-4.641609,7.881562,-4.667047,-0.544703,0.014753,1.232701,31.42,1,RUN
1759224777.96478,-5.778256,4.906617,-1.744026,-0.316904,0.361015,0.968461,31.44,1,RUN
1759224777.98503,-7.843405,3.165584,0.527024,-0.343283,0.886164,0.63248,31.46,1,RUN
1759224778.00503,-8.61763,-0.140061,-0.143054,0.081488,1.562043,-0.053357,31.48,1,RUN
1759224778.02502,-7.31683,-1.617433,-2.468721,0.185287,1.1708,-1.036871,31.50,1,RUN
1759224778.04500,-5.460276,-1.119289,-6.947375,0.419287,0.557039,-1.577042,31.52,1,RUN
1759224778.06480,-0.389507,1.757494,-7.039402,1.406198,0.723519,-1.257059,31.54,1,RUN
1759224778.08502,1.033996,2.214188,-2.572121,2.372566,0.066279,-0.916584,31.56,1,RUN
1759224778.10504,-0.680402,5.308244,1.154005,3.361048,-0.316722,-1.085594,31.58,1,RUN
1759224778.12503,-3.005621,18.907609,6.945429,3.736832,1.175081,-1.54238,31.60,1,RUN
1759224778.14500,-0.194978,44.211029,14.165743,0.911972,2.062639,-1.936812,31.62,1,RUN
1759224778.16482,7.350947,42.419268,-3.316119,0.963805,-3.180919,-1.583601,31.64,1,RUN
1759224778.18502,3.823839,23.141306,-2.33719,0.740699,-1.584125,-3.670794,31.66,1,RUN
1759224778.20503,6.262034,20.363433,6.004059,-1.093367,-1.202582,-3.294072,31.68,1,RUN
1759224778.22502,-0.875081,13.737779,-2.350059,-1.444209,0.444875,-2.305424,31.70,1,RUN
1759224778.24494,2.420987,14.868292,2.618957,-0.730561,3.506302,-1.290802,31.72,1,RUN
1759224778.26483,7.125593,7.043143,3.255516,0.147728,2.595732,-0.432117,31.74,1,RUN
1759224778.28503,9.712977,0.766593,-0.13213,0.440556,2.420338,-0.30929,31.76,1,RUN
1759224778.30504,9.520693,-4.456058,0.042347,0.235415,2.459703,0.539031,31.78,1,RUN
1759224778.32502,7.92361,-7.874829,0.282366,-0.273708,0.809649,1.40417,31.80,1,RUN
1759224778.34499,4.973655,-7.579294,-1.208922,-0.423833,-0.457192,1.588482,31.82,1,RUN
1759224778.36485,-0.12405,-7.23004,-1.963994,-0.381886,-0.737618,1.447746,31.84,1,RUN
1759224778.38504,-1.368885,-2.410063,-4.260931,-0.168839,-0.103663,0.381628,31.86,1,RUN
1759224778.40502,-0.757316,6.135591,1.005565,-0.432189,-0.407774,-0.344647,31.88,1,RUN
1759224778.42502,-7.095965,11.778425,3.218406,-0.848646,-5.352705,-1.935635,31.90,1,RUN
1759224778.44499,-7.255478,24.18832,12.614001,-2.880266,-7.227772,-3.274926,31.92,1,RUN
1759224778.46486,4.795436,48.344917,4.118027,-1.887141,-2.301592,0.018342,31.94,1,RUN
1759224778.48503,2.969109,4.019116,-32.159216,7.719165,-0.066269,-0.806836,31.96,1,RUN
1759224778.50503,8.722077,-0.446668,16.885855,1.537572,2.352241,0.038624,31.98,1,RUN
1759224778.52502,7.147889,1.51553,19.790022,-2.754867,-3.248211,1.609682,32.00,1,RUN
1759224778.54500,12.360964,7.313388,9.829245,-4.69324,-5.394136,3.634217,32.02,1,RUN
1759224778.56487,10.389788,28.578388,-10.46326,-0.337548,-2.367668,4.417397,32.04,1,RUN
1759224778.58500,6.347627,38.724267,-8.030003,3.602052,6.137159,4.89185,32.06,1,RUN
1759224778.60503,-11.32622,24.418313,-4.12895,-1.717261,14.303867,5.319324,32.08,1,RUN
1759224778.62500,-6.749703,11.237934,1.338359,-1.429753,-2.609434,1.962431,32.10,1,RUN
1759224778.64499,-5.755212,10.922198,-3.346046,-1.982165,-2.157572,0.712967,32.12,1,RUN
1759224778.66486,-2.668038,5.332935,-5.163395,-1.315384,-0.198372,0.68311,32.14,1,RUN
1759224778.68499,-3.706224,1.140089,-3.614347,-0.330969,0.491901,0.794291,32.16,1,RUN
1759224778.70506,-5.226841,0.619649,-1.572542,0.035069,0.330067,0.196174,32.18,1,RUN
1759224778.72453,-5.868488,-0.768239,-0.694019,0.038473,0.902969,-0.366429,32.20,1,RUN
1759224778.74486,-5.939865,-2.933795,-1.838148,0.617332,0.955156,-1.021095,32.22,1,RUN
1759224778.76491,-3.971083,-1.743577,-3.257611,0.835936,0.214217,-1.113155,32.24,1,RUN
1759224778.78502,-1.514183,1.480514,-5.670966,1.015817,0.34666,-1.26549,32.26,1,RUN
1759224778.80502,0.230143,3.80693,-4.542698,2.03247,0.007052,-1.362479,32.28,1,RUN
1759224778.82502,-0.172383,4.594623,-1.033248,3.267079,-0.564991,-1.551775,32.30,1,RUN
1759224778.84499,-2.833538,11.518953,1.937358,3.478668,0.843611,-2.259751,32.32,1,RUN
1759224778.86491,-0.343867,28.841152,10.708067,0.727413,0.505385,-2.533125,32.34,1,RUN
1759224778.88502,5.492598,58.248383,-0.607379,1.33785,-2.611053,-2.298656,32.36,1,RUN
1759224778.90500,0.475997,31.279945,0.302268,1.078019,-1.522379,-3.020887,32.38,1,RUN
1759224778.92505,1.159991,25.964219,5.83048,-0.899377,0.217346,-2.802647,32.40,1,RUN
1759224778.94460,6.881534,18.88651,0.223409,-0.456906,1.176851,-1.932441,32.42,1,RUN
1759224778.96494,3.23711,13.949816,-2.065149,1.062809,2.741368,-1.217885,32.44,1,RUN
1759224778.98502,5.92535,9.090784,-0.093524,1.720894,2.704376,-0.349679,32.46,1,RUN
1759224779.00501,8.86109,2.083255,1.250372,1.385793,2.257329,-0.179182,32.48,1,RUN
1759224779.02503,8.812009,-3.413683,1.274613,0.635813,1.627496,0.283631,32.50,1,RUN
1759224779.04498,9.537751,-6.583306,1.045518,-0.075548,0.297276,0.838935,32.52,1,RUN
1759224779.06495,9.47625,-8.751555,3.256264,-1.209159,-1.66967,1.19631,32.54,1,RUN
1759224779.08500,4.028244,-10.59135,-0.545279,-1.492256,-1.779693,0.943972,32.56,1,RUN
1759224779.10501,-1.412878,-7.476194,3.474585,-1.335135,-1.37382,0.547539,32.58,1,RUN
1759224779.12500,0.894683,-0.771831,-0.338181,-0.836343,0.20676,0.739197,32.60,1,RUN
1759224779.14498,-3.12159,6.660519,-1.960402,-0.043996,-1.141632,-0.448182,32.62,1,RUN
1759224779.16497,-10.978462,10.60781,8.481759,-1.327646,-6.586118,-2.803451,32.64,1,RUN
1759224779.18499,-5.361366,16.11582,6.094889,-1.952863,-6.149107,-2.103578,32.66,1,RUN
1759224779.20500,-0.219668,28.238112,0.651672,-0.332902,-3.825482,0.273245,32.68,1,RUN
1759224779.22500,-10.429591,38.363191,-10.108619,3.224916,0.119666,-0.85623,32.70,1,RUN
1759224779.24498,5.088127,-0.184653,-2.675969,2.057199,2.786286,-1.276786,32.72,1,RUN
1759224779.26496,4.297891,0.658705,5.90036,0.641891,0.556948,-0.635205,32.74,1,RUN
1759224779.28501,10.498275,6.835146,11.964424,-0.506765,-1.092426,0.158256,32.76,1,RUN
1759224779.30500,20.394109,19.473838,6.878541,-2.482224,-4.454938,5.858532,32.78,1,RUN
1759224779.32500,7.306355,28.94081,-9.094375,-1.332515,-2.218592,5.992309,32.80,1,RUN
1759224779.34498,1.55264,29.478159,-7.368904,0.808522,5.765099,5.083841,32.82,1,RUN
1759224779.36499,-8.534281,23.224355,2.474108,-0.413626,10.351686,4.748348,32.84,1,RUN
1759224779.38502,-14.862905,12.826935,-0.152181,-3.008554,-1.447201,1.870538,32.86,1,RUN
1759224779.40501,-5.820155,9.370157,-10.743381,-2.344929,-3.670721,0.763054,32.88,1,RUN
1759224779.42502,-0.069133,7.85373,-6.340145,-0.631877,-0.265302,1.477727,32.90,1,RUN
1759224779.44498,-3.750068,2.0644,-1.99003,-0.350021,0.456164,1.397459,32.92,1,RUN
1759224779.46501,-7.522582,-0.688782,0.180313,0.272002,1.03708,0.894187,32.94,1,RUN
1759224779.48501,-10.498874,-1.224634,1.323096,0.696335,1.035793,-0.083768,32.96,1,RUN
1759224779.50501,-9.088838,-1.338957,0.87104,0.371499,0.659302,-1.403352,32.98,1,RUN
1759224779.52501,-6.233603,-1.232266,-3.839252,0.343383,0.40928,-2.244796,33.00,1,RUN
1759224779.54498,-0.654814,1.08188,-7.354389,1.071515,0.864001,-2.046395,33.02,1,RUN
1759224779.56453,0.63985,2.810643,-5.113117,2.249536,1.045718,-1.601518,33.04,1,RUN
1759224779.58501,-0.157119,5.641487,0.748936,3.326961,0.736036,-1.708917,33.06,1,RUN
1759224779.60501,-0.323068,15.695488,4.037223,3.224716,-0.028812,-1.628329,33.08,1,RUN
1759224779.62501,-1.563563,35.042284,11.198429,1.502169,1.331107,-1.504628,33.10,1,RUN
1759224779.64498,5.942109,46.880115,-0.278625,0.682969,-2.888741,-2.174735,33.12,1,RUN
1759224779.66454,2.537106,31.973067,-4.582352,0.230083,-2.337078,-2.658855,33.14,1,RUN
1759224779.68498,9.638008,22.565949,4.148553,-0.283875,-1.334071,-3.187399,33.16,1,RUN
1759224779.70501,-1.367089,16.164303,-2.864962,-0.615352,1.508397,-2.47003,33.18,1,RUN
1759224779.72500,-2.351256,14.604929,1.096993,-0.299961,3.240445,-1.609833,33.20,1,RUN
1759224779.74498,1.825429,7.378181,2.46094,0.478918,2.317252,-0.547534,33.22,1,RUN
1759224779.76456,6.671892,1.532289,0.277877,0.800872,1.617369,0.282951,33.24,1,RUN
1759224779.78502,10.547057,-3.550152,-0.25588,0.204293,1.712682,1.148272,33.26,1,RUN
1759224779.80501,10.64073,-7.674464,2.367417,-0.552083,0.472482,1.649624,33.28,1,RUN
1759224779.82500,7.95683,-8.301445,3.598186,-1.01131,-0.658044,1.583671,33.30,1,RUN
1759224779.84498,3.399467,-7.53156,-0.710779,-0.802405,-1.14971,1.520715,33.32,1,RUN
1759224779.86457,-0.897676,-4.63712,-1.606509,-0.311018,-0.84553,1.091208,33.34,1,RUN
1759224779.88501,-0.197821,3.338116,-5.045181,-0.06564,0.312654,0.292165,33.36,1,RUN
1759224779.90501,-9.367314,14.071771,3.834314,-0.404295,-1.884087,-1.460348,33.38,1,RUN
1759224779.92500,-12.612355,14.454544,9.577704,-2.185247,-9.217694,-3.876564,33.40,1,RUN
1759224779.94497,0.245256,15.765519,1.645415,-2.647333,-5.55764,-2.692691,33.42,1,RUN
1759224779.96457,6.437709,36.302532,11.119271,-0.116891,-0.000065,2.028742,33.44,1,RUN
1759224779.98501,-4.742165,8.331373,-26.395774,4.730857,-1.45322,-0.101239,33.46,1,RUN
1759224780.00470,5.491401,1.465551,4.323629,1.530977,2.934733,-0.303416,33.48,1,RUN
1759224780.02500,8.787019,9.457845,10.263045,-0.716888,1.206644,1.800246,33.50,1,RUN
1759224780.04401,11.116877,17.221941,6.864326,-2.2123,-3.028353,5.05765,33.52,1,RUN
1759224780.06459,5.96665,26.574591,-2.182464,-0.483656,-3.340917,5.197153,33.54,1,RUN
1759224780.08500,7.996334,31.95541,2.37819,0.27235,3.461793,3.355129,33.56,1,RUN
1759224780.10501,-3.034202,20.358495,-2.57646,-2.36905,9.709271,4.134167,33.58,1,RUN
1759224780.12501,-11.161768,10.431986,-5.871929,-2.461632,1.043496,2.754467,33.60,1,RUN
1759224780.14498,-3.881151,7.883657,-7.642441,-1.769502,-1.566036,1.479928,33.62,1,RUN
1759224780.16463,0.578948,7.425168,-6.000767,-0.985162,-0.822907,1.128905,33.64,1,RUN
1759224780.18498,-1.634043,4.581604,-3.608361,-0.244968,0.023465,0.933938,33.66,1,RUN
1759224780.20501,-6.803423,2.337639,-1.35033,0.541086,-0.011628,0.591595,33.68,1,RUN
1759224780.22501,-9.352051,-1.045219,1.182137,0.759821,0.660855,-0.254212,33.70,1,RUN
1759224780.24498,-8.63005,-1.268328,1.752406,0.448657,0.727443,-1.563164,33.72,1,RUN
1759224780.26462,-6.765715,-0.808193,-1.68043,0.460232,0.170872,-2.586634,33.74,1,RUN
1759224780.28500,-4.436306,-0.318728,-6.562656,0.652839,-0.26805,-2.916814,33.76,1,RUN
1759224780.30499,-0.338031,2.367117,-9.485378,1.671177,-0.195183,-2.217562,33.78,1,RUN
1759224780.32503,-0.820912,4.656573,-1.722778,3.508857,0.617924,-1.847362,33.80,1,RUN
1759224780.34497,-0.444573,14.320768,7.185897,3.68761,1.23876,-1.65543,33.82,1,RUN
1759224780.36464,-2.474407,39.050925,13.41531,1.212416,2.083682,-1.571893,33.84,1,RUN
1759224780.38500,6.700473,56.275261,-2.709189,1.191785,-2.639509,-2.079112,33.86,1,RUN
1759224780.40503,3.225887,31.364191,-3.239504,0.937669,-0.895707,-2.671352,33.88,1,RUN
1759224780.42500,10.994324,21.470003,5.685481,-0.082758,-1.556412,-2.285617,33.90,1,RUN
1759224780.44497,1.215806,14.082096,-3.185934,-1.039576,1.107338,-2.70627,33.92,1,RUN
1759224780.46466,1.654992,13.492972,0.30975,-0.283462,3.224022,-1.725336,33.94,1,RUN
1759224780.48500,5.064485,7.055263,2.079215,0.997624,2.294894,-0.641687,33.96,1,RUN
1759224780.50499,8.585308,0.122703,-0.931195,0.971836,1.699823,0.094243,33.98,1,RUN
1759224780.52500,11.632378,-4.944026,0.173131,0.29176,1.420531,0.72207,34.00,1,RUN
1759224780.54497,10.123283,-8.796147,2.920627,-0.167401,-0.154341,1.132123,34.02,1,RUN
1759224780.56466,6.014235,-10.138097,2.512415,-1.001197,-1.407757,1.611987,34.04,1,RUN
1759224780.58497,0.751779,-7.096713,0.951246,-0.639725,-1.46143,1.677075,34.06,1,RUN
1759224780.60500,-1.200991,-4.68231,-1.364396,-0.458264,-1.59595,1.333699,34.08,1,RUN
1759224780.62498,-1.215207,2.654571,-3.513641,-0.191243,0.036379,0.75097,34.10,1,RUN
1759224780.64496,-9.483732,11.913398,6.631639,-0.415999,-3.064561,-1.232909,34.12,1,RUN
1759224780.66468,-12.36246,14.870536,10.19047,-2.461184,-8.112933,-3.702701,34.14,1,RUN
1759224780.68499,-5.432743,23.149835,8.495825,-2.567771,-4.939188,-2.410171,34.16,1,RUN
1759224780.70496,1.832911,46.608373,4.589535,2.674423,-3.330394,-0.102387,34.18,1,RUN
1759224780.72500,1.795053,3.039738,-26.227731,2.936742,4.016508,-0.859604,34.20,1,RUN
1759224780.74497,5.280112,1.116297,5.851728,0.522106,2.410066,0.319317,34.22,1,RUN
1759224780.76470,7.19712,5.114015,15.703419,-2.239794,-2.246567,2.255535,34.24,1,RUN
1759224780.78500,12.430545,15.656732,7.293786,-3.086838,-5.030768,5.890807,34.26,1,RUN
1759224780.80498,8.585906,28.75526,-5.863998,1.562899,-1.19265,4.808096,34.28,1,RUN
1759224780.82500,5.757606,33.977911,-5.717054,-0.143661,9.314545,4.899227,34.30,1,RUN
1759224780.84496,-4.865616,21.152622,1.297957,-2.24532,6.80157,3.580481,34.32,1,RUN
1759224780.86475,-15.235951,14.4517,-0.322319,-2.426944,-2.485241,1.199006,34.34,1,RUN
1759224780.88499,-7.540538,9.648184,-9.886556,-1.253718,-0.75968,0.919044,34.36,1,RUN
1759224780.90500,0.497395,5.861155,-5.245397,-0.455338,0.312379,1.23248,34.38,1,RUN
1759224780.92499,-1.136348,1.489792,-3.899706,0.102611,0.17249,0.748825,34.40,1,RUN
1759224780.94497,-4.730793,1.546505,-1.665616,0.575823,0.142972,0.439676,34.42,1,RUN
1759224780.96473,-7.25907,-0.501885,0.274585,0.642489,0.887662,-0.322949,34.44,1,RUN
1759224780.98501,-7.86585,-1.444901,1.154753,0.576792,0.772547,-1.4131,34.46,1,RUN
1759224781.00442,-6.123021,-0.667533,-1.412878,0.886807,0.488717,-2.138515,34.48,1,RUN
1759224781.02497,-3.78628,-0.50802,-4.138976,1.430463,0.471385,-2.216917,34.50,1,RUN
1759224781.04496,0.799514,0.562488,-5.658845,2.484013,0.142776,-1.498,34.52,1,RUN
1759224781.06474,0.271742,3.135506,-1.791611,3.383196,-0.319001,-1.402258,34.54,1,RUN
1759224781.08496,-0.591218,11.439944,3.606865,2.475885,0.357877,-1.534927,34.56,1,RUN
1759224781.10498,0.218022,28.639291,6.667103,0.609088,0.696183,-2.05202,34.58,1,RUN
1759224781.12497,4.582951,56.800639,-1.263241,0.8121,-2.796061,-2.422394,34.60,1,RUN
1759224781.14496,-0.320374,36.31989,-0.677709,0.485502,-1.86057,-2.978127,34.62,1,RUN
1759224781.16474,4.314052,25.267656,3.211373,-0.586879,-0.095391,-2.563343,34.64,1,RUN
1759224781.18499,1.084274,16.95828,-0.742352,-0.494805,3.256992,-2.245577,34.66,1,RUN
1759224781.20497,0.443376,15.115643,2.22975,0.431261,3.613736,-1.330308,34.68,1,RUN
1759224781.22498,3.362058,8.664317,1.374272,1.191029,2.917045,-0.236872,34.70,1,RUN
1759224781.24496,6.713192,1.055244,1.497274,0.959986,2.283518,0.266106,34.72,1,RUN
1759224781.26475,9.897031,-4.510526,1.414375,0.173438,1.206454,0.653064,34.74,1,RUN
1759224781.28497,11.664401,-8.375666,2.329259,-0.546807,-0.127592,0.95383,34.76,1,RUN
1759224781.30498,9.733178,-10.674548,3.103035,-0.988286,-0.596228,1.246323,34.78,1,RUN
1759224781.32504,3.742885,-10.83077,-0.146944,-1.152882,-1.174022,1.363494,34.80,1,RUN
1759224781.34495,2.483236,-3.31552,1.645415,-1.279229,-1.1726,0.886904,34.82,1,RUN
1759224781.36477,1.75495,3.045574,-7.162853,-1.020215,-0.483889,0.71507,34.84,1,RUN
1759224781.38399,-12.628815,15.4637,-0.488118,0.054113,1.049075,-0.617689,34.86,1,RUN
1759224781.40498,-14.169035,17.243789,7.701249,-0.966877,-7.612288,-3.537248,34.88,1,RUN
1759224781.42499,-4.890905,19.345748,7.669675,-2.769162,-10.296852,-4.113504,34.90,1,RUN
1759224781.44496,2.740912,43.768849,-5.257816,0.048959,-1.052837,0.727495,34.92,1,RUN
1759224781.46480,3.589058,3.563769,-9.43495,6.39044,2.302572,-0.154066,34.94,1,RUN
1759224781.48400,7.337181,-0.82989,14.373889,1.353281,4.013131,0.55823,34.96,1,RUN
1759224781.50499,6.471078,2.822913,10.464756,-3.256688,-2.37144,2.193757,34.98,1,RUN
1759224781.52502,13.318645,13.70456,0.029928,-3.704972,-3.572374,4.478299,35.00,1,RUN
1759224781.54453,9.352949,41.659558,-9.894338,0.092965,-1.6449,7.526627,35.02,1,RUN
1759224781.56486,-1.053598,39.93678,0.765247,3.274614,9.772449,5.873468,35.04,1,RUN
1759224781.58403,-10.493038,17.282545,4.744111,-4.067009,7.997024,3.300915,35.06,1,RUN
1759224781.60498,-6.774992,8.170512,-10.610354,-1.91084,-3.070523,0.971471,35.08,1,RUN
1759224781.62498,-0.949002,3.643526,-7.278223,-1.300394,-0.865878,0.780061,35.10,1,RUN
1759224781.64496,0.117166,2.032528,-5.913977,-0.614433,-0.158948,0.812546,35.12,1,RUN
1759224781.66487,-4.697274,3.454983,-1.59394,0.168474,-0.316287,0.778466,35.14,1,RUN
1759224781.68403,-6.93286,2.339584,0.703297,0.672001,-0.290174,0.274438,35.16,1,RUN
1759224781.70501,-7.662493,-0.641646,0.911742,0.6447,1.012986,-0.625509,35.18,1,RUN
1759224781.72502,-6.46225,-1.043722,-1.431134,0.365045,0.9008,-1.636051,35.20,1,RUN
1759224781.74496,-4.907964,-0.770634,-4.28592,0.852139,-0.705356,-2.360498,35.22,1,RUN
1759224781.76489,-2.268805,-0.430807,-6.440552,1.380676,-0.600966,-2.431345,35.24,1,RUN
1759224781.78402,-0.559794,0.47914,-4.15394,2.410203,0.32797,-1.94667,35.26,1,RUN
1759224781.80500,-1.811812,3.676446,0.997634,3.359721,0.776493,-1.996649,35.28,1,RUN
1759224781.82499,-2.363227,15.077036,8.147768,3.290619,1.000856,-2.166326,35.30,1,RUN
1759224781.86489,1.359308,40.765623,-7.635558,0.51002,-5.177379,-1.699958,35.34,1,RUN
1759224781.88407,10.421062,27.423485,0.358083,0.452317,0.388072,-3.452683,35.36,1,RUN
1759224781.90499,3.529801,13.536517,2.631078,-0.153377,-0.089315,-2.022615,35.38,1,RUN
1759224781.92498,-3.155408,14.982764,1.401356,-0.294604,3.245985,-1.956793,35.40,1,RUN
1759224781.94496,-0.489764,13.256994,3.152715,0.047372,3.23426,-1.174435,35.42,1,RUN
1759224781.96491,5.734712,5.404012,2.782811,0.90715,2.055329,-0.235842,35.44,1,RUN
1759224781.98409,10.929531,-2.434305,0.095618,0.733341,1.699989,0.447852,35.46,1,RUN
1759224782.00498,13.804219,-9.522638,2.881571,-0.243304,1.294186,0.966813,35.48,1,RUN
1759224782.02499,11.436503,-11.350012,5.812972,-1.501089,-0.390561,1.238546,35.50,1,RUN
1759224782.04496,2.307561,-10.191518,-0.323068,-1.126286,-0.354638,1.191082,35.52,1,RUN
1759224782.06493,1.358709,-5.909039,-0.843657,-0.719196,-1.345265,0.952881,35.54,1,RUN
1759224782.08411,1.759738,0.134375,-7.771429,-0.599851,-0.06709,0.688389,35.56,1,RUN
1759224782.10500,-6.213701,11.170896,0.54094,-0.441647,0.859687,-0.405159,35.58,1,RUN
1759224782.12499,-11.127351,16.85488,7.146393,-1.42682,-7.599702,-3.11626,35.60,1,RUN
1759224782.14495,-4.399046,11.809849,2.451513,-2.313066,-7.624204,-3.326551,35.62,1,RUN
1759224782.16495,5.546168,10.944045,1.175104,0.508329,-1.626216,-0.764468,35.64,1,RUN
1759224782.18408,4.119823,43.785759,6.165817,0.83958,-1.014148,2.895033,35.66,1,RUN
1759224782.20501,0.810886,5.142296,-15.858593,2.991542,0.8689,0.26452,35.68,1,RUN
1759224782.22497,4.712836,3.067272,7.810634,0.261902,0.772541,0.116464,35.70,1,RUN
1759224782.24495,9.165752,10.216358,9.464728,-2.569157,-2.171233,1.716045,35.72,1,RUN
1759224782.26494,14.142699,23.811682,1.065869,-2.210503,-4.016276,3.925967,35.74,1,RUN
1759224782.28413,9.395296,30.816518,-4.484789,1.765876,0.723507,4.19601,35.76,1,RUN
1759224782.30499,-0.087987,23.934984,-1.111358,-0.172109,8.985366,5.321224,35.78,1,RUN
1759224782.32496,-8.01863,17.314268,-1.93227,-2.563078,8.308856,3.859195,35.80,1,RUN
1759224782.34495,-5.439776,9.499743,-5.671564,-2.013367,-2.695405,1.943811,35.82,1,RUN
1759224782.36497,-1.405995,7.529465,-7.585878,-1.755479,-2.140123,1.254897,35.84,1,RUN
1759224782.38418,-0.170886,5.852476,-4.689942,-1.04658,-0.195882,1.23919,35.86,1,RUN
1759224782.40498,-8.065616,3.062184,-2.37026,-0.031639,-0.049698,1.06089,35.88,1,RUN
1759224782.42498,-10.126874,0.873135,1.762731,0.509463,0.258043,-0.018706,35.90,1,RUN
1759224782.44495,-8.730157,-0.84216,3.200599,0.461994,0.196315,-1.391506,35.92,1,RUN
1759224782.46498,-7.067234,-0.481085,-0.059406,0.189739,-0.575479,-2.497312,35.94,1,RUN
1759224782.48414,-5.75611,-0.246303,-4.743961,0.083594,-0.596562,-2.957534,35.96,1,RUN
1759224782.50498,-3.257311,-0.250044,-9.865308,0.824892,-0.737628,-2.673332,35.98,1,RUN
1759224782.52497,-0.591069,2.875735,-6.813599,2.635919,0.137804,-1.60875,36.00,1,RUN
1759224782.54462,-1.917756,5.824344,1.33791,3.585505,1.812236,-1.45062,36.02,1,RUN
1759224782.56495,-1.218948,18.377443,10.957363,2.888699,2.246947,-1.228669,36.04,1,RUN
1759224782.58422,-1.053748,31.112202,11.900828,1.43854,1.211537,-0.523763,36.06,1,RUN
1759224782.60495,2.287809,46.044089,-2.290204,1.297513,-4.074774,-1.595953,36.08,1,RUN
1759224782.62495,1.327884,35.9235,-3.097349,-0.274806,-1.803279,-3.269022,36.10,1,RUN
1759224782.64494,7.866598,24.335863,2.702156,-1.671681,-0.808017,-3.306728,36.12,1,RUN
1759224782.66495,0.703895,14.778958,-2.004994,-0.348136,3.27248,-2.88352,36.14,1,RUN
1759224782.68417,0.049979,12.857013,1.174655,0.962097,4.207131,-1.275623,36.16,1,RUN
1759224782.70497,3.469647,6.600515,2.346916,1.189425,3.355346,-0.245082,36.18,1,RUN
1759224782.72498,8.628703,0.729184,3.398569,0.716511,2.711697,0.148921,36.20,1,RUN
1759224782.74495,12.062437,-3.726725,1.322497,0.279171,2.256984,0.691476,36.22,1,RUN
1759224782.76497,13.925275,-9.736919,1.778892,-0.336144,0.563864,1.148999,36.24,1,RUN
1759224782.78421,12.300061,-14.491205,2.483685,-1.151987,-1.199018,1.616368,36.26,1,RUN
1759224782.80498,-0.252588,-11.742063,-2.180968,-0.752448,-1.076153,0.908086,36.28,1,RUN
1759224782.82497,-1.639579,-2.271648,-3.807529,-0.418495,-0.151506,-0.030318,36.30,1,RUN
1759224782.84495,-0.642694,7.197868,-5.231331,-0.161983,0.069482,-0.569923,36.32,1,RUN
1759224782.86431,-10.455628,13.434464,6.036531,-0.66857,-8.178646,-2.928297,36.34,1,RUN
1759224782.88419,-13.794193,18.001703,14.039599,-3.360387,-6.790484,-3.694312,36.36,1,RUN
1759224782.92498,1.868375,6.336853,-46.654012,3.858225,3.471617,-0.738495,36.40,1,RUN
