SamplingTime, AccelerationX, AccelerationY, AccelerationZ, GyroX, GyroY, GyroZ, MagneticFieldX, MagneticFieldY, MagneticFieldZ, Latitude, Longitude
1759224918.170899, 2.362030, -5.213823, -5.787833, -1.046136, 1.056996, 0.256749, -122.737839, -173.888901, -910.171082, 13.724715, 100.771877
1759224918.190500, 2.938134, -5.393239, -5.245696, -1.136728, 0.407277, 0.375181, -122.148010, -173.189880, -909.851257, 13.724715, 100.771877
1759224918.210933, 2.675071, -5.002535, -5.927744, -1.201936, -0.155785, 0.469224, -122.018066, -172.261581, -909.444946, 13.724715, 100.771877
1759224918.230021, 2.102259, -4.432565, -7.917924, -1.228001, -0.144344, 0.648574, -121.879684, -171.253540, -909.147583, 13.724715, 100.771877
1759224918.250919, 2.104653, -3.454085, -8.780136, -1.285648, 0.628477, 1.063938, -121.071808, -169.997269, -908.627136, 13.724715, 100.771877
1759224918.270918, 2.179921, -2.799869, -7.948899, -1.277372, 1.373941, 1.704532, -119.739471, -168.660889, -908.556030, 13.724715, 100.771877
1759224918.290550, 1.529296, -3.730914, -7.019500, -1.205784, 1.752609, 2.182518, -117.442230, -167.446274, -908.514893, 13.724715, 100.771877
1759224918.310929, 1.029507, -4.896591, -7.011420, -1.025298, 1.359299, 2.400633, -115.639175, -166.314346, -908.198425, 13.724715, 100.771877
1759224918.330887, -1.050157, -6.634034, -8.938752, -0.559649, 0.667426, 1.628316, -114.284195, -165.617828, -908.220703, 13.724715, 100.771877
1759224918.350921, -1.387889, -7.118710, -9.271247, 0.101600, 0.431205, 0.308455, -113.840805, -165.729538, -908.228882, 13.724715, 100.771877
1759224918.370910, -0.504129, -6.854749, -8.987683, 0.525491, -0.008089, -0.689157, -113.977829, -165.983383, -908.417236, 13.724715, 100.771877
1759224918.390889, -0.021548, -5.470003, -9.994296, 0.898260, 0.046428, -1.259006, -114.575760, -166.667145, -908.966125, 13.724715, 100.771877
1759224918.410917, -0.529567, -4.786009, -10.995670, 1.391840, 0.468552, -1.457798, -115.078934, -167.916946, -909.801392, 13.724715, 100.771877
1759224918.430007, -2.233192, -4.898537, -6.411672, 1.645761, -0.099118, -2.365473, -116.056137, -169.558319, -910.561401, 13.724715, 100.771877
1759224918.450908, 0.740557, -4.424185, -1.520617, 0.453316, -1.667424, -3.787862, -118.973557, -170.683517, -909.854858, 13.724715, 100.771877
1759224918.470915, 4.026299, -4.839879, -3.331083, -0.554130, -2.482711, -3.931580, -122.085464, -171.648712, -908.748108, 13.724715, 100.771877
1759224918.490003, 5.270685, -3.170372, -2.976142, -0.977510, -4.343753, -3.423338, -126.220581, -172.270706, -906.530945, 13.724715, 100.771877
1759224918.510928, 5.128081, -3.903895, -8.493879, -0.678249, -5.566155, -2.376652, -130.025726, -172.971512, -904.269714, 13.724715, 100.771877
1759224918.530892, 5.269787, -2.484732, -11.498902, -0.980131, -2.854216, -0.469844, -131.666977, -172.861908, -901.467102, 13.724715, 100.771877
1759224918.550908, 1.826028, -3.250727, -9.340679, -0.234996, -1.735061, 1.154707, -131.890244, -172.247391, -900.989502, 13.724715, 100.771877
1759224918.570935, -0.682647, -1.826327, -6.456414, 0.205488, -2.218318, 1.248609, -132.345184, -171.721085, -899.835205, 13.724715, 100.771877
1759224918.589920, -3.686173, -3.930381, -11.652579, 0.495134, -1.943136, 0.994503, -132.689926, -171.533188, -899.172119, 13.724715, 100.771877
1759224918.610916, -4.391265, -3.397522, -10.287585, 0.721555, -1.380884, 0.756898, -132.952667, -171.253998, -898.586609, 13.724715, 100.771877
1759224918.630893, -3.230975, -3.768623, -8.342895, 0.589347, -0.979269, 0.269061, -133.168274, -171.387024, -898.368408, 13.724715, 100.771877
1759224918.650415, -0.688333, -2.643348, -7.745991, 0.403112, -1.359738, 0.234575, -133.961502, -171.432083, -897.482117, 13.724715, 100.771877
1759224918.670914, -0.073023, -2.344672, -6.757485, 0.257662, -1.503782, 0.766278, -134.109421, -171.086456, -896.440186, 13.724715, 100.771877
1759224918.690894, -1.058387, -2.301726, -6.608894, 0.024001, -2.127641, 1.108987, -134.414841, -170.527023, -895.397827, 13.724715, 100.771877
1759224918.710924, -1.953669, -1.874211, -6.562207, -0.086771, -2.380389, 1.251363, -134.550568, -169.676529, -893.868774, 13.724715, 100.771877
1759224918.730900, -1.832462, -0.426766, -6.202030, -0.240993, -2.559545, 1.583172, -134.452515, -168.574677, -892.065796, 13.724715, 100.771877
1759224918.750963, -2.352602, 0.679355, -6.913856, -0.376179, -2.529258, 2.045491, -134.135605, -167.266678, -890.406799, 13.724715, 100.771877
1759224918.770910, -3.085228, 0.913986, -7.765443, -0.194738, -2.758339, 2.541613, -133.313217, -165.853104, -888.788452, 13.724715, 100.771877
1759224918.789980, -4.334702, 2.136526, -7.583783, 0.239750, -3.006100, 3.158634, -131.960342, -164.055191, -887.313843, 13.724715, 100.771877
1759224918.810937, -4.300435, 2.967314, -6.479159, 0.904282, -3.743249, 4.023892, -130.180786, -162.126465, -885.903748, 13.724715, 100.771877
1759224918.830893, -5.033809, 3.555689, -5.458481, 1.603016, -4.700863, 4.888747, -127.653748, -159.708115, -884.679626, 13.724715, 100.771877
1759224918.850916, -5.410148, 6.205920, -5.087230, 1.989772, -4.709043, 5.968600, -123.837570, -157.093994, -883.951111, 13.724715, 100.771877
1759224918.870910, -6.577321, 8.188469, -4.143316, 1.993852, -3.872885, 7.230491, -118.779724, -154.899933, -884.167786, 13.724715, 100.771877
1759224918.890885, -10.107870, 8.113800, -2.387917, 1.983586, -3.617708, 7.622665, -113.387344, -153.334137, -884.779602, 13.724715, 100.771877
1759224918.910906, -12.812720, 7.929596, -1.287632, 2.319009, -4.089495, 7.643624, -107.783035, -152.983704, -886.086914, 13.724715, 100.771877
1759224918.930882, -15.178341, 5.595249, -1.086968, 2.985736, -4.653798, 6.858982, -103.093918, -153.218338, -888.374634, 13.724556, 100.771828
1759224918.950897, -15.712697, 4.202422, -1.764377, 2.678464, -3.504558, 6.163706, -99.346313, -154.265717, -890.943970, 13.724556, 100.771828
1759224918.970899, -14.691420, 4.598064, -2.537106, 2.239497, -1.905304, 5.962055, -95.462372, -155.875336, -893.146362, 13.724556, 100.771828
1759224918.990006, -17.187674, 3.714903, -1.003021, 2.068445, -1.496755, 5.824510, -92.003952, -157.846268, -894.665405, 13.724556, 100.771828
1759224919.010901, -20.061315, 0.426168, 0.666935, 1.651915, -1.880077, 4.138137, -89.303772, -159.705551, -896.092285, 13.724556, 100.771828
1759224919.030886, -19.236513, -0.188394, 0.762404, 1.808850, -2.674438, 2.844444, -88.667725, -161.273560, -898.261841, 13.724556, 100.771828
1759224919.050298, -16.600197, 0.615759, -0.396390, 2.022231, -2.844182, 2.417208, -88.692505, -162.734848, -900.426025, 13.724556, 100.771828
1759224919.070897, -14.090625, 1.594089, 0.558896, 1.314198, -2.551735, 1.318002, -88.331512, -164.342361, -902.205322, 13.724556, 100.771828
1759224919.090497, -21.921161, -1.814805, 20.181624, -0.939561, -2.784898, 0.351267, -89.592697, -163.445602, -901.889893, 13.724556, 100.771828
1759224919.110899, -13.338846, 2.134431, 5.864148, -3.312294, 0.040160, 1.554035, -88.776428, -162.187302, -900.045532, 13.724556, 100.771828
1759224919.130897, -12.074707, 3.876512, 0.833033, -2.192980, 1.102008, 1.699237, -87.969452, -161.448349, -897.856201, 13.724556, 100.771828
1759224919.150914, -7.767838, 4.629638, -0.978929, -0.762702, 0.117002, 1.082448, -87.252701, -161.226959, -897.042114, 13.724556, 100.771828
1759224919.170899, -3.703231, 6.394763, -0.014515, 1.031727, -3.010951, 0.930582, -87.294907, -161.790558, -898.359741, 13.724556, 100.771828
1759224919.190045, -5.412841, 8.017433, -2.906411, 1.884895, -3.972820, 0.811795, -87.955994, -162.436707, -899.515930, 13.724556, 100.771828
1759224919.210910, -0.894983, 8.121431, 4.823419, 0.055226, -0.817990, 1.528942, -87.725052, -163.903412, -901.347290, 13.724556, 100.771828
1759224919.230911, -8.130260, 6.194398, -2.980781, -0.367815, 0.690409, 1.262291, -88.073822, -163.544479, -900.887512, 13.724556, 100.771828
1759224919.250905, -6.216844, 5.954828, 0.386813, -0.614236, 1.174228, 0.994542, -86.472519, -163.997452, -900.680847, 13.724556, 100.771828
1759224919.270905, -4.367922, 8.285284, 3.010260, -0.607067, 0.770646, 1.046554, -85.271667, -164.125198, -900.216492, 13.724556, 100.771828
1759224919.290505, -4.616170, 6.313510, 1.120337, -0.247228, 0.071037, 0.941094, -84.489853, -164.255615, -899.522949, 13.724556, 100.771828
1759224919.310932, -3.503764, 12.678196, -1.559074, -0.043357, -0.934314, 1.275985, -84.135788, -164.508713, -899.641052, 13.724556, 100.771828
1759224919.330923, -5.314978, 12.724733, -0.698808, -0.491711, -1.192065, 1.289084, -83.465744, -165.336533, -900.170593, 13.724556, 100.771828
1759224919.350922, -6.766912, 12.143391, 1.596633, -0.955133, -0.388403, 1.081757, -83.110825, -165.739960, -899.941589, 13.724556, 100.771828
1759224919.370058, -6.992565, 10.514286, 1.614739, -0.634159, -0.234707, 0.565052, -82.657394, -165.790512, -899.453003, 13.724556, 100.771828
1759224919.390087, -6.577919, 10.449792, 0.969053, -0.234424, -0.365834, 0.041464, -82.763214, -165.707077, -899.577515, 13.724556, 100.771828
1759224919.410907, -6.107309, 10.313921, 1.420210, -0.225809, -0.137019, -0.170686, -82.853806, -165.546661, -899.372009, 13.724556, 100.771828
1759224919.430880, -5.488258, 10.129867, 1.387440, -0.508320, -0.332601, -0.107892, -83.056000, -165.097961, -899.450012, 13.724556, 100.771828
1759224919.450935, -3.735703, 8.343942, 3.079392, -1.810369, -1.240604, 0.690929, -83.203415, -164.668594, -898.794373, 13.724556, 100.771828
1759224919.471009, -5.372439, 9.015217, 1.121983, -1.426057, -0.265214, 0.785592, -83.424652, -164.089844, -898.235962, 13.724556, 100.771828
1759224919.490885, -4.462493, 7.766641, 0.439037, 0.471590, 0.446162, 0.451415, -83.079742, -164.304245, -897.605469, 13.724556, 100.771828
1759224919.510392, -2.847454, 7.359626, 3.586215, 0.921896, -0.399332, 0.062266, -82.866379, -164.705475, -898.140930, 13.724556, 100.771828
1759224919.530927, -3.950433, 8.561515, 1.627309, 0.950925, -0.325975, -0.514963, -83.203812, -165.014603, -898.806091, 13.724556, 100.771828
1759224919.550942, -3.392284, 8.306832, 0.869843, 0.759491, -0.334349, -0.502437, -83.580536, -165.005493, -899.365234, 13.724556, 100.771828
1759224919.570898, -2.533215, 5.969194, 1.584064, 0.024790, -0.548977, 0.264407, -83.930969, -165.125366, -899.924866, 13.724556, 100.771828
1759224919.590141, -1.398363, 5.276671, 1.988384, -0.444763, -0.610707, 1.616374, -84.044907, -165.207901, -899.943176, 13.724556, 100.771828
1759224919.610903, -1.648109, 6.035633, 1.245434, -0.135891, 0.118889, 2.641527, -82.764175, -166.186188, -899.887207, 13.724556, 100.771828
1759224919.630894, -3.551200, 6.944681, 1.713201, 0.124728, 0.801882, 2.644848, -80.830978, -167.572495, -899.716675, 13.724556, 100.771828
1759224919.650913, -5.942857, 8.193856, 2.725200, 0.045523, 0.276262, 1.527262, -79.649078, -168.595963, -899.206116, 13.724556, 100.771828
1759224919.670913, -5.777807, 8.202535, 1.460613, -0.047113, -0.870270, 0.882672, -79.306503, -168.950150, -899.168884, 13.724556, 100.771828
1759224919.690884, -4.313902, 9.482535, 1.088913, 0.029669, -0.950559, 0.856502, -79.328094, -169.335648, -900.107849, 13.724556, 100.771828
1759224919.710908, -1.887978, 12.393435, 2.233641, 0.125041, -0.467616, 1.116940, -79.408920, -169.742432, -900.436157, 13.724556, 100.771828
1759224919.730892, -1.650952, 11.636419, 2.080412, 0.261307, -0.293337, 1.362292, -78.620087, -170.731979, -900.747925, 13.724556, 100.771828
1759224919.750896, -1.677438, 10.653599, 1.513884, 0.409485, -0.361825, 1.439354, -78.415619, -171.591522, -901.107117, 13.724556, 100.771828
1759224919.770908, -1.404947, 10.657789, 1.744475, 0.572240, -0.435304, 1.519811, -78.004944, -172.779678, -901.611450, 13.724556, 100.771828
1759224919.790171, -1.871069, 9.488520, 1.806425, 0.390316, -0.381931, 1.235084, -77.634201, -173.764175, -902.100586, 13.724556, 100.771828
1759224919.810902, -2.091485, 7.458387, 1.963545, 0.438717, -0.744744, 0.540584, -77.741653, -174.096909, -902.190430, 13.724556, 100.771828
1759224919.830897, -0.835876, 7.277774, 1.359158, 0.424390, -0.763390, 0.240269, -78.010529, -174.642090, -902.798157, 13.724556, 100.771828
1759224919.850831, -0.113276, 7.531560, 1.393874, 0.396117, -0.418999, 0.376946, -78.150803, -175.012375, -903.143005, 13.724556, 100.771828
1759224919.870896, -0.426318, 7.701698, 1.446397, 0.331870, -0.558180, 0.335141, -78.279388, -175.455673, -903.741333, 13.724556, 100.771828
1759224919.890497, -1.151012, 8.345738, 1.019331, 0.067508, -0.279411, 0.166569, -78.198990, -175.388672, -904.187317, 13.724556, 100.771828
1759224919.910912, -1.251270, 8.725369, 1.172411, 0.153435, 0.037604, 0.050500, -78.400742, -175.494629, -903.831726, 13.724556, 100.771828
1759224919.930905, -1.041927, 9.017461, 0.744896, 0.418975, 0.248449, 0.199678, -78.149216, -175.916519, -904.143372, 13.724556, 100.771828
1759224919.950560, -0.859518, 9.292645, 0.620098, 0.495246, 0.348275, 0.404288, -77.783615, -176.378372, -903.572266, 13.724556, 100.771828
1759224919.970900, -0.784999, 8.880094, 1.291971, 0.489381, 0.079513, 0.416313, -77.833725, -176.624359, -903.881470, 13.724556, 100.771828
1759224919.990201, -0.715567, 8.594885, 1.111807, 0.620979, -0.201935, 0.333396, -77.662003, -177.224884, -904.457458, 13.724556, 100.771828
1759224920.010916, -0.761057, 7.911490, 0.080655, 0.806895, -0.019332, 0.356056, -77.757767, -177.709885, -904.624268, 13.724556, 100.771828
1759224920.030880, -0.995240, 6.811055, -0.225205, 0.747554, 0.190894, 0.429138, -77.624252, -178.319061, -904.829041, 13.724556, 100.771828
1759224920.050902, 1.030255, 16.336386, 0.504279, 0.791061, -0.127333, 1.658646, -77.224487, -179.344894, -904.702637, 13.724556, 100.771828
1759224920.070936, -0.886752, 26.609606, -1.098490, 0.873094, -0.186969, 1.095653, -76.794312, -180.865265, -905.232361, 13.724556, 100.771828
1759224920.090878, -3.345298, 9.958981, 0.974739, 0.460506, -0.370417, -0.136836, -77.252609, -181.187866, -905.562988, 13.724556, 100.771828
1759224920.110933, -0.944812, 6.572532, 4.473117, -0.199197, -0.380588, -0.083051, -77.851440, -180.712357, -905.529175, 13.724556, 100.771828
1759224920.130875, 1.469441, 9.088689, 1.227178, -0.331376, -0.068653, 0.020210, -77.796448, -180.218185, -905.562561, 13.724556, 100.771828
1759224920.150894, 1.069909, 10.667665, -0.685490, -0.073461, -0.289814, 0.076967, -78.044022, -180.466980, -905.732544, 13.724556, 100.771828
1759224920.170921, -0.603339, 9.498696, -0.714370, 0.048336, -0.218690, -0.036249, -78.046646, -180.470886, -905.995911, 13.724556, 100.771828
1759224920.190245, -0.045789, 9.624092, 0.392051, 0.058417, -0.120800, 0.000880, -77.918808, -180.537399, -905.963013, 13.724556, 100.771828
1759224920.210903, 0.304363, 9.914688, 0.897826, -0.010808, -0.204557, -0.009912, -78.246246, -180.684158, -906.315674, 13.724556, 100.771828
1759224920.229924, 0.599748, 10.065074, 0.171934, -0.023717, -0.127032, -0.010410, -78.231110, -180.581955, -906.642334, 13.724556, 100.771828
1759224920.250975, 0.654964, 9.612420, 0.072724, 0.001279, -0.051834, -0.035199, -78.392456, -180.585068, -906.387451, 13.724556, 100.771828
1759224920.270903, 0.811185, 9.508722, 0.279224, 0.044222, 0.001702, -0.035331, -78.477219, -180.632721, -906.131531, 13.724556, 100.771828
1759224920.290500, 0.985663, 9.769690, 0.516100, 0.081600, -0.001700, -0.021888, -78.450729, -180.588257, -906.154114, 13.724556, 100.771828
1759224920.310906, 1.031901, 9.748441, 0.806996, -0.023620, 0.064815, -0.005948, -78.466980, -180.387085, -906.282593, 13.724556, 100.771828
1759224920.330903, 0.660800, 9.690681, 0.528819, -0.136549, 0.160347, -0.005949, -78.323608, -180.270218, -906.053223, 13.724555, 100.771827
1759224920.350006, 0.609773, 9.852738, 0.066589, -0.088432, 0.166906, 0.002866, -78.239822, -180.209167, -906.047363, 13.724555, 100.771827
1759224920.370905, 0.485724, 9.466823, 0.152181, -0.051194, 0.244499, -0.005511, -78.043945, -180.252701, -905.988953, 13.724555, 100.771827
1759224920.390285, 0.246154, 9.382278, 0.371849, -0.038771, 0.316695, -0.022333, -78.029175, -180.155212, -905.924927, 13.724555, 100.771827
1759224920.410887, -0.003591, 9.624840, 0.516699, -0.021751, 0.309483, -0.035396, -77.743042, -180.233902, -905.465332, 13.724555, 100.771827
1759224920.430885, -0.202609, 9.783007, 0.635212, -0.035121, 0.287644, -0.027708, -77.654251, -180.262390, -905.424927, 13.724555, 100.771827
1759224920.450902, -0.376189, 9.739014, 0.599598, -0.035407, 0.272533, -0.014675, -77.630630, -180.071762, -905.257935, 13.724555, 100.771827
1759224920.470897, -0.547674, 9.722404, 0.456095, -0.010654, 0.264994, -0.019340, -77.160797, -180.050034, -904.908936, 13.724555, 100.771827
1759224920.490878, -0.558597, 9.737218, 0.692523, 0.000709, 0.167620, -0.009976, -77.160385, -180.236694, -905.002197, 13.724555, 100.771827
1759224920.510915, -0.723049, 9.622596, 0.870741, -0.028536, 0.075879, 0.008770, -77.129883, -180.149475, -904.698975, 13.724555, 100.771827
1759224920.530888, -1.047912, 9.520094, 0.700903, -0.022658, 0.036958, 0.004545, -76.767975, -180.021545, -904.867249, 13.724555, 100.771827
1759224920.550910, -1.018284, 9.627683, 0.600047, 0.024004, -0.060700, 0.001237, -77.127548, -180.065109, -904.710571, 13.724555, 100.771827
1759224920.570900, -0.897676, 9.554361, 0.735918, 0.039162, -0.172857, 0.007050, -77.065125, -179.941681, -904.973694, 13.724555, 100.771827
1759224920.590334, -0.778714, 9.441085, 0.715866, 0.018754, -0.236182, 0.006580, -77.367096, -180.190613, -905.003967, 13.724555, 100.771827
1759224920.610162, -0.536451, 9.590274, 0.489614, 0.027975, -0.258177, -0.009830, -77.230255, -180.254318, -905.466431, 13.724555, 100.771827
1759224920.630897, -0.201412, 9.795427, 0.414945, 0.050112, -0.284814, -0.020893, -77.317062, -180.222061, -905.411987, 13.724555, 100.771827
1759224920.650908, 0.150535, 9.683798, 0.580744, 0.016285, -0.261562, -0.018681, -77.515930, -180.277420, -905.690247, 13.724555, 100.771827
1759224920.670935, 0.392948, 9.697265, 0.456993, -0.008388, -0.222746, -0.010195, -77.589127, -180.248260, -906.110962, 13.724555, 100.771827
1759224920.690504, 0.586280, 9.761310, 0.088137, 0.016540, -0.166370, -0.003900, -77.863419, -180.301697, -905.963989, 13.724555, 100.771827
1759224920.710954, 0.698359, 9.687688, 0.109086, 0.036633, -0.138857, 0.006151, -78.072525, -180.384399, -905.957825, 13.724555, 100.771827
1759224920.730950, 0.655562, 9.643545, 0.390255, 0.028165, -0.096137, 0.023126, -77.957397, -180.367142, -906.064453, 13.724555, 100.771827
1759224920.750645, 0.403722, 9.648483, 0.319027, 0.020074, -0.021581, 0.022381, -77.997818, -180.480667, -906.156372, 13.724555, 100.771827
1759224920.770902, 0.216975, 9.627085, 0.192584, 0.032858, -0.007787, 0.011543, -77.856689, -180.232834, -905.940613, 13.724555, 100.771827
1759224920.790367, 0.085443, 9.559299, 0.119411, 0.037217, 0.044633, -0.002082, -77.879120, -180.373703, -906.079834, 13.724555, 100.771827
1759224920.810901, 0.056413, 9.734674, 0.228497, 0.049348, 0.049471, -0.010959, -77.883026, -180.292618, -906.179077, 13.724555, 100.771827
1759224920.830892, 0.192284, 9.827150, 0.463727, 0.027548, 0.055123, 0.007738, -77.912582, -180.285370, -906.201050, 13.724555, 100.771827
1759224920.850896, 0.094122, 9.727641, 0.475698, 0.006630, 0.062728, 0.016718, -77.855927, -180.164749, -906.158569, 13.724555, 100.771827
1759224920.870894, -0.099060, 9.660304, 0.196175, 0.030127, 0.070095, 0.011692, -77.842377, -180.455627, -906.095764, 13.724555, 100.771827
1759224920.890874, -0.169240, 9.701904, 0.228347, 0.039649, 0.069734, 0.006113, -77.785965, -180.267502, -906.126282, 13.724555, 100.771827
1759224920.910895, -0.234781, 9.668086, 0.419883, 0.015125, 0.068855, -0.001125, -77.834396, -180.295563, -906.033813, 13.724555, 100.771827
1759224920.930901, -0.183007, 9.760412, 0.335039, 0.015120, 0.036973, 0.008872, -77.356400, -180.472672, -905.852783, 13.724555, 100.771827
1759224920.950900, -0.304513, 9.720010, 0.258873, 0.023759, 0.019139, 0.006850, -77.853897, -180.335358, -905.635925, 13.724555, 100.771827
1759224920.970895, -0.347459, 9.738715, 0.199168, 0.033789, 0.034013, -0.006233, -77.449539, -180.679489, -905.759094, 13.724555, 100.771827
1759224920.990408, -0.203806, 9.551967, 0.307805, 0.010804, 0.067220, -0.003057, -77.643738, -180.329742, -905.903198, 13.724555, 100.771827
1759224921.010901, 0.078709, 9.619154, 0.253187, 0.011190, 0.033279, 0.004850, -77.617371, -180.570053, -906.040283, 13.724555, 100.771827
1759224921.030905, 0.030825, 9.760562, 0.289100, -0.002471, 0.025656, 0.008222, -77.369568, -180.422607, -906.076233, 13.724555, 100.771827
1759224921.050904, -0.097863, 9.807697, 0.315286, -0.022791, 0.028821, 0.005787, -77.582092, -180.421677, -905.607300, 13.724555, 100.771827
1759224921.070895, -0.060603, 9.655067, 0.218471, -0.023598, 0.030092, 0.000169, -77.672424, -180.331589, -905.687744, 13.724555, 100.771827
1759224921.090872, 0.028730, 9.709535, 0.133626, -0.014607, 0.045613, 0.002767, -77.525208, -180.420090, -905.902954, 13.724555, 100.771827
1759224921.110896, 0.045639, 9.739163, 0.192733, -0.018347, 0.057974, 0.000744, -77.388611, -180.470428, -905.711609, 13.724555, 100.771827
1759224921.130869, 0.195876, 9.689035, 0.232836, -0.005156, 0.049863, 0.008925, -77.468491, -180.336197, -905.903137, 13.724555, 100.771827
1759224921.150905, 0.097713, 9.627384, 0.346112, -0.012409, 0.066053, 0.012026, -77.528549, -180.241913, -905.595581, 13.724555, 100.771827
1759224921.170925, -0.028431, 9.707889, 0.257526, -0.008849, 0.090873, 0.012131, -77.729721, -180.291306, -905.924500, 13.724555, 100.771827
1759224921.190446, 0.012570, 9.721207, 0.223559, 0.007048, 0.086910, 0.012899, -77.586380, -180.314362, -905.982300, 13.724555, 100.771827
1759224921.210903, 0.055964, 9.549273, 0.434248, -0.000929, 0.075306, 0.014912, -77.318451, -180.211624, -905.369690, 13.724555, 100.771827
1759224921.230867, 0.034267, 9.503634, 0.481085, -0.005441, 0.070771, 0.021125, -77.394760, -180.306931, -905.974670, 13.724555, 100.771827
1759224921.250905, -0.012270, 9.754277, 0.363320, 0.013061, 0.067996, 0.020219, -77.250687, -180.311859, -905.575928, 13.724555, 100.771827
1759224921.270895, -0.088286, 9.829694, 0.474351, -0.002781, 0.081430, 0.008616, -77.179398, -180.387283, -905.621460, 13.724555, 100.771827
1759224921.290871, -0.114323, 9.646538, 0.459387, -0.015087, 0.066038, -0.000510, -77.040894, -180.424362, -905.385620, 13.724555, 100.771827
1759224921.310739, -0.082001, 9.547927, 0.272789, 0.003526, 0.028854, 0.000527, -77.101578, -180.471970, -905.720337, 13.724555, 100.771827
1759224921.330898, -0.101155, 9.602395, 0.387561, 0.007659, 0.013648, 0.006868, -76.991058, -180.486923, -905.518982, 13.724555, 100.771827
1759224921.350903, -0.013617, 9.725546, 0.436643, 0.004809, 0.003304, 0.015687, -77.023697, -180.648422, -905.387939, 13.724555, 100.771827
1759224921.370893, -0.011372, 9.680954, 0.422128, 0.003837, -0.000489, 0.009801, -77.079468, -180.558029, -905.367493, 13.724555, 100.771827
1759224921.390487, -0.013018, 9.620650, 0.269946, 0.025993, -0.002591, 0.007071, -76.922485, -180.635468, -905.298279, 13.724555, 100.771827
1759224921.410916, -0.012121, 9.633220, 0.301370, 0.026905, 0.001001, 0.003428, -76.774353, -180.610779, -905.137939, 13.724555, 100.771827
1759224921.430898, 0.032022, 9.730933, 0.395492, 0.013709, 0.013332, 0.004756, -76.842651, -180.631485, -905.502441, 13.724555, 100.771827
1759224921.450905, 0.043694, 9.725696, 0.411952, -0.005644, -0.002262, 0.000850, -77.150955, -180.354050, -905.354553, 13.724555, 100.771827
1759224921.470870, 0.001646, 9.703849, 0.161459, 0.001777, 0.010156, 0.007982, -77.109543, -180.614456, -905.163696, 13.724555, 100.771827
1759224921.490880, 0.141707, 9.739912, 0.281169, 0.024797, -0.013844, 0.001795, -77.115555, -180.559113, -905.363281, 13.724878, 100.771889
1759224921.510884, 0.152630, 9.619902, 0.329652, 0.008005, -0.000385, 0.000931, -77.135437, -180.465515, -905.408936, 13.724878, 100.771889
1759224921.530868, 0.165948, 9.573066, 0.241814, 0.007070, 0.004025, 0.009722, -76.924606, -180.559784, -905.189758, 13.724878, 100.771889
1759224921.550882, 0.084545, 9.665392, 0.300472, 0.018543, -0.015027, 0.010706, -77.132141, -180.565857, -905.097168, 13.724878, 100.771889
1759224921.570881, 0.016310, 9.755474, 0.380678, 0.016245, -0.008666, 0.009518, -77.069107, -180.649628, -905.324585, 13.724878, 100.771889
1759224921.590556, -0.514903, 9.742007, -0.603488, 0.002404, 0.074790, -0.012991, -77.243988, -180.554108, -905.484741, 13.724878, 100.771889
1759224921.610881, 0.226102, 9.768043, 2.637363, 0.197657, -0.127732, -0.076760, -76.962463, -180.641449, -905.197205, 13.724878, 100.771889
1759224921.630880, -0.366762, 9.276634, -0.090680, 0.183663, -0.087147, -0.134561, -76.855972, -180.741669, -905.384033, 13.724878, 100.771889
1759224921.650881, 0.227000, 9.325864, 1.297358, -0.103930, -0.317256, 0.106450, -77.319595, -180.599365, -905.509888, 13.724878, 100.771889
1759224921.670881, 0.228946, 10.434829, 0.967557, -0.276804, -0.388160, 0.240630, -77.060684, -180.674545, -905.530884, 13.724878, 100.771889
1759224921.690869, 0.278775, 10.159645, -0.805200, -0.044665, -0.046845, 0.103725, -77.471649, -180.649185, -905.614136, 13.724878, 100.771889
1759224921.710928, 0.753874, 9.602544, -0.098910, 0.098141, 0.284652, 0.010415, -77.500916, -180.817017, -905.570251, 13.724878, 100.771889
1759224921.730865, 0.434847, 9.632173, 0.530615, 0.089312, 0.192933, -0.028992, -77.205902, -180.623093, -905.399231, 13.724878, 100.771889
1759224921.750912, 0.251990, 9.682301, 0.527323, 0.024812, 0.266948, -0.041236, -77.021515, -180.885712, -905.176819, 13.724878, 100.771889
1759224921.770327, -0.326809, 9.517550, 0.271592, -0.069121, -0.062984, 0.029735, -76.816208, -180.678833, -905.177673, 13.724878, 100.771889
1759224921.790568, -0.205901, 9.663148, -0.245406, 0.014242, -0.019588, -0.005924, -77.037430, -180.711777, -905.424072, 13.724878, 100.771889
1759224921.810911, 0.207847, 9.665542, 0.516100, 0.016498, -0.043900, -0.017761, -77.188843, -180.575821, -905.372437, 13.724878, 100.771889
1759224921.830896, 0.217723, 9.669732, 0.570568, -0.029089, -0.021535, 0.003413, -76.894760, -180.691223, -905.202637, 13.724878, 100.771889
1759224921.850892, 0.076315, 9.730185, 0.358831, -0.038157, -0.008716, 0.011198, -76.965210, -180.735794, -905.105530, 13.724878, 100.771889
1759224921.870909, 0.021847, 9.665542, 0.238971, -0.031301, 0.007758, 0.004582, -76.877853, -180.686142, -905.173584, 13.724878, 100.771889
1759224921.890868, 0.021697, 9.675717, 0.196624, -0.001798, 0.009534, -0.000114, -77.006287, -180.625595, -905.402283, 13.724878, 100.771889
1759224921.910909, -0.004040, 9.643994, 0.408660, 0.010533, 0.012130, -0.000690, -76.977280, -180.389786, -905.325012, 13.724878, 100.771889
1759224921.930895, 0.014814, 9.617059, 0.478242, -0.007015, -0.020094, 0.006855, -76.897339, -180.558533, -905.189880, 13.724878, 100.771889
1759224921.950911, -0.077063, 9.705046, 0.339827, -0.002538, -0.037827, 0.011249, -77.116150, -180.605804, -905.429688, 13.724878, 100.771889
1759224921.970902, -0.161309, 9.734225, 0.351499, 0.002759, -0.030965, -0.000454, -77.030045, -180.556137, -905.653503, 13.724878, 100.771889
1759224921.990609, -0.091877, 9.667936, 0.396091, -0.000749, -0.052565, -0.008803, -77.075638, -180.585098, -905.222351, 13.724878, 100.771889
1759224922.010903, -0.035464, 9.641600, 0.302567, -0.003936, -0.065035, -0.016834, -77.089493, -180.716599, -905.441650, 13.724878, 100.771889
1759224922.030902, 0.060603, 9.723751, 0.322319, 0.007744, -0.060048, -0.022073, -76.939194, -180.497910, -905.302002, 13.724878, 100.771889
1759224922.050902, 0.100556, 9.681254, 0.432453, -0.001061, -0.042643, -0.021229, -77.045212, -180.601715, -905.413330, 13.724878, 100.771889
1759224922.070915, 0.203657, 9.603143, 0.372298, -0.007238, -0.038724, -0.012330, -76.963028, -180.702011, -905.812073, 13.724878, 100.771889
1759224922.090867, 0.069432, 9.626935, 0.264110, -0.003805, -0.030919, 0.000009, -77.329178, -180.599670, -905.083984, 13.724878, 100.771889
1759224922.110909, -0.064045, 9.732130, 0.241814, -0.000672, -0.035148, -0.002815, -77.324234, -180.709305, -905.555298, 13.724878, 100.771889
1759224922.130890, -0.198419, 9.647136, -0.312144, 0.047565, 0.068524, -0.023980, -76.934326, -180.683731, -905.367737, 13.724878, 100.771889
1759224922.150909, 0.271892, 9.653122, 1.114501, 0.094985, -0.015565, -0.038874, -77.200119, -180.506088, -905.370850, 13.724878, 100.771889
1759224922.170918, -0.087987, 9.565135, 0.065990, -0.007354, 0.119017, -0.028063, -77.301575, -180.465210, -905.397278, 13.724878, 100.771889
1759224922.190649, -0.088885, 9.693524, 0.250344, 0.070167, -0.012149, -0.021382, -77.246841, -180.598404, -905.468445, 13.724878, 100.771889
1759224922.210912, -0.034866, 9.798869, 0.868497, 0.040618, -0.036678, -0.035108, -77.331848, -180.569427, -905.219604, 13.724878, 100.771889
1759224922.230393, 0.190638, 9.759514, 0.474650, -0.037004, -0.007669, -0.018610, -76.979980, -180.461151, -905.424072, 13.724878, 100.771889
1759224922.250968, 0.208595, 9.703250, 0.171036, -0.014777, -0.035339, 0.007302, -77.162537, -180.409439, -905.377014, 13.724878, 100.771889
1759224922.270888, -0.057461, 9.631873, 0.232986, -0.004897, -0.045916, 0.009178, -77.128403, -180.450516, -905.497253, 13.724878, 100.771889
1759224922.290867, -0.055067, 9.645041, 0.307505, -0.013882, -0.029212, -0.001791, -77.257889, -180.547867, -905.455200, 13.724878, 100.771889
1759224922.310985, 0.020650, 9.728689, 0.290896, -0.024475, -0.011601, -0.005817, -77.162079, -180.392181, -905.233032, 13.724878, 100.771889
1759224922.330889, 0.020201, 9.745299, 0.264559, -0.022401, -0.009055, 0.001448, -77.263931, -180.481171, -905.656860, 13.724878, 100.771889
1759224922.350912, -0.059107, 9.643395, 0.267103, -0.021301, -0.001331, -0.003320, -77.344025, -180.379959, -905.329590, 13.724878, 100.771889
1759224922.370910, -0.061800, 9.626486, 0.259771, -0.015728, 0.019959, -0.010913, -77.463547, -180.348999, -905.475342, 13.724878, 100.771889
1759224922.390688, 0.004339, 9.646687, 0.316184, -0.011033, 0.039429, -0.018355, -77.121475, -180.482697, -905.714172, 13.724878, 100.771889
1759224922.410888, 0.007931, 9.658509, 0.366612, -0.013129, 0.031866, -0.012760, -77.124771, -180.537872, -905.395142, 13.724878, 100.771889
1759224922.430902, -0.073622, 9.761759, 0.375890, -0.003699, 0.023279, -0.011772, -77.222061, -180.226700, -905.425293, 13.724878, 100.771889
1759224922.450916, -0.125097, 9.752481, 0.399083, -0.004060, 0.044846, -0.014553, -77.017593, -180.519684, -905.487244, 13.724878, 100.771889
1759224922.470900, -0.075567, 9.638906, 0.297629, -0.002344, 0.044319, -0.016456, -77.126450, -180.302795, -905.382202, 13.724878, 100.771889
1759224922.490874, -0.074071, 9.550770, 0.240318, 0.016055, 0.014056, -0.013182, -76.999146, -180.528046, -905.480225, 13.724878, 100.771889
1759224922.510883, -0.062100, 9.597606, 0.291644, 0.024638, 0.008047, -0.011667, -77.229752, -180.599838, -905.494629, 13.724803, 100.771860
1759224922.530866, -0.048782, 9.649381, 0.346261, 0.025049, -0.003990, -0.015802, -77.153656, -180.508911, -905.348816, 13.724803, 100.771860
1759224922.550912, -0.065691, 9.644592, 0.275333, 0.013401, 0.015124, -0.023573, -77.292114, -180.460175, -905.415649, 13.724803, 100.771860
1759224922.570646, 0.010624, 9.630975, 0.220267, 0.025158, 0.016999, -0.040132, -77.109009, -180.921051, -905.592285, 13.724803, 100.771860
1759224922.590732, 0.048333, 9.568277, 0.331747, 0.047436, -0.004052, -0.049600, -76.830154, -180.572220, -905.308899, 13.724803, 100.771860
1759224922.610914, -0.005088, 9.436147, 0.322319, 0.020948, 0.024662, -0.057476, -76.916580, -180.670303, -905.419312, 13.724803, 100.771860
1759224922.630893, 0.071676, 9.379584, 0.240318, 0.003950, 0.057589, -0.057165, -76.724030, -180.656036, -905.575317, 13.724803, 100.771860
1759224922.650886, 0.152032, 9.433155, 0.382623, 0.040560, 0.032231, -0.059783, -76.937576, -180.715652, -905.629395, 13.724803, 100.771860
1759224922.670915, 0.041599, 9.405621, 0.727388, 0.079508, 0.051529, -0.064009, -76.827957, -180.437439, -905.446472, 13.724803, 100.771860
1759224922.690498, -0.020949, 9.568277, 1.081431, 0.040964, 0.101994, -0.069075, -76.771774, -180.510681, -905.388916, 13.724803, 100.771860
1759224922.710894, -0.018555, 9.820267, 1.050007, -0.007938, 0.091070, -0.061064, -76.720657, -180.607269, -905.171448, 13.724803, 100.771860
1759224922.730892, -0.197372, 9.847800, 0.743100, -0.035774, 0.026769, -0.061226, -76.761383, -180.399567, -905.331299, 13.724803, 100.771860
1759224922.750916, -0.109086, 9.934291, 0.574908, 0.007745, -0.044110, -0.085778, -76.835709, -180.467148, -905.336487, 13.724803, 100.771860
1759224922.770928, 0.016759, 9.818172, 0.793229, 0.042451, -0.028738, -0.084976, -76.946762, -180.489716, -905.235229, 13.724803, 100.771860
1759224922.790773, -0.114173, 9.565434, 0.757765, 0.043534, 0.036037, -0.068658, -76.798141, -180.576096, -904.891235, 13.724803, 100.771860
1759224922.810462, -0.153079, 9.490615, 0.666785, 0.074016, 0.069024, -0.066127, -76.906281, -180.559326, -905.184326, 13.724803, 100.771860
1759224922.830875, -0.115969, 9.436297, 0.589871, 0.089602, 0.084118, -0.063268, -76.764908, -180.448730, -905.120789, 13.724803, 100.771860
1759224922.850877, -0.011372, 9.480590, 0.497994, 0.113511, 0.122877, -0.059228, -76.760742, -180.481842, -905.243469, 13.724803, 100.771860
1759224922.870903, 0.047734, 9.544036, 0.678457, 0.156327, 0.118039, -0.046958, -76.545303, -180.472733, -905.162964, 13.724803, 100.771860
1759224922.890495, 0.087987, 9.447819, 0.700753, 0.148100, 0.133392, -0.036672, -76.521317, -180.397400, -904.948486, 13.724803, 100.771860
1759224922.910914, 0.254234, 9.448717, 0.677709, 0.156075, 0.153766, -0.014156, -76.247345, -180.772842, -904.669861, 13.724803, 100.771860
1759224922.930863, 0.310947, 9.482834, 0.705092, 0.165660, 0.175010, 0.017195, -76.519226, -180.697769, -904.811768, 13.724803, 100.771860
1759224922.950907, 0.240617, 9.493010, 0.686388, 0.182743, 0.215598, 0.050379, -76.189880, -181.130051, -904.818054, 13.724803, 100.771860
1759224922.970886, 0.061950, 9.514557, 0.678457, 0.202226, 0.252932, 0.074871, -75.921890, -181.252258, -904.504395, 13.724803, 100.771860
1759224922.990812, -0.157269, 9.463232, 0.536750, 0.218113, 0.337547, 0.079364, -75.892715, -181.355652, -904.363037, 13.724803, 100.771860
1759224923.010891, -0.275632, 9.556456, 0.491111, 0.266004, 0.392394, 0.034253, -75.739288, -181.252747, -904.465149, 13.724803, 100.771860
1759224923.030723, -0.159065, 9.740211, 0.565630, 0.285408, 0.398486, 0.008711, -75.499023, -181.684677, -904.421631, 13.724803, 100.771860
1759224923.050899, -0.427215, 9.760861, 0.668282, 0.325158, 0.335754, 0.021004, -75.298981, -181.758057, -904.246704, 13.724803, 100.771860
1759224923.070097, -0.602142, 9.901969, 0.375141, 0.301731, 0.453587, -0.005144, -74.902786, -181.836685, -903.955261, 13.724803, 100.771860
1759224923.090871, -0.474950, 9.749788, 0.268899, 0.204472, 0.473230, -0.022251, -74.861649, -181.987518, -903.311890, 13.724803, 100.771860
1759224923.110893, -0.461482, 9.061305, -0.272191, 0.180297, 0.468920, -0.029984, -74.675552, -182.089722, -903.203918, 13.724803, 100.771860
1759224923.130886, -0.174477, 9.454104, -0.440832, 0.184750, 0.479928, -0.012514, -74.294113, -182.154526, -902.905518, 13.724803, 100.771860
1759224923.150888, 0.045639, 10.106524, -0.703147, 0.197017, 0.312892, 0.033790, -74.045944, -182.238525, -903.045471, 13.724803, 100.771860
1759224923.170916, -0.361524, 10.053402, -0.989703, 0.164914, 0.339596, 0.061238, -74.009781, -182.414520, -902.755127, 13.724803, 100.771860
1759224923.190853, -0.753276, 9.437045, -1.300052, 0.112151, 0.354750, 0.057115, -73.763901, -182.517487, -902.519531, 13.724803, 100.771860
1759224923.209953, -1.127370, 9.686790, -2.068590, 0.224905, 0.279005, 0.123838, -73.473862, -182.766174, -902.184387, 13.724803, 100.771860
1759224923.230593, -1.741632, 9.947309, -2.007089, 0.400143, 0.297286, 0.154612, -73.123917, -182.991730, -902.211304, 13.724803, 100.771860
1759224923.250135, -1.906383, 9.825804, -1.565209, 0.513945, 0.253740, 0.054325, -73.079208, -183.375778, -902.217041, 13.724803, 100.771860
1759224923.270098, -1.183035, 10.274716, -1.090708, 0.509668, 0.492015, -0.114563, -72.973679, -183.456726, -901.854126, 13.724803, 100.771860
1759224923.290863, -0.026486, 9.990255, -0.234781, 0.446595, 0.953149, -0.166066, -72.493546, -183.503998, -901.333374, 13.724803, 100.771860
1759224923.310888, 0.467917, 9.439888, 0.463727, 0.209408, 1.063717, -0.112090, -72.253555, -183.646103, -900.718994, 13.724803, 100.771860
1759224923.330882, 0.380379, 9.844059, -0.352995, 0.011178, 1.042084, 0.046225, -71.351898, -183.792618, -900.262390, 13.724803, 100.771860
1759224923.350743, -0.649278, 10.189573, -1.300201, 0.015493, 0.856988, 0.153504, -71.283539, -183.655472, -899.422974, 13.724803, 100.771860
1759224923.370885, -1.372775, 9.606136, -1.783381, 0.053107, 0.792819, 0.176482, -70.769257, -183.881012, -898.757446, 13.724803, 100.771860
1759224923.390483, -1.479916, 9.261221, -2.034174, 0.155106, 0.621535, 0.160110, -70.484512, -184.003403, -898.536743, 13.724803, 100.771860
1759224923.410887, -1.174954, 9.396942, -1.778293, 0.323710, 0.633093, 0.154151, -70.248810, -184.253143, -897.932373, 13.724803, 100.771860
1759224923.430882, -0.765247, 9.718513, -1.045817, 0.403015, 0.595189, 0.205918, -69.980240, -184.603439, -897.868164, 13.724803, 100.771860
1759224923.450893, -0.923863, 9.526079, -0.457741, 0.349351, 0.483231, 0.264580, -69.812286, -185.068588, -897.465576, 13.724803, 100.771860
1759224923.470891, -0.960673, 9.496302, -0.704344, 0.302517, 0.478119, 0.284174, -69.438446, -185.357971, -897.228516, 13.724803, 100.771860
1759224923.490864, -0.861015, 9.724499, -0.822857, 0.329187, 0.456149, 0.336216, -69.157654, -185.682541, -897.028931, 13.724803, 100.771860
1759224923.510875, -1.113004, 9.830293, -0.441730, 0.363787, 0.363346, 0.389667, -68.815063, -186.078873, -896.861572, 13.724740, 100.771864
1759224923.530889, -1.524957, 9.785551, 0.072425, 0.341202, 0.291274, 0.403308, -68.730957, -186.527176, -896.836060, 13.724740, 100.771864
1759224923.550895, -1.945738, 9.775226, 0.276530, 0.299139, 0.292416, 0.395140, -68.481201, -186.854507, -896.393616, 13.724740, 100.771864
1759224923.570893, -2.062156, 9.419986, 0.287603, 0.266454, 0.262860, 0.370978, -68.409744, -187.399948, -896.339233, 13.724740, 100.771864
1759224923.590871, -1.890521, 8.841338, 0.500837, 0.277623, 0.210673, 0.381485, -68.192398, -187.769333, -896.202515, 13.724740, 100.771864
1759224923.610879, -1.987187, 8.858696, 0.816572, 0.231135, 0.085376, 0.386511, -68.134399, -187.963623, -896.105896, 13.724740, 100.771864
1759224923.630889, -2.067243, 9.347113, 1.419462, 0.158314, -0.033960, 0.317968, -67.872223, -188.338028, -895.785278, 13.724740, 100.771864
1759224923.650881, -1.787122, 9.717616, 2.782811, -0.028687, -0.143735, 0.265839, -67.977386, -188.603348, -896.228699, 13.724740, 100.771864
1759224923.670289, -2.134730, 9.961525, 4.019266, -0.425517, -0.283426, 0.324247, -67.808304, -188.663956, -896.039062, 13.724740, 100.771864
1759224923.690453, -3.298911, 10.797550, 4.391415, -0.911809, -0.347005, 0.378686, -67.601746, -188.751953, -896.733826, 13.724740, 100.771864
1759224923.710068, -4.141370, 11.954548, 3.886986, -1.559254, -0.398325, 0.252829, -67.670898, -188.126053, -896.358826, 13.724740, 100.771864
1759224923.730878, -3.856011, 12.885893, 5.650914, -2.411943, -0.932190, -0.094973, -67.853470, -187.271530, -896.761841, 13.724740, 100.771864
1759224923.750893, -2.212392, 12.981212, 5.501576, -3.471592, -1.015427, -0.524056, -68.394409, -185.363937, -896.910583, 13.724740, 100.771864
1759224923.770887, -1.592294, 11.637167, 2.399738, -3.860622, -0.333942, -1.112376, -68.530975, -183.235153, -896.147095, 13.724740, 100.771864
1759224923.790861, 0.480337, 12.363807, -0.774375, -3.504401, 0.116558, -1.428381, -68.419220, -180.848969, -895.222839, 13.724740, 100.771864
1759224923.810900, -0.354491, 14.026131, -3.272574, -2.375154, 0.449730, -1.450265, -68.420883, -179.041992, -894.553040, 13.724740, 100.771864
1759224923.830887, -2.218677, 13.487885, -0.263063, -1.702918, -0.207162, -1.253310, -68.891602, -177.601669, -894.395630, 13.724740, 100.771864
1759224923.850889, -2.349161, 12.557588, -0.739210, -1.561197, -1.168798, -1.230469, -69.695755, -176.294785, -894.576721, 13.724740, 100.771864
1759224923.870884, -3.432088, 12.715156, -0.795922, -1.254958, -1.138918, -1.421653, -70.292465, -174.860489, -894.664368, 13.724740, 100.771864
1759224923.890863, -1.880196, 13.185018, 1.256806, -1.124042, -0.522148, -1.586393, -70.983780, -173.006470, -894.687134, 13.724740, 100.771864
1759224923.910901, 0.158466, 13.244275, 2.574814, -1.087198, -0.455009, -1.508994, -71.638504, -171.532440, -894.364807, 13.724740, 100.771864
1759224923.930888, -0.210839, 11.287015, 1.398812, -0.912925, -1.314374, -1.372818, -72.589035, -170.706360, -895.422363, 13.724740, 100.771864
1759224923.950899, -1.177947, 9.139416, -0.645686, -0.470466, -1.737302, -1.290816, -73.761703, -169.560303, -896.289490, 13.724740, 100.771864
1759224923.970885, -1.013795, 7.402572, 0.057760, 0.061174, -1.691699, -1.282235, -75.114227, -168.789841, -897.541443, 13.724740, 100.771864
1759224923.990862, 1.041627, 6.346131, 0.502782, 0.542413, -1.862486, -0.959994, -76.088013, -168.457947, -899.084351, 13.724740, 100.771864
1759224924.010879, 2.133683, 6.010045, -0.230292, 0.970735, -1.755298, -0.639586, -77.200073, -168.525604, -900.503784, 13.724740, 100.771864
1759224924.030872, 3.367295, 5.453542, -0.855777, 1.595834, -1.163147, -0.326540, -77.753586, -169.188919, -901.623840, 13.724740, 100.771864
1759224924.050886, 3.900155, 2.637812, 0.015862, 2.191000, -0.249895, 0.209496, -77.965164, -169.570267, -902.218140, 13.724740, 100.771864
1759224924.070878, 3.462465, 0.823306, 2.104204, 2.504766, 0.050528, 1.034116, -77.513321, -171.164536, -903.409973, 13.724740, 100.771864
1759224924.090866, 0.668581, 1.824531, 4.870105, 2.340568, -0.029166, 1.161504, -76.969437, -173.065033, -904.409302, 13.724740, 100.771864
1759224924.110399, -4.125509, 5.756110, 9.665093, 1.368355, -0.645287, 1.037127, -76.097641, -174.878769, -905.568115, 13.724740, 100.771864
1759224924.130871, -6.058677, 12.477681, 10.136900, -0.460488, -0.429145, 0.117193, -76.419647, -175.155350, -906.366943, 13.724740, 100.771864
1759224924.150871, -5.136760, 9.813084, -0.525228, -0.103631, 0.858721, -0.174015, -77.143753, -174.447556, -906.276855, 13.724740, 100.771864
1759224924.170873, -0.475249, 2.464980, -5.987898, 0.182824, 0.987332, -0.493272, -76.580719, -174.238663, -905.230530, 13.724740, 100.771864
1759224924.190861, 3.533243, 7.462876, 0.112527, 0.654260, -0.288319, -0.278575, -76.304901, -173.745209, -905.456299, 13.724740, 100.771864
1759224924.210873, 4.857686, 27.120768, 0.634164, -0.406446, 1.757561, 0.988397, -75.925140, -174.483154, -905.458130, 13.724740, 100.771864
1759224924.230870, 3.356222, 17.159991, 6.813599, -1.425107, 0.121706, 0.502174, -75.226349, -174.249496, -904.337219, 13.724740, 100.771864
1759224924.250864, 5.992088, 4.585345, -4.891204, -1.538441, 0.686884, 0.905102, -75.422302, -173.424179, -903.341980, 13.724740, 100.771864
1759224924.270863, 7.917775, 6.226870, -8.844779, 0.405513, -0.236961, 1.786757, -74.143494, -174.006790, -903.119873, 13.724740, 100.771864
1759224924.290858, 3.414730, 14.986655, -6.581660, 2.141455, -0.752669, 1.467891, -73.680084, -175.827255, -904.189087, 13.724740, 100.771864
1759224924.310477, -1.453131, 19.532945, -6.490681, 2.577483, 1.199429, 1.502142, -72.858170, -178.108139, -904.875122, 13.724740, 100.771864
1759224924.330948, -7.126641, 15.277102, -1.196652, 2.627891, 1.455878, 1.052271, -71.682892, -180.561646, -904.585938, 13.724740, 100.771864
1759224924.350902, -7.620594, 12.855965, 2.432509, 2.182196, 0.104996, 0.768139, -71.208435, -182.576294, -904.734802, 13.724740, 100.771864
1759224924.370903, -6.187515, 10.974721, 2.335544, 1.815203, -0.053200, 0.487647, -71.395966, -183.668594, -905.104492, 13.724740, 100.771864
1759224924.390478, -1.649156, 12.159701, 0.362871, 1.843060, 0.194237, 0.504515, -71.259644, -184.897919, -905.224487, 13.724740, 100.771864
1759224924.410972, -1.795502, 11.797728, 2.893093, 1.510212, -0.281572, 0.451290, -71.023270, -186.473755, -905.613708, 13.724740, 100.771864
1759224924.430621, -3.237858, 10.112659, 3.016544, 1.125127, -0.180935, 0.311619, -71.156784, -187.315994, -905.953735, 13.724740, 100.771864
1759224924.450881, -3.283049, 8.982596, 1.863587, 1.061696, -0.144258, 0.277241, -71.416443, -188.098709, -906.095093, 13.724740, 100.771864
1759224924.470885, -3.139247, 6.839486, 3.001880, 0.832008, -0.567850, 0.312339, -71.703735, -188.684021, -906.700500, 13.724740, 100.771864
1759224924.490859, -3.910779, 5.403115, 3.858106, 0.598724, -0.691211, 0.335179, -72.146622, -189.558838, -907.135559, 13.724740, 100.771864
1759224924.510875, -4.790648, 5.105785, 5.542876, 0.164560, -0.644796, 0.065291, -72.568344, -189.866760, -907.640869, 13.724740, 100.771864
1759224924.530854, -4.428675, 5.809680, 6.728604, -0.662275, -0.725948, -0.132000, -73.065094, -189.515076, -907.888550, 13.724708, 100.771877
1759224924.550904, -2.292298, 5.215170, 5.953631, -1.372282, -1.088489, -0.028559, -73.835907, -188.842224, -908.702271, 13.724708, 100.771877
1759224924.570575, -2.812439, 4.389918, 4.486435, -2.021043, -1.149732, -0.029219, -74.567093, -187.580811, -908.987732, 13.724708, 100.771877
1759224924.590473, -2.813786, 4.255095, 1.771560, -2.561654, -1.425693, -0.185779, -75.221344, -186.125107, -909.252991, 13.724708, 100.771877
1759224924.610900, -5.064036, 9.981427, 0.589423, -2.569637, -3.356842, -0.653162, -76.663071, -184.171799, -910.126282, 13.724708, 100.771877
1759224924.630472, -10.194361, 21.024981, -1.641225, -2.144177, -3.919125, -1.747618, -79.379440, -182.300644, -911.769409, 13.724708, 100.771877
1759224924.650899, -5.471649, 24.843583, -4.364929, -2.445613, 0.383781, -2.221056, -81.452713, -179.150238, -911.585571, 13.724708, 100.771877
1759224924.670902, 5.932084, 18.120964, -4.065654, -2.244542, 2.891009, -1.728658, -80.741470, -176.597656, -909.559937, 13.724708, 100.771877
1759224924.690857, 6.354810, 16.958130, 3.660136, -1.595836, 0.778431, -1.967805, -80.155594, -174.565598, -908.159424, 13.724708, 100.771877
1759224924.710914, 4.178181, 18.810794, 0.600196, -1.617817, -0.870105, -1.101360, -80.921707, -172.926132, -907.552734, 13.724708, 100.771877
1759224924.730885, -3.432836, 14.600141, -0.833033, -1.489955, -1.599298, -0.956719, -81.965424, -171.793427, -907.509277, 13.724708, 100.771877
1759224924.750900, -6.372317, 13.594576, 0.015712, -1.230138, -1.009858, -1.315360, -83.441605, -170.641479, -907.516479, 13.724708, 100.771877
1759224924.770901, -3.044826, 12.568811, -1.297657, -0.799874, -1.859606, -1.645745, -85.174133, -169.324432, -907.484131, 13.724708, 100.771877
1759224924.790857, 1.900697, 10.786178, -1.738939, -0.434719, -2.864011, -1.503414, -87.362701, -168.773254, -908.030762, 13.724708, 100.771877
1759224924.810902, 3.948188, 7.104045, -1.357812, -0.145940, -2.566330, -0.852133, -89.811172, -167.977722, -908.617065, 13.724708, 100.771877
1759224924.830786, 4.295048, 3.641581, -2.325368, 0.640393, -1.890369, -0.419272, -91.407791, -168.051300, -909.337036, 13.724708, 100.771877
1759224924.850880, 5.046379, 1.758691, -2.659359, 1.549032, -0.878378, -0.126690, -92.331528, -168.478348, -909.868408, 13.724708, 100.771877
1759224924.870888, 7.056909, 1.412429, -2.610578, 2.128836, -0.019817, 0.629903, -92.432190, -170.064850, -910.902649, 13.724708, 100.771877
1759224924.890856, 8.388534, 1.454926, -0.459387, 2.022771, -0.064368, 1.521046, -91.459396, -172.028687, -911.903320, 13.724708, 100.771877
1759224924.910898, 4.200328, 3.142539, 4.071639, 1.801997, -0.502680, 1.692337, -90.678589, -174.000122, -912.661316, 13.724708, 100.771877
1759224924.930729, -2.118270, 6.284330, 7.939173, 0.774465, 0.663072, 0.947342, -89.677902, -175.404770, -912.931702, 13.724708, 100.771877
1759224924.950028, -6.209063, 9.286210, 12.788030, -0.782383, 2.099581, 0.101127, -88.578415, -175.055954, -912.279114, 13.724708, 100.771877
1759224924.970899, -4.207510, 7.421277, 1.265036, -0.832924, 2.056079, -0.081579, -87.561188, -173.863464, -910.985596, 13.724708, 100.771877
1759224924.990855, -0.811934, 1.694796, -12.098649, -0.273375, 1.771924, -0.234677, -86.121201, -173.562790, -910.330750, 13.724708, 100.771877
1759224925.010897, -0.168642, -3.295020, -4.721216, 0.016393, 0.128266, -0.965921, -86.141632, -173.245255, -910.155273, 13.724708, 100.771877
1759224925.030888, 6.094141, 24.358159, 3.144634, 2.458915, 0.737695, 0.968808, -85.903412, -174.739532, -910.907349, 13.724708, 100.771877
1759224925.050889, 5.907543, 33.930776, -2.545934, -1.038148, 2.694500, 1.999156, -83.080460, -175.890396, -909.681824, 13.724708, 100.771877
1759224925.070877, 2.130989, 10.209474, 5.376778, -2.370598, 1.202040, 0.382251, -82.779373, -174.241592, -908.255371, 13.724708, 100.771877
1759224925.090856, 4.635025, 3.093458, -6.426037, -0.679473, 0.310113, 0.840598, -81.862671, -173.915497, -907.510132, 13.724708, 100.771877
1759224925.110963, 3.620631, 12.643031, -10.573243, 2.043423, -1.168824, 1.699719, -81.335205, -176.121948, -908.479675, 13.724708, 100.771877
1759224925.130878, -2.648286, 20.207511, -8.987234, 3.221368, -1.011401, 1.335817, -81.276642, -178.739105, -910.166931, 13.724708, 100.771877
1759224925.150606, -4.493168, 17.364696, -7.963713, 3.949434, 1.165964, 1.234800, -80.499863, -181.852097, -910.737488, 13.724708, 100.771877
1759224925.170903, -6.720075, 12.488754, -1.305887, 4.204051, 1.719226, 0.868569, -79.248093, -185.031067, -910.812927, 13.724708, 100.771877
1759224925.190855, -5.258864, 13.374310, 8.576479, 1.803300, 1.026583, 0.698474, -78.569321, -186.607407, -910.265259, 13.724708, 100.771877
1759224925.210941, -0.597503, 15.914857, 7.302016, 1.050462, -0.580223, 0.642225, -78.696671, -188.009445, -911.035156, 13.724708, 100.771877
1759224925.230869, -5.566818, 13.086557, 1.230171, 1.322740, 0.115886, 0.301991, -78.957397, -188.904877, -910.785583, 13.724708, 100.771877
1759224925.250867, -5.029619, 10.012402, 2.615815, 1.333117, 0.575967, 0.500316, -78.494843, -189.953003, -910.603760, 13.724708, 100.771877
1759224925.270859, -4.728249, 7.051971, 8.785673, 0.180205, -0.299815, 0.525705, -78.534332, -190.654984, -910.720459, 13.724708, 100.771877
1759224925.290855, -6.158186, 5.330091, 5.815366, -0.238526, -0.403575, 0.009395, -78.771027, -190.641754, -910.769653, 13.724708, 100.771877
1759224925.310874, -6.494122, 3.883395, 6.483498, -1.075165, -0.615588, -0.353586, -79.004669, -189.890427, -910.748352, 13.724708, 100.771877
1759224925.330880, -5.583727, 3.047669, 6.252907, -1.823765, -1.009598, -0.452685, -79.504501, -188.861023, -911.072937, 13.724708, 100.771877
1759224925.350876, -4.209755, 2.379537, 2.887258, -1.854102, -1.284873, -0.455743, -80.356979, -187.285583, -911.271851, 13.724708, 100.771877
1759224925.370033, -3.253122, 2.437746, 2.983026, -2.262051, -1.380118, -0.481924, -81.273514, -185.706207, -911.558411, 13.724708, 100.771877
1759224925.390854, -2.040608, 5.120898, 1.326388, -2.345189, -1.733706, -0.742735, -82.073288, -183.977066, -911.636169, 13.724708, 100.771877
1759224925.410372, -2.611475, 11.900529, -0.155324, -1.936672, -3.235233, -1.097787, -83.646378, -182.129150, -912.282104, 13.724708, 100.771877
1759224925.430874, -4.612130, 26.922049, -2.161964, -2.171722, -1.391768, -1.716356, -85.901627, -180.240219, -912.776306, 13.724708, 100.771877
1759224925.450878, 2.684648, 25.856181, -2.566435, -2.594742, 1.815829, -1.816893, -86.250061, -177.599960, -911.867554, 13.724708, 100.771877
1759224925.470897, 5.664831, 17.408988, 2.558953, -2.057521, 0.914785, -1.866991, -85.803238, -175.439545, -910.967529, 13.724708, 100.771877
1759224925.490480, 4.960786, 17.882891, 1.776348, -1.542680, 0.081934, -1.265277, -86.193192, -173.830978, -910.131287, 13.724708, 100.771877
1759224925.510288, -2.149993, 17.895610, 0.947805, -1.618595, 0.457447, -0.672879, -85.930222, -172.832062, -909.492554, 13.724708, 100.771877
1759224925.530883, -5.144990, 15.496021, 0.627879, -1.198679, -0.509440, -0.721340, -85.893127, -171.876587, -908.769897, 13.724708, 100.771877
1759224925.550887, -7.534702, 13.299192, -0.372149, -0.762066, -2.060520, -1.673723, -87.521118, -170.798752, -908.489563, 13.724708, 100.771877
1759224925.570874, 1.100734, 12.105383, 0.298976, -0.697201, -1.998508, -1.452364, -89.780365, -169.614059, -909.096619, 13.724708, 100.771877
1759224925.590853, 4.073136, 8.031200, -2.433257, 0.173770, -1.501504, -0.901276, -91.512543, -169.096069, -909.096741, 13.724708, 100.771877
1759224925.610878, 6.280440, 3.686023, -0.795474, 0.857729, -1.409462, -0.109173, -92.930115, -169.587646, -910.165283, 13.724708, 100.771877
1759224925.630877, 5.313931, -0.733224, -1.611896, 1.379540, -0.912714, 0.441060, -93.589172, -170.282196, -910.900085, 13.724708, 100.771877
1759224925.650878, 5.033659, -3.974824, -4.237587, 1.875570, -0.087763, 1.117214, -93.572754, -171.538345, -911.486450, 13.724708, 100.771877
1759224925.670961, 5.199159, -6.292112, -1.727117, 1.465812, -0.318388, 1.475484, -93.236221, -173.212265, -912.366638, 13.724708, 100.771877
1759224925.690853, 4.325724, -6.687305, 1.640477, 0.925728, -0.044918, 1.034107, -92.315735, -174.579224, -912.834839, 13.724708, 100.771877
1759224925.710887, -0.432752, -2.049137, 7.636905, 0.229928, 0.773221, 0.303605, -91.197174, -175.519943, -912.933411, 13.724708, 100.771877
1759224925.730875, -5.793070, 4.778527, 15.154848, -0.846234, 2.837414, -0.334996, -89.536942, -174.962494, -912.192932, 13.724708, 100.771877
1759224925.750877, -2.992602, 10.087071, -5.371840, 1.017496, 3.804533, -0.563239, -87.191284, -174.903442, -911.464844, 13.724708, 100.771877
1759224925.770961, 2.914492, 33.220446, -0.373795, -0.476731, 1.210034, -0.490273, -86.244049, -174.937485, -910.736877, 13.724708, 100.771877
1759224925.790471, 8.045415, 40.699034, 4.816086, -1.662338, 1.183809, 0.752546, -85.655350, -173.422470, -909.552979, 13.724708, 100.771877
1759224925.810466, 6.573281, 4.398747, -10.540922, -0.537776, 3.438789, 1.009441, -83.714142, -173.603928, -908.030151, 13.724708, 100.771877
1759224925.830874, 5.007024, -5.107580, -7.326407, -0.599249, 1.784386, 1.280019, -81.571533, -173.527893, -906.783569, 13.724708, 100.771877
1759224925.850877, 7.654113, 1.787122, -6.248866, 1.798311, -1.767346, 2.442445, -80.996292, -175.198700, -907.743042, 13.724708, 100.771877
1759224925.870874, 9.516652, 27.281778, -10.099790, 3.345085, -1.258414, 3.671773, -80.849213, -179.239960, -909.388916, 13.724708, 100.771877
1759224925.889904, -4.058321, 35.876962, -9.840767, 5.530488, -0.702180, 2.260267, -80.119171, -183.891525, -911.121216, 13.724708, 100.771877
1759224925.910872, -9.135525, 19.426103, -0.779762, 4.550857, 2.185753, 0.930164, -78.868118, -188.718872, -911.535645, 13.724708, 100.771877
1759224925.930877, -11.109844, 14.160506, 20.933253, 1.623654, 0.512539, 0.482246, -78.306702, -189.442719, -911.099976, 13.724708, 100.771877
1759224925.950879, -4.946570, 17.408390, 0.845602, 1.793841, 0.191434, 0.778521, -78.663925, -191.016418, -911.032349, 13.724708, 100.771877
1759224925.970954, -2.441338, 13.828610, 8.421455, 0.720895, 0.066690, 0.994503, -78.360977, -192.135117, -910.792480, 13.724708, 100.771877
1759224925.989909, -6.091747, 9.955091, 7.373543, 0.479824, -0.786901, 0.207958, -79.017563, -192.667557, -911.535645, 13.724708, 100.771877
1759224926.010872, -7.520487, 6.608894, 2.558354, 0.316956, -0.009302, -0.502235, -79.207840, -192.470901, -911.557129, 13.724708, 100.771877
1759224926.030905, -4.408174, 4.074482, 1.158494, 0.678609, 0.592496, -0.197384, -79.006668, -192.641220, -911.366882, 13.724708, 100.771877
1759224926.050880, -2.608333, 0.802656, 3.453337, 0.605374, 0.296745, 0.343101, -78.628311, -193.408875, -911.174255, 13.724708, 100.771877
1759224926.070878, -5.997625, 0.408511, 7.487118, -0.532158, -0.126218, 0.280558, -78.259079, -193.976868, -911.314270, 13.724708, 100.771877
1759224926.089946, -7.448661, 1.054646, 6.423942, -1.550907, -0.443003, -0.425721, -78.496674, -192.651062, -911.760132, 13.724720, 100.771882
1759224926.110874, -4.313005, 2.170045, 4.148104, -1.888102, -0.596594, -0.903648, -79.164932, -190.927353, -911.931885, 13.724720, 100.771882
1759224926.130884, -1.003919, 3.285593, 6.138583, -2.573610, -1.291877, -0.745370, -79.836121, -188.678146, -912.531982, 13.724720, 100.771882
1759224926.150127, 0.132130, 4.063409, 7.925705, -3.673372, -2.008309, -0.516189, -81.206833, -186.221664, -913.163269, 13.724720, 100.771882
1759224926.170888, -1.965789, 5.487510, -0.121057, -4.340431, -1.668198, -0.868397, -81.925262, -183.030807, -913.846985, 13.724720, 100.771882
1759224926.189970, -7.006930, 18.143709, -1.709460, -2.523123, -2.719253, -2.372014, -84.570938, -180.004044, -914.046997, 13.724720, 100.771882
1759224926.210883, -5.254674, 41.916785, -7.263559, -2.119994, 2.467506, -2.678281, -84.535370, -176.832291, -912.568298, 13.724720, 100.771882
1759224926.230872, 7.869741, 31.957205, 0.607080, -3.341172, 3.567333, -1.928202, -82.472458, -173.821320, -910.395447, 13.724720, 100.771882
1759224926.249952, 5.288492, 19.262400, 9.812636, -3.049721, -1.453457, -1.851979, -83.867783, -171.282211, -909.423218, 13.724720, 100.771882
1759224926.270699, 0.658555, 19.851224, 1.437120, -2.103853, -0.518979, -1.154726, -84.840683, -169.341797, -908.712524, 13.724720, 100.771882
1759224926.289979, -3.639935, 15.045163, -1.759289, -1.136139, -1.030046, -0.662208, -85.749374, -168.360641, -908.973877, 13.724720, 100.771882
1759224926.310915, -5.728576, 11.575217, -1.363498, -0.671838, -2.091185, -1.182268, -88.226822, -167.040634, -908.990845, 13.724720, 100.771882
1759224926.330872, 0.550217, 9.031976, -0.685340, -0.109724, -2.071604, -1.137437, -90.092422, -166.562485, -909.636108, 13.724720, 100.771882
1759224926.350882, 5.719448, 6.517615, -2.702455, 0.803288, -1.361256, -0.811536, -91.745483, -166.817627, -910.440552, 13.724720, 100.771882
1759224926.370882, 6.353912, 2.240225, -3.852719, 1.843436, -0.628505, -0.233413, -92.442337, -167.951340, -911.701843, 13.724720, 100.771882
1759224926.389996, 5.215469, -2.461838, -3.957166, 2.767421, 0.105588, 0.478190, -92.369247, -169.714401, -913.294373, 13.724720, 100.771882
1759224926.410912, 4.558261, -6.897246, -2.645294, 2.645395, -0.348707, 1.134678, -92.183517, -172.001038, -914.128418, 13.724720, 100.771882
1759224926.430931, 2.604891, -9.887903, 0.085593, 1.563883, -0.569496, 0.737465, -91.908615, -173.526733, -915.200562, 13.724720, 100.771882
1759224926.450862, -0.062997, -9.334543, 2.961927, 0.991578, -0.452378, 0.075277, -91.667191, -174.661789, -915.701416, 13.724720, 100.771882
1759224926.470861, 0.215478, 2.990508, 9.619304, -0.669841, 0.770195, -0.110034, -90.512909, -174.192001, -915.544067, 13.724720, 100.771882
1759224926.490020, -0.039355, 13.497312, 20.966473, -1.527966, 3.076018, 0.105552, -89.659927, -173.556854, -914.784668, 13.724720, 100.771882
1759224926.510124, 2.861370, 14.766987, -8.711003, 0.675409, 4.784384, 0.346340, -87.144501, -172.767990, -913.147217, 13.724720, 100.771882
1759224926.530844, 9.218425, 11.061661, -10.662128, 1.837702, -1.739006, 0.300717, -85.249359, -173.691544, -912.710815, 13.724720, 100.771882
1759224926.550869, 8.967632, 46.799011, 11.324125, -0.733874, 3.242802, 1.360403, -85.345322, -174.576584, -913.543945, 13.724720, 100.771882
1759224926.570880, 5.462521, 16.296134, -6.696133, -1.236836, 3.380315, 2.360343, -82.069565, -174.563751, -911.360107, 13.724720, 100.771882
1759224926.590038, -0.694318, -2.302025, -6.398803, -0.345894, 1.351331, 1.666080, -80.309998, -174.733261, -910.171143, 13.724720, 100.771882
1759224926.610875, 1.506102, 0.949900, -6.433818, 0.725210, -0.380828, 1.790191, -79.334030, -175.512955, -910.190002, 13.724720, 100.771882
1759224926.630849, 7.227347, 35.314624, -12.619687, 2.895449, -0.578638, 3.210548, -78.503189, -178.122543, -911.502319, 13.724720, 100.771882
1759224926.650864, 1.789815, 37.966053, -11.914146, 5.593477, -0.525003, 2.564236, -77.708893, -183.383163, -912.637817, 13.724720, 100.771882
1759224926.670863, -5.047127, 22.306627, -4.604199, 7.089722, 0.776555, 1.232607, -77.121017, -189.024277, -913.702576, 13.724720, 100.771882
1759224926.690058, -10.100089, 18.997541, 22.268170, 0.676507, 3.983505, 0.952022, -74.721619, -192.281769, -911.879089, 13.724720, 100.771882
1759224926.710861, -6.161328, 15.282788, 3.055001, 1.293476, -2.012999, 0.675761, -75.149307, -193.134949, -912.291443, 13.724720, 100.771882
1759224926.730859, -4.864868, 9.793033, 1.583764, 0.740349, -0.441141, 0.307196, -75.831161, -193.823364, -912.798462, 13.724720, 100.771882
1759224926.750860, -5.861006, 5.450550, 3.299210, 0.511619, -0.209338, 0.062090, -76.485718, -194.284943, -913.003174, 13.724720, 100.771882
1759224926.770418, -5.505018, 3.117101, 2.236783, 0.383830, 0.547043, -0.363576, -76.632919, -193.905090, -912.733398, 13.724720, 100.771882
1759224926.790077, -4.270956, 0.368857, 1.169867, 0.771968, 0.703419, -0.246467, -76.389648, -193.929398, -912.337158, 13.724720, 100.771882
1759224926.810711, -4.287566, -0.406865, 4.645799, 0.886048, -0.103067, 0.457311, -76.303772, -194.765366, -912.347961, 13.724720, 100.771882
1759224926.830859, -5.387852, 1.985691, 5.261857, 0.054546, -0.036609, 0.294193, -76.022324, -194.962265, -912.227661, 13.724720, 100.771882
1759224926.850862, -3.409493, 1.466149, 6.318597, -0.739479, -0.046765, -0.443521, -76.324326, -194.404480, -912.468384, 13.724720, 100.771882
1759224926.870860, 0.255282, 2.483086, 7.116166, -1.598273, -0.384506, -0.613526, -76.513275, -192.990829, -912.427734, 13.724720, 100.771882
1759224926.890096, 1.134552, 2.866608, 6.584503, -2.902050, -1.395955, -0.029114, -77.180328, -191.115585, -912.682739, 13.724720, 100.771882
1759224926.910860, -1.955614, 3.400365, 1.558625, -3.457763, -1.747101, 0.182923, -78.351074, -188.849106, -913.469482, 13.724720, 100.771882
1759224926.930880, -7.770232, 9.046790, -4.432116, -3.456472, -0.750045, -0.438311, -78.360062, -186.499298, -913.915771, 13.724720, 100.771882
1759224926.950874, -9.093926, 32.386665, -7.127987, -1.959193, -1.745601, -2.224728, -80.175858, -183.772766, -914.153809, 13.724720, 100.771882
1759224926.970859, 8.664765, 47.140484, -3.762638, -1.446046, 3.431159, -2.727964, -79.939835, -180.848221, -912.503662, 13.724720, 100.771882
1759224926.990124, 13.617770, 32.404023, 9.890297, -2.920425, 2.593203, -1.951275, -78.327057, -177.985626, -910.245117, 13.724720, 100.771882
1759224927.010925, 9.465776, 19.645622, 0.023194, -2.542726, -0.428126, -1.434769, -79.180664, -175.151840, -909.434631, 13.724720, 100.771882
1759224927.030880, 2.462137, 16.471808, -2.471265, -1.368318, 0.856421, -0.008470, -78.574799, -174.546844, -908.386230, 13.724720, 100.771882
1759224927.050876, -6.280290, 12.960711, -0.727388, -0.890607, -1.600741, 0.304163, -78.996719, -174.325714, -908.867432, 13.724720, 100.771882
1759224927.070789, -6.441151, 12.329690, -2.817526, -0.585610, -1.342049, -0.942133, -80.313263, -173.309402, -909.045898, 13.724720, 100.771882
1759224927.090137, 2.475305, 8.981997, -1.115848, -0.185698, -1.738681, -1.441331, -82.304977, -172.169434, -909.569885, 13.724746, 100.771881
1759224927.110113, 6.493225, 4.402488, -4.364330, 0.598626, -1.776355, -1.190658, -84.515167, -171.853622, -910.289307, 13.724746, 100.771881
1759224927.130643, 6.773496, -0.317830, -3.295619, 1.548446, -1.445740, -0.372876, -85.758011, -172.657394, -911.637756, 13.724746, 100.771881
1759224927.150879, 5.870582, -4.690091, -1.292570, 2.029388, -0.762252, 0.524986, -86.584503, -174.003525, -912.716064, 13.724746, 100.771881
1759224927.170880, 4.976348, -9.359682, 2.811691, 1.603208, -1.206569, 0.859720, -87.143021, -175.547760, -913.668701, 13.724746, 100.771881
1759224927.190156, 2.652626, -10.196007, 3.539378, 0.292596, -1.845992, 0.453312, -87.822189, -176.279449, -914.800415, 13.724746, 100.771881
1759224927.210902, -1.335216, -0.408062, 9.622147, -0.269364, -1.314779, -0.091638, -87.996368, -176.634460, -915.053345, 13.724746, 100.771881
1759224927.230773, -1.628506, 13.420248, 19.274371, -2.162918, 2.141941, -0.514370, -87.002182, -174.774994, -913.742432, 13.724746, 100.771881
1759224927.250895, 3.446004, 14.866795, 1.579425, -0.349530, 2.554790, -0.225540, -85.355164, -174.111359, -912.370728, 13.724746, 100.771881
1759224927.270665, 1.193061, 6.801029, -14.912734, -0.769397, 3.074037, -0.402344, -84.166245, -173.058472, -911.100525, 13.724746, 100.771881
1759224927.290175, 7.062596, 15.567847, -6.003012, -0.403730, 0.325119, -1.833444, -83.941864, -172.302246, -910.667542, 13.724746, 100.771881
1759224927.310871, 9.011326, 33.426946, -16.981923, -0.388013, 0.804977, 0.416444, -83.285110, -172.454361, -910.446045, 13.724746, 100.771881
1759224927.330877, 5.793818, 4.617368, -1.108515, 0.003115, 2.042905, 1.697006, -81.782562, -173.051910, -909.330933, 13.724746, 100.771881
1759224927.349996, 4.281431, -4.947468, -7.462577, 0.017232, 2.912338, 0.948094, -79.987762, -173.122437, -907.924316, 13.724746, 100.771881
1759224927.370872, 11.007342, 3.095852, -2.710984, 0.137816, 1.403471, 1.038109, -78.344482, -174.174210, -907.521912, 13.724746, 100.771881
1759224927.390194, 22.040871, 41.168746, -13.043910, 2.288616, -0.482166, 3.768373, -77.345718, -177.361588, -908.604187, 13.724746, 100.771881
1759224927.410801, 0.420631, 33.562517, -6.703765, 4.459866, -2.292643, 4.214753, -77.142746, -183.417068, -911.198120, 13.724746, 100.771881
1759224927.430574, -8.582614, 19.500324, -1.087716, 6.481755, -2.457697, 2.225778, -77.190903, -189.050018, -913.016357, 13.724746, 100.771881
1759224927.450554, -14.635755, 19.632903, 20.168306, 0.965411, 3.781100, 0.384431, -75.841553, -189.633408, -911.164795, 13.724746, 100.771881
1759224927.470896, -4.146159, 17.132608, 4.695628, 1.467558, 0.071018, 0.999387, -75.779144, -191.177826, -910.875244, 13.724746, 100.771881
1759224927.490215, -2.620154, 8.477120, 4.212598, 0.892243, -0.041301, 0.440010, -75.679276, -191.781647, -911.161499, 13.724746, 100.771881
1759224927.510861, -2.708590, 4.317494, 3.025223, 1.083567, 0.048210, 0.061523, -75.847137, -192.483795, -911.000488, 13.724746, 100.771881
1759224927.530873, -2.685546, 1.166275, 2.772785, 0.889925, 0.532642, 0.268966, -75.458633, -193.296722, -910.408630, 13.724746, 100.771881
1759224927.550911, -6.239290, -0.071377, 0.143802, 0.849690, 1.421873, 0.700129, -74.704147, -194.357513, -909.594971, 13.724746, 100.771881
1759224927.570661, -7.218518, -0.229544, 7.022343, 1.015167, 0.788536, 1.437800, -74.093918, -196.000717, -909.436096, 13.724746, 100.771881
1759224927.590233, -8.762180, 1.787571, 8.553435, 0.004786, -0.169418, 0.791941, -74.032471, -196.134995, -909.490234, 13.724746, 100.771881
1759224927.610923, -0.038756, 3.873070, 4.545990, -0.996643, -0.265922, -0.134948, -74.256592, -195.440292, -909.544434, 13.724746, 100.771881
1759224927.630867, -1.101183, 4.108300, 7.163601, -1.772192, -0.423911, 0.051108, -74.710434, -194.235565, -910.185181, 13.724746, 100.771881
1759224927.650889, -6.052542, 2.866757, 3.449147, -2.516155, -0.777565, 0.055471, -75.062698, -192.778259, -910.743286, 13.724746, 100.771881
1759224927.670857, -8.815451, 2.775628, -2.013075, -2.790959, -1.163827, -0.412888, -75.240707, -190.761627, -911.073792, 13.724746, 100.771881
1759224927.690253, -13.403040, 12.660538, -4.560954, -2.161620, -2.469569, -1.875039, -75.756332, -189.780624, -911.914429, 13.724746, 100.771881
1759224927.710848, -5.844994, 34.352155, -9.494057, -1.512550, -1.702525, -3.796640, -78.376266, -184.837784, -912.413269, 13.724746, 100.771881
1759224927.730871, 16.746244, 43.757327, 8.523807, -2.262617, 4.389178, -2.563832, -77.326157, -183.216003, -911.117554, 13.724746, 100.771881
1759224927.750166, 12.606220, 23.714717, 7.945757, -2.765462, 1.538449, -2.005223, -75.855698, -180.402756, -909.100037, 13.724746, 100.771881
1759224927.770891, 11.392210, 18.613721, -2.150891, -2.375260, 0.106879, -2.206737, -76.405060, -177.383148, -908.068726, 13.724746, 100.771881
1759224927.790272, 4.583699, 16.194679, -1.489343, -1.888159, 0.742344, -0.747468, -76.372192, -175.764252, -906.971497, 13.724746, 100.771881
1759224927.810867, -4.180276, 16.745346, 2.477849, -2.276626, -2.449549, -0.343948, -76.714233, -174.824539, -907.267334, 13.724746, 100.771881
1759224927.830871, -0.482881, 14.200758, -1.571494, -2.304732, -2.783916, -1.284693, -79.255066, -172.460541, -907.457397, 13.724746, 100.771881
1759224927.850116, 5.585672, 8.000075, -4.595820, -1.296379, -2.501126, -1.435225, -81.803192, -170.542862, -907.837402, 13.724746, 100.771881
1759224927.870889, 4.751892, 0.778265, -7.447164, 0.185184, -1.289237, -1.098257, -83.134781, -169.977356, -908.141357, 13.724746, 100.771881
1759224927.890324, 4.335450, -5.127482, -7.321918, 1.544684, -0.703544, -0.780409, -84.442291, -170.249908, -909.342651, 13.724746, 100.771881
1759224927.910876, 7.518541, -11.135133, -5.784840, 2.514655, -1.091925, 0.082177, -85.211487, -171.453827, -910.372925, 13.724746, 100.771881
1759224927.930873, 6.878990, -14.408455, 2.179322, 1.890998, -1.595967, 0.131094, -86.060089, -173.208389, -911.538269, 13.724746, 100.771881
1759224927.950872, 2.735675, -7.504625, 6.332214, 1.290608, -0.267379, 0.280022, -86.008148, -174.484406, -912.465393, 13.724746, 100.771881
1759224927.970010, -4.003853, 4.056526, 19.782839, 0.017754, 0.677237, 0.326485, -84.659470, -175.478378, -912.540588, 13.724746, 100.771881
1759224927.990313, -1.645116, 12.842348, 15.630845, -1.838920, 0.946106, 0.507453, -83.633362, -174.654053, -911.160889, 13.724746, 100.771881
1759224928.010433, -0.124798, 18.550274, -3.699341, -1.484730, 0.724922, 0.673116, -83.229187, -173.396301, -910.156982, 13.724746, 100.771881
1759224928.030873, 2.952948, 8.694094, -22.723667, -0.350278, 0.794861, 0.222496, -83.195251, -172.757675, -909.492737, 13.724746, 100.771881
1759224928.050874, 7.596203, 38.336556, 48.936285, -1.240098, -0.057912, -1.855136, -83.023682, -172.386917, -908.704224, 13.724746, 100.771881
1759224928.070873, 12.074857, 23.201161, -33.876756, -0.400676, 3.263732, -0.198880, -81.635208, -171.738358, -907.298462, 13.724746, 100.771881
1759224928.090343, 7.865551, 0.752079, -9.653571, 0.024346, 2.155090, 1.234052, -80.294601, -172.093933, -906.051270, 13.724772, 100.771884
1759224928.110868, 4.564695, -7.596952, -8.197148, 0.173264, 2.503011, 1.037234, -78.469620, -172.737854, -904.871582, 13.724772, 100.771884
1759224928.130186, 13.642460, 6.215497, -3.317765, 0.762266, 0.454397, 1.002113, -76.782516, -173.689011, -904.575073, 13.724772, 100.771884
1759224928.150022, 20.398149, 43.323827, -13.924078, 2.422426, 0.639669, 4.298651, -75.914505, -176.968063, -905.273438, 13.724772, 100.771884
1759224928.170865, -2.003049, 30.400376, -4.734384, 4.972641, -2.818241, 3.690376, -75.389984, -182.702744, -908.309021, 13.724772, 100.771884
1759224928.190352, -6.524499, 17.005715, 0.179864, 6.475624, -2.286000, 1.754380, -76.089142, -187.909821, -910.434204, 13.724772, 100.771884
1759224928.210723, -17.301848, 15.931167, 16.356587, 1.559112, 3.291873, 0.698601, -74.207077, -189.660263, -909.022034, 13.724772, 100.771884
1759224928.230597, -7.820211, 15.088259, 3.818153, 2.250785, -0.200166, 1.216623, -74.292572, -191.384445, -908.900635, 13.724772, 100.771884
1759224928.250878, -5.183746, 11.025448, 9.074024, 1.131091, -0.719505, 0.886779, -74.853119, -192.691803, -909.341187, 13.724772, 100.771884
1759224928.270869, -4.778228, 8.422951, 6.630592, 0.829232, -0.642750, -0.047787, -75.305191, -193.023590, -909.394775, 13.724772, 100.771884
1759224928.290383, -2.048838, 6.266972, 2.873641, 0.652436, 0.662178, -0.698280, -75.385803, -192.903458, -908.772095, 13.724772, 100.771884
1759224928.310869, 0.477943, 2.608333, 4.293252, 0.561443, 1.440097, -0.305352, -74.931244, -193.026413, -908.087158, 13.724772, 100.771884
1759224928.330864, -3.827431, -0.450260, 10.070760, -0.117540, 1.041566, 0.337814, -73.834045, -193.354630, -907.318176, 13.724772, 100.771884
1759224928.350871, -5.919963, 0.753575, 7.067085, -1.362729, 0.599006, 0.479208, -73.408463, -192.939896, -907.023438, 13.724772, 100.771884
1759224928.370869, -6.024859, 0.319626, 3.604620, -1.637842, -0.751622, -0.010978, -74.078079, -192.121231, -907.573730, 13.724772, 100.771884
1759224928.390391, -2.321029, 4.430919, 5.339818, -1.848747, -0.452666, -0.265504, -74.158661, -190.656876, -907.666870, 13.724772, 100.771884
1759224928.410864, -2.956091, 5.926697, 5.165041, -2.983333, -0.586026, 0.147129, -74.437668, -189.226974, -907.630005, 13.724772, 100.771884
1759224928.430868, -8.114847, 14.600889, -1.498172, -3.239576, -1.578105, -0.331835, -74.747055, -187.447281, -908.165039, 13.724772, 100.771884
1759224928.450905, -6.578817, 34.630780, -10.360010, -2.310036, -1.556262, -2.424639, -76.700958, -184.200363, -908.241089, 13.724772, 100.771884
1759224928.470961, 8.023718, 22.806866, 4.879383, -2.949722, 2.289758, -2.469760, -76.290848, -181.084244, -906.676208, 13.724772, 100.771884
1759224928.490413, 9.536255, 13.874698, 7.457938, -3.174758, -0.474159, -2.220700, -77.019073, -178.067368, -906.034729, 13.724772, 100.771884
1759224928.510856, 9.495105, 21.255573, -2.594267, -2.237309, 0.811162, -1.809756, -77.075470, -176.091675, -904.831726, 13.724772, 100.771884
1759224928.530837, 2.388366, 18.787450, 1.457470, -1.577519, 0.774007, -1.099292, -76.656998, -175.208649, -903.823975, 13.724772, 100.771884
1759224928.550018, -4.052486, 13.964181, 2.849250, -2.024341, -1.559436, -0.714895, -78.301514, -173.600311, -904.110291, 13.724772, 100.771884
1759224928.570876, -2.314744, 12.806435, -2.084003, -1.833841, -2.489690, -0.950238, -80.046066, -172.248703, -904.407227, 13.724772, 100.771884
1759224928.590476, 5.219210, 11.235390, -2.340332, -1.013349, -1.608583, -1.224569, -82.040207, -170.869492, -904.632935, 13.724772, 100.771884
1759224928.610027, 5.928043, 6.705411, -1.098041, -0.360076, -1.941992, -1.114154, -83.674835, -170.519852, -905.201904, 13.724772, 100.771884
1759224928.630870, 4.418350, 2.523339, -3.224241, 0.729379, -1.397632, -1.055402, -84.718460, -170.660294, -906.174561, 13.724772, 100.771884
1759224928.650886, 2.703652, -0.514753, -3.421464, 1.914269, -0.855872, -0.787893, -85.685577, -171.755844, -907.549255, 13.724772, 100.771884
1759224928.670889, 1.944092, -2.678962, -2.671630, 2.754483, -1.080311, -0.432096, -86.456848, -173.422852, -909.145264, 13.724772, 100.771884
1759224928.690497, 2.388665, -4.734833, -0.595558, 2.509071, -1.147501, -0.135861, -87.397903, -175.178482, -910.296936, 13.724772, 100.771884
1759224928.710904, 1.845929, -4.405331, 4.888511, 1.735893, -0.745070, 0.010146, -87.328476, -176.299576, -910.826904, 13.724772, 100.771884
1759224928.730652, 2.166154, 2.706795, 12.877663, 0.615031, 1.388309, 0.083114, -85.795792, -176.897842, -910.391357, 13.724772, 100.771884
1759224928.750677, 5.855170, 9.245808, 15.801132, -1.139493, 1.547040, 0.287146, -85.005417, -176.497894, -909.567871, 13.724772, 100.771884
1759224928.770843, 4.501099, 10.387543, -1.699883, -0.852834, 1.711294, 0.058446, -83.927216, -176.042130, -908.402710, 13.724772, 100.771884
1759224928.790469, 2.333598, 2.861370, -17.738939, 0.045400, 3.593992, 0.060642, -82.324051, -176.047501, -906.925781, 13.724772, 100.771884
1759224928.810868, 11.941380, 16.697761, 15.459659, 1.037773, -0.696217, -1.179052, -82.795288, -175.970947, -907.107300, 13.724772, 100.771884
1759224928.830862, 12.220753, 41.937435, -36.357149, -0.945247, 3.864130, 1.378252, -79.479874, -176.921600, -905.457947, 13.724772, 100.771884
1759224928.850864, -0.032172, 9.403526, -8.249970, -0.286941, 3.160259, 2.334186, -78.472733, -177.796234, -904.065430, 13.724772, 100.771884
1759224928.870852, 0.038756, -6.268319, -5.592556, 0.541555, 1.848143, 1.197787, -77.158783, -178.676437, -903.217102, 13.724772, 100.771884
1759224928.890489, 4.033332, -1.533187, -3.790171, 0.304073, 1.448309, 1.195616, -75.542191, -179.851212, -902.772461, 13.724772, 100.771884
1759224928.910850, 13.766660, 29.407829, -11.190199, 1.716576, -0.555129, 3.185377, -75.421463, -183.472183, -904.000732, 13.724772, 100.771884
1759224928.930875, 3.339462, 36.098426, -9.720908, 4.640646, -1.144039, 3.247301, -75.150528, -188.417343, -905.625000, 13.724772, 100.771884
1759224928.950282, -2.960281, 16.407763, -0.390255, 6.406924, -1.692444, 1.633165, -75.564087, -190.755371, -906.429504, 13.724772, 100.771884
1759224928.970942, -16.158467, 18.136078, 19.851822, 3.663308, 4.051219, 0.816819, -74.043350, -194.366272, -905.537109, 13.724772, 100.771884
1759224928.990508, -5.307496, 18.870349, 7.796418, 1.346169, 2.151685, 0.757691, -73.051666, -195.200424, -903.188782, 13.724772, 100.771884
1759224929.010870, -4.756531, 12.142044, 8.943840, 0.801758, -2.296347, 1.360091, -74.109741, -196.439590, -904.558228, 13.724772, 100.771884
1759224929.030857, -6.588544, 8.744223, 4.400543, -0.118551, -1.470893, 1.091086, -75.083557, -197.227890, -905.667236, 13.724772, 100.771884
1759224929.050871, -8.045266, 4.730045, 3.170821, -0.214931, -0.800585, -0.076959, -75.712234, -197.633636, -905.828430, 13.724772, 100.771884
1759224929.070874, -4.596418, 1.506701, 0.010475, -0.008087, 0.509703, -1.155795, -75.683044, -196.938873, -905.979797, 13.724772, 100.771884
1759224929.090531, -0.052224, 1.066467, 3.937414, 0.803218, 0.479710, -0.427517, -75.607285, -196.940704, -905.582458, 13.724794, 100.771884
1759224929.110874, -4.137180, 0.674716, 8.105570, -0.018633, -0.142348, 0.248284, -75.405579, -197.646103, -905.749146, 13.724794, 100.771884
1759224929.130502, -4.314351, 3.829526, 6.192453, -1.268325, -0.349637, -0.103626, -75.347977, -197.028397, -906.300415, 13.724794, 100.771884
1759224929.150884, 0.119560, 6.909965, 7.048081, -1.915873, -0.582804, -0.075387, -76.082947, -196.024490, -906.664795, 13.724794, 100.771884
1759224929.170860, 1.734300, 6.586000, 7.217770, -3.553258, -1.643096, 0.689693, -77.152908, -194.845413, -907.591797, 13.724794, 100.771884
1759224929.190547, -4.620211, 8.541464, -1.172261, -4.702798, -2.492069, 0.574882, -77.716278, -192.952927, -909.423096, 13.724794, 100.771884
1759224929.210865, -10.256311, 22.359150, -5.025878, -3.143777, -2.849769, -1.985417, -79.689499, -190.150330, -910.785583, 13.724794, 100.771884
1759224929.230843, 1.664419, 32.234783, -7.843405, -2.542155, 0.237585, -2.942710, -80.283279, -186.545288, -910.508606, 13.724794, 100.771884
1759224929.250339, 12.807034, 23.587375, -1.142932, -2.317046, 4.830704, -2.025627, -77.932327, -184.032654, -907.940674, 13.724794, 100.771884
1759224929.269979, 9.804705, 18.606538, 9.348011, -2.337799, 1.181670, -1.824836, -77.364853, -181.939651, -907.128967, 13.724794, 100.771884
1759224929.290573, 4.690840, 18.535311, 0.314389, -2.544201, -1.229684, -1.195614, -78.291565, -179.796967, -907.464844, 13.724794, 100.771884
1759224929.310853, -2.631078, 13.652336, -3.091663, -1.480934, -0.795963, -0.532270, -78.664032, -178.522812, -907.638367, 13.724794, 100.771884
1759224929.330855, -2.545635, 12.160898, -2.803461, -0.792312, -1.631531, -1.251108, -79.735168, -177.200699, -907.708130, 13.724794, 100.771884
1759224929.350850, 3.320010, 11.940333, -1.236306, -0.454125, -2.096680, -1.266339, -81.525543, -175.742493, -908.525757, 13.724794, 100.771884
1759224929.370849, 5.698948, 7.000496, -3.443161, 0.518435, -1.675622, -1.185637, -83.581390, -174.957703, -909.263916, 13.724794, 100.771884
1759224929.390637, 6.184223, 1.039084, -5.208735, 1.586158, -0.933341, -0.537343, -84.901566, -175.196884, -910.036621, 13.724794, 100.771884
1759224929.410848, 4.678569, -3.781791, -3.739893, 2.198625, -0.846657, 0.247808, -85.635223, -176.513077, -911.450256, 13.724794, 100.771884
1759224929.430849, 4.063409, -7.667880, -1.741183, 1.929034, -0.659887, 0.716743, -86.100296, -178.043091, -912.124207, 13.724794, 100.771884
1759224929.450550, 3.474436, -12.391789, 1.780687, 1.290863, -0.258709, 0.354368, -86.256104, -179.496155, -913.121277, 13.724794, 100.771884
1759224929.470849, -0.451307, -6.537368, 9.203910, -0.110964, 1.494386, 0.334529, -84.959167, -180.727203, -913.245911, 13.724794, 100.771884
1759224929.490656, -0.638803, 7.016507, 19.709218, -1.050667, 1.938212, 0.310861, -83.558929, -180.203079, -912.671997, 13.724794, 100.771884
1759224929.510867, 0.319776, 13.509582, 6.959346, 0.056795, 2.382981, -0.067193, -81.887405, -179.601562, -911.733887, 13.724794, 100.771884
1759224929.530830, 2.101959, 12.731018, -18.353202, -0.125123, 1.892385, -0.388592, -80.822388, -179.333191, -910.758423, 13.724794, 100.771884
1759224929.550885, 11.398345, 24.931869, -1.676240, 0.576569, 0.140231, -1.131851, -81.144348, -179.361679, -911.192993, 13.724794, 100.771884
1759224929.570883, 7.955034, 33.346740, -15.844827, -1.280286, 3.423337, 1.309446, -78.875031, -178.607864, -909.097168, 13.724794, 100.771884
1759224929.590626, 5.374534, 3.326444, -2.043601, -0.763024, 1.102797, 1.115786, -77.826019, -178.470779, -907.950928, 13.724794, 100.771884
1759224929.610944, 4.238186, -5.258265, -8.989629, -0.884564, 0.591775, 1.679779, -76.834305, -178.762039, -907.534668, 13.724794, 100.771884
1759224929.630848, 5.437681, -0.664241, -10.676044, 2.171118, -1.839350, 2.166486, -76.036087, -180.476776, -908.514893, 13.724794, 100.771884
1759224929.650869, 10.966790, 27.697920, -13.808109, 4.249683, -1.914122, 3.122758, -76.945175, -184.388367, -910.488464, 13.724794, 100.771884
1759224929.670924, 2.241422, 40.535181, -8.604312, 7.614078, -1.745520, 2.128415, -77.447525, -190.755615, -912.381836, 13.724794, 100.771884
1759224929.690645, -11.120917, 18.226010, 14.107684, 2.668120, 4.466626, 0.445537, -75.180008, -195.029465, -910.928284, 13.724794, 100.771884
1759224929.710879, -5.822848, 19.135657, 9.810241, 2.190627, -0.530655, 0.718201, -74.731216, -196.146057, -910.375122, 13.724794, 100.771884
1759224929.730795, -2.487276, 16.878523, 5.427057, 1.263540, -0.596884, 1.155275, -75.458435, -197.361282, -910.504456, 13.724794, 100.771884
1759224929.750860, -2.950554, 11.807903, 8.989329, 0.507896, -0.786780, 0.776784, -75.925995, -198.797363, -910.923828, 13.724794, 100.771884
1759224929.770054, -5.650166, 8.727015, 3.668964, 0.414493, -0.638870, -0.029622, -76.986969, -198.885437, -911.340332, 13.724794, 100.771884
1759224929.790665, -4.592677, 4.192397, -2.567781, 0.959982, 1.351812, -0.178769, -76.531067, -198.875183, -910.655396, 13.724794, 100.771884
1759224929.810879, -0.457592, 2.200421, 1.357812, 1.577611, 0.413457, 0.769381, -76.137909, -200.115692, -910.201233, 13.724794, 100.771884
1759224929.830777, -4.361487, 0.572364, 9.633819, 0.256513, -0.493491, 1.377000, -75.772202, -201.502106, -910.516479, 13.724794, 100.771884
1759224929.850825, -8.393921, 2.138321, 8.029105, -1.277231, -1.007954, 0.658202, -76.790848, -201.312393, -911.260010, 13.724794, 100.771884
1759224929.870880, -4.905869, 1.062876, 3.229329, -1.437271, -1.149532, 0.051727, -77.683517, -200.174622, -912.080872, 13.724794, 100.771884
1759224929.890684, -1.193510, 2.436848, 8.005013, -2.462281, -1.785205, -0.012321, -78.411560, -198.622101, -912.993286, 13.724794, 100.771884
1759224929.910878, -1.431433, 4.210204, 4.207061, -3.727870, -1.868317, 0.238963, -79.519897, -196.351562, -914.566833, 13.724794, 100.771884
1759224929.930861, -6.682666, 6.913407, -4.002207, -3.643283, -1.734995, -0.824682, -80.420929, -193.340454, -915.580627, 13.724794, 100.771884
1759224929.950863, -6.760178, 21.676803, -4.412214, -2.845580, -0.770929, -2.733345, -81.806290, -189.420258, -916.229248, 13.724794, 100.771884
1759224929.970879, 13.091794, 36.169204, -1.240047, -3.319884, 0.999276, -2.086783, -81.358276, -185.919968, -915.370605, 13.724794, 100.771884
1759224929.990705, 14.525322, 27.325622, 6.314408, -3.684886, -0.043448, -1.727553, -81.519043, -181.944138, -915.091370, 13.724794, 100.771884
1759224930.009958, 13.133992, 25.165903, -4.215740, -2.545104, 1.941983, -1.375239, -80.419800, -179.574219, -913.709595, 13.724794, 100.771884
1759224930.030860, 6.346580, 19.324649, -0.511012, -1.861574, 1.596750, -0.529164, -79.074631, -177.861008, -912.082397, 13.724794, 100.771884
1759224930.050494, -2.771438, 13.781773, 1.467795, -2.035184, -1.026356, -0.312171, -80.008530, -176.276215, -911.859863, 13.724794, 100.771884
1759224930.070857, -4.950461, 12.449998, -1.039532, -1.695257, -2.025816, -0.715882, -81.595474, -174.320816, -911.887024, 13.724794, 100.771884
1759224930.090729, 0.117466, 10.835558, -2.755277, -0.966113, -1.793872, -1.157310, -83.257721, -172.982773, -912.384705, 13.724815, 100.771886
1759224930.110846, 3.524265, 7.344363, -3.455132, -0.021336, -2.191751, -1.466470, -85.463531, -171.952637, -912.571655, 13.724815, 100.771886
1759224930.130845, 3.028515, 3.088371, -5.413739, 1.163731, -1.582117, -1.471115, -87.405624, -171.940735, -913.737915, 13.724815, 100.771886
1759224930.150870, 2.073678, -1.508497, -5.550957, 2.409356, -1.730899, -1.273032, -88.375244, -172.645187, -914.419861, 13.724815, 100.771886
1759224930.170880, 2.533664, -6.336255, -7.565228, 3.109137, -1.699105, -0.473590, -90.053101, -173.998581, -915.766907, 13.724815, 100.771886
1759224930.190801, 6.464793, -12.757653, -1.172261, 1.943714, -1.284076, -0.181917, -91.371613, -175.852493, -917.138062, 13.724815, 100.771886
1759224930.210865, 1.651999, -11.288810, 8.483854, 0.507371, 0.751276, -0.356999, -92.034393, -177.188904, -917.721680, 13.724815, 100.771886
1759224930.230728, 3.132065, 4.954501, 25.612571, -1.742197, 2.591053, 0.361292, -88.783447, -176.669937, -916.867615, 13.724815, 100.771886
1759224930.250858, 5.776460, 11.739968, 13.215694, -0.171130, 0.569772, 0.604788, -87.442566, -175.684097, -916.236328, 13.724815, 100.771886
1759224930.270898, 3.553893, 14.757709, -5.448006, 0.068662, 2.169158, 0.562726, -86.418930, -175.852005, -915.899597, 13.724815, 100.771886
1759224930.290763, -0.220416, 5.594950, -19.078794, -0.183297, 1.812651, -0.538874, -84.548477, -175.610626, -915.144897, 13.724815, 100.771886
1759224930.310498, 11.485734, 41.128793, 16.029928, 0.413923, 2.632149, -0.117743, -84.609604, -175.544922, -915.150635, 13.724815, 100.771886
1759224930.330855, 12.687024, 19.569606, -20.884172, -0.873586, 3.253993, 2.042852, -81.359589, -175.221664, -913.041870, 13.724815, 100.771886
1759224930.350858, 3.651158, 0.979528, -4.487632, -0.226041, 2.054318, 0.659431, -79.928146, -175.690948, -911.697632, 13.724815, 100.771886
1759224930.370894, 2.533365, -6.732495, -8.945486, 0.372912, 2.586467, 0.275509, -77.821854, -175.713974, -910.463867, 13.724815, 100.771886
1759224930.390787, 7.958925, 2.223016, -6.850110, 2.082483, -0.115528, 1.549033, -76.316635, -176.816437, -909.771301, 13.724815, 100.771886
1759224930.410860, 15.619323, 35.376873, -8.317606, 3.629318, -2.291797, 4.053425, -76.335175, -180.460129, -911.545044, 13.724815, 100.771886
1759224930.430829, 1.124227, 36.021063, -8.436418, 6.576891, -3.301546, 2.478162, -77.414017, -186.681564, -914.500549, 13.724815, 100.771886
1759224930.450875, -4.702511, 20.613777, -0.999430, 6.197715, 1.849634, 0.975411, -77.940720, -193.285187, -915.799683, 13.724815, 100.771886
1759224930.470858, -18.356643, 16.166248, 27.199777, 1.056735, 3.442182, 0.379586, -75.005661, -194.408447, -913.492065, 13.724815, 100.771886
1759224930.490803, -7.384466, 14.149582, 11.109994, 1.510723, -3.502202, 0.584996, -76.012238, -195.529633, -913.733948, 13.724815, 100.771886
1759224930.510849, -4.190152, 6.998551, 4.642357, 0.519180, -0.878000, 0.046106, -77.767120, -196.308258, -914.974365, 13.724815, 100.771886
1759224930.530864, -3.650559, 6.496666, 1.488745, 0.636241, 0.611558, -0.399130, -77.440842, -196.467346, -914.360901, 13.724815, 100.771886
1759224930.550870, -1.278055, 6.548291, 4.272902, 0.568938, 0.491569, -0.396138, -77.368942, -196.418274, -914.197876, 13.724815, 100.771886
1759224930.570881, -2.693178, 2.072780, 5.057152, 0.229854, 0.710615, 0.120705, -76.744537, -196.826279, -913.784912, 13.724815, 100.771886
1759224930.590834, -5.412841, 0.825401, 8.918401, -0.966662, -0.293614, 0.295131, -76.427963, -196.506927, -913.737610, 13.724815, 100.771886
1759224930.610506, -5.596446, -0.090830, 6.110601, -1.431053, -1.060915, -0.518010, -77.184799, -195.100067, -914.459045, 13.724815, 100.771886
1759224930.630568, -1.713201, 3.799448, 6.061969, -2.321938, -0.511104, -0.596937, -77.400345, -192.832855, -914.713867, 13.724815, 100.771886
1759224930.650702, 2.845808, 6.486940, 8.546252, -3.548009, -0.938974, -0.010507, -78.029297, -190.430313, -914.736694, 13.724815, 100.771886
1759224930.670877, 1.687314, 6.928670, 3.779098, -4.418841, -0.691725, -0.077016, -77.922928, -187.567551, -915.013672, 13.724815, 100.771886
1759224930.690832, -3.614646, 15.674090, -1.966986, -4.041575, -3.894523, -1.134733, -80.082718, -184.034927, -915.563110, 13.724815, 100.771886
1759224930.710858, -6.050297, 38.703467, -6.488137, -3.433083, -0.052267, -2.433987, -82.165710, -180.031601, -915.581360, 13.724815, 100.771886
1759224930.730854, 5.417330, 32.506525, -10.113856, -2.545536, 6.484955, -2.469688, -79.398926, -176.158035, -911.898376, 13.724815, 100.771886
1759224930.750816, 11.577012, 16.654965, 9.429414, -2.672438, 2.310123, -2.618202, -77.729965, -173.387299, -908.893433, 13.724815, 100.771886
1759224930.770894, 9.672126, 18.603545, 6.119879, -2.821901, -0.075922, -1.200134, -78.657394, -170.523209, -907.206604, 13.724815, 100.771886
1759224930.789845, 1.681178, 15.339650, -4.600309, -1.765760, -0.806767, -0.132327, -78.728348, -169.636536, -906.766602, 13.724815, 100.771886
1759224930.810854, -4.500650, 11.525687, -1.774702, -1.267492, -2.456045, -0.577664, -80.210037, -168.584366, -907.092224, 13.724815, 100.771886
1759224930.830431, -3.772813, 9.551967, -2.673575, -0.636045, -1.421579, -1.184024, -82.057404, -167.389404, -907.346069, 13.724815, 100.771886
1759224930.850860, 4.036624, 8.050204, -2.833987, 0.530124, -1.469377, -1.351944, -84.227036, -166.679810, -907.848145, 13.724815, 100.771886
1759224930.870948, 5.747131, 3.044227, -4.878784, 1.901785, -1.030505, -0.990488, -85.579895, -167.106903, -908.949036, 13.724815, 100.771886
1759224930.890853, 4.866514, -2.660706, -5.505616, 3.219146, -0.829998, -0.134660, -86.707260, -168.697067, -910.743286, 13.724815, 100.771886
1759224930.910857, 5.140950, -6.509385, -1.247828, 2.859246, -1.189950, 0.693431, -87.213669, -171.201599, -912.188293, 13.724815, 100.771886
1759224930.930832, 1.416619, -10.921151, 3.764732, 1.602764, -1.226366, 0.363465, -87.333405, -172.740723, -913.372437, 13.724815, 100.771886
1759224930.950864, -3.398719, -6.593781, 9.709535, 0.055027, 0.819553, -0.217426, -86.984970, -172.977020, -913.577698, 13.724815, 100.771886
1759224930.970941, 2.775029, 7.571064, 21.328745, -1.399937, 1.347728, 0.224254, -85.701569, -172.261475, -912.589722, 13.724815, 100.771886
1759224930.990838, 6.967725, 12.658294, 8.102427, -0.498262, 0.760277, 0.653181, -84.917786, -171.677933, -912.145386, 13.724815, 100.771886
1759224931.010859, 4.651635, 14.292037, -10.365098, -0.629548, 2.021329, 1.087815, -83.800369, -171.460861, -910.828552, 13.724815, 100.771886
1759224931.030864, 3.891625, 7.556400, -13.775039, 0.003151, -1.871657, -0.178103, -83.721481, -171.340958, -910.546875, 13.724815, 100.771886
1759224931.050859, 2.360234, 52.176687, 14.345607, -0.866505, 3.436010, 0.413787, -82.357437, -171.109573, -909.254822, 13.724815, 100.771886
1759224931.070862, 5.776460, 9.958981, -9.969905, -0.752845, 2.586336, 1.494095, -80.280838, -171.188644, -907.809326, 13.724815, 100.771886
1759224931.090837, 2.494908, -2.007688, -9.542839, -0.064283, 1.534348, 1.043856, -78.713440, -171.627838, -906.717407, 13.724835, 100.771886
1759224931.110859, 4.336049, 0.489315, -9.220819, 0.953890, 0.221207, 1.849820, -77.402786, -173.061539, -906.868896, 13.724835, 100.771886
1759224931.130863, 10.276213, 22.912510, -12.289437, 3.102235, -1.014071, 2.578931, -76.689453, -176.316589, -908.379883, 13.724835, 100.771886
1759224931.150892, 4.139874, 32.584336, -9.375245, 5.629848, -1.621197, 2.012801, -77.143967, -180.986389, -911.298645, 13.724835, 100.771886
1759224931.170862, -1.056292, 16.487370, -1.467346, 6.764220, -0.951839, 1.210042, -77.426910, -186.540298, -913.160461, 13.724835, 100.771886
1759224931.190830, -5.906645, 14.616152, 5.161450, 3.744924, 3.325219, 0.158079, -75.551636, -189.607086, -911.906433, 13.724835, 100.771886
1759224931.210855, -7.597251, 20.472669, 17.669956, 1.695378, 0.721971, 0.769608, -75.169556, -190.867661, -911.587280, 13.724835, 100.771886
1759224931.230856, -2.664597, 17.011252, 10.802937, 0.666631, -1.460276, 0.773450, -76.089432, -191.718033, -912.163269, 13.724835, 100.771886
1759224931.250765, -4.408623, 9.604939, 6.886472, 0.026123, -0.350014, 0.073827, -76.619385, -191.748856, -912.154114, 13.724835, 100.771886
1759224931.270864, -5.354183, 6.587796, 4.845116, -0.068695, 0.078639, -0.297503, -76.722122, -191.418930, -912.180420, 13.724835, 100.771886
1759224931.290830, -5.523124, 4.128053, 3.200748, 0.283382, -0.037713, -0.177427, -77.010757, -191.629410, -912.325928, 13.724835, 100.771886
1759224931.310843, -4.685004, 1.265186, 4.087501, 0.271427, -0.116819, 0.266775, -76.828354, -192.054672, -912.283325, 13.724835, 100.771886
1759224931.330673, -7.541286, 1.265186, 8.963292, -1.281662, -0.042852, -0.063802, -76.872787, -191.798645, -912.287537, 13.724835, 100.771886
1759224931.350829, -5.497386, 2.489222, 7.121702, -1.910981, -1.141060, -0.521046, -77.972610, -189.130325, -912.614502, 13.724835, 100.771886
1759224931.370895, 0.428113, 4.314950, 6.868516, -2.957550, -1.021372, -0.177647, -78.321243, -188.144989, -912.955383, 13.724835, 100.771886
1759224931.390830, 0.750732, 4.825065, 2.989909, -3.963882, -1.272475, -0.092080, -79.122452, -185.722687, -912.930969, 13.724835, 100.771886
1759224931.410855, -3.301754, 12.799252, -0.915782, -3.455528, -2.524318, -1.761534, -79.988144, -182.650879, -913.380493, 13.724835, 100.771886
1759224931.430860, -4.031237, 30.126838, -3.185934, -2.658095, -1.061920, -2.649830, -82.607773, -179.280914, -913.632935, 13.724835, 100.771886
1759224931.450847, 7.745991, 32.667535, -5.742642, -3.031449, 5.177556, -1.908091, -81.957550, -175.999222, -911.509033, 13.724835, 100.771886
1759224931.470861, 10.460566, 17.833061, 1.512387, -2.206794, 3.317955, -2.034530, -79.665909, -173.393814, -908.388672, 13.724835, 100.771886
1759224931.490837, 9.010877, 19.105131, 5.394735, -2.098181, 0.592175, -1.467854, -79.658844, -171.291992, -906.736511, 13.724835, 100.771886
1759224931.510846, 2.572121, 17.984046, -2.426673, -1.427424, 0.576465, -0.466120, -79.402405, -170.375549, -905.959534, 13.724835, 100.771886
1759224931.530862, -3.463362, 14.212280, 0.544232, -1.262079, -1.732315, -0.191807, -79.552383, -170.013870, -905.380371, 13.724835, 100.771886
1759224931.550733, -10.408941, 10.893468, -1.751957, -0.872401, -1.836141, -1.216046, -81.697876, -168.483047, -905.905518, 13.724835, 100.771886
1759224931.570852, 2.970306, 9.570671, -0.899172, -0.194930, -2.124578, -1.269234, -83.612213, -167.448334, -906.179932, 13.724835, 100.771886
1759224931.590830, 7.999626, 5.687725, -4.033482, 0.976344, -1.666666, -0.895340, -85.693665, -167.462173, -907.133423, 13.724835, 100.771886
1759224931.610854, 6.992715, -0.768389, -2.612373, 1.808601, -1.222820, -0.297541, -86.837646, -168.314484, -908.483826, 13.724835, 100.771886
1759224931.630829, 6.279841, -6.095937, -6.318298, 2.899219, -0.477367, 0.707217, -87.481720, -169.716248, -909.963135, 13.724835, 100.771886
1759224931.650046, 7.099107, -10.894515, -2.632125, 2.328066, -0.798744, 0.922138, -87.215973, -172.038605, -911.164307, 13.724835, 100.771886
1759224931.670858, 5.146037, -11.226412, 5.354333, 1.403241, -0.609837, 0.834402, -87.034271, -173.544449, -912.302856, 13.724835, 100.771886
1759224931.690531, 0.573262, 0.477045, 7.981520, 0.013851, 2.230267, 0.887513, -85.308487, -174.874405, -912.164368, 13.724835, 100.771886
1759224931.710853, -2.508824, 9.700707, 17.283891, -0.919494, 2.323610, 0.645434, -83.099319, -174.234833, -910.514099, 13.724835, 100.771886
1759224931.730854, -1.875109, 19.288736, 1.075146, 0.165081, 2.642526, -0.108695, -81.412018, -174.117615, -909.417664, 13.724835, 100.771886
1759224931.749916, 0.776320, 12.204742, -14.126837, -1.049898, 2.119709, -1.402929, -80.778091, -173.013901, -908.161255, 13.724835, 100.771886
1759224931.770860, 10.420763, 44.389846, -0.493056, 1.438269, 2.945811, -0.922677, -80.004410, -173.488434, -907.736816, 13.724835, 100.771886
1759224931.790828, 6.216994, 7.628974, 3.376124, -1.231348, 3.450615, 0.539420, -78.707504, -172.601562, -905.374756, 13.724835, 100.771886
1759224931.810861, 4.776133, -3.337068, -4.738724, -1.480692, 1.466007, 1.173713, -77.595840, -172.529099, -903.996826, 13.724835, 100.771886
1759224931.830338, 4.071490, -4.418948, -2.461090, -1.406633, -1.076599, 2.023977, -76.824097, -172.988007, -903.548462, 13.724835, 100.771886
1759224931.850834, 8.743176, 20.621259, -14.306552, 1.647993, -3.106582, 2.647542, -76.719193, -174.821838, -905.098206, 13.724835, 100.771886
1759224931.870835, 10.155755, 34.628685, -15.116840, 4.820618, -1.923805, 2.200811, -76.904465, -178.932755, -907.718933, 13.724835, 100.771886
1759224931.890827, -0.580295, 19.353978, -2.962974, 6.686632, -0.803986, 1.766084, -76.849930, -184.189774, -910.081299, 13.724835, 100.771886
1759224931.910841, -13.303830, 15.693693, 20.437654, 5.405550, 2.984598, 0.912702, -75.314285, -189.274521, -909.804626, 13.724835, 100.771886
1759224931.930838, -5.291934, 16.667534, 11.425430, 1.015877, 0.696588, 0.889203, -74.653961, -190.240387, -908.591797, 13.724835, 100.771886
1759224931.950841, -5.568913, 14.827590, 3.756502, 1.362835, -2.657492, 1.209805, -76.123444, -191.896103, -910.393921, 13.724835, 100.771886
1759224931.970838, -5.420473, 10.045172, 4.782268, 0.698961, -0.183641, 0.928685, -76.611404, -192.919891, -910.340088, 13.724835, 100.771886
1759224931.990187, -5.193472, 7.864504, 5.887940, 0.458258, -0.112180, 0.124101, -76.809006, -193.465164, -910.696716, 13.724835, 100.771886
1759224932.010838, -4.917840, 2.517503, 2.310704, 0.511585, 0.379653, -0.508548, -76.689987, -193.557388, -910.270264, 13.724835, 100.771886
1759224932.030859, -3.734955, 0.924162, 5.309591, 0.648551, 0.321422, 0.010761, -76.194778, -194.064865, -909.732300, 13.724835, 100.771886
1759224932.050854, -6.178088, -0.388459, 10.101137, -0.858592, 0.344116, 0.274118, -76.141235, -194.058365, -909.648254, 13.724835, 100.771886
1759224932.070916, -2.899677, 2.247407, 8.587104, -2.151226, -1.202657, -0.276387, -76.907486, -192.548569, -910.148682, 13.724835, 100.771886
1759224932.090826, 0.730082, 5.469105, 7.757812, -3.221876, -1.852237, 0.100439, -77.811111, -190.675644, -910.969727, 13.724835, 100.771886
1759224932.110853, -1.659780, 6.735937, -0.471807, -4.205908, -2.059938, 0.195619, -78.709595, -188.505630, -911.491943, 13.724858, 100.771885
1759224932.130859, -6.930017, 19.501521, -4.923825, -3.843520, -2.375632, -1.523887, -80.192108, -185.433411, -912.168030, 13.724858, 100.771885
1759224932.150840, -0.974590, 39.491159, -9.573215, -2.647232, -0.794371, -3.052335, -81.896500, -181.838470, -912.110840, 13.724858, 100.771885
1759224932.170839, 11.441740, 27.289410, -4.030788, -1.624475, 5.675707, -2.502848, -79.251312, -179.219986, -909.544067, 13.724858, 100.771885
1759224932.190532, 10.548104, 15.697434, 11.404331, -2.130583, 3.915322, -2.272099, -77.291580, -176.966919, -907.254761, 13.724858, 100.771885
1759224932.210854, 10.494534, 20.630387, 0.408810, -2.463908, 0.764390, -1.628038, -77.609100, -174.540131, -906.030396, 13.724858, 100.771885
1759224932.230873, 0.945710, 15.085116, -2.032079, -1.695494, 0.150690, -0.198783, -77.086655, -173.782608, -905.565002, 13.724858, 100.771885
1759224932.250264, -4.314202, 12.866140, -0.137068, -1.288814, -1.444829, -0.164597, -77.978516, -173.511230, -905.685669, 13.724858, 100.771885
1759224932.270217, -2.945317, 11.691934, -1.953519, -0.984308, -1.744439, -0.913033, -79.971069, -171.951233, -906.339172, 13.724858, 100.771885
1759224932.290826, 6.344934, 9.245958, -2.303372, -0.352624, -1.990790, -1.245105, -81.789520, -170.887390, -907.118408, 13.724858, 100.771885
1759224932.310874, 6.997803, 2.606238, -4.415057, 0.789303, -1.456595, -0.954307, -83.347748, -170.926361, -907.885620, 13.724858, 100.771885
1759224932.330857, 6.408081, -4.518008, -7.319972, 1.755566, -0.547800, -0.031585, -83.705750, -171.782120, -908.880432, 13.724858, 100.771885
1759224932.350838, 6.564901, -9.986514, -2.895787, 1.920841, -0.594791, 0.983710, -83.862076, -173.727325, -909.919189, 13.724858, 100.771885
1759224932.370858, 3.775057, -11.982830, 4.884920, 1.419779, -1.406353, 0.317530, -84.503983, -174.757858, -911.281982, 13.724858, 100.771885
1759224932.390825, 4.126107, -7.206098, 8.644864, 0.812470, 0.094679, 0.201716, -83.481491, -175.834579, -911.532043, 13.724858, 100.771885
1759224932.410857, -2.109292, 4.316446, 14.054862, -0.344999, 1.858092, 0.895823, -81.636017, -176.193161, -910.952576, 13.724858, 100.771885
1759224932.430826, -4.298041, 9.636063, 1.388338, -0.129102, 1.469822, 0.552773, -80.218781, -176.388031, -910.164490, 13.724858, 100.771885
1759224932.450869, -2.199374, 13.076082, -12.650662, -0.200808, 1.610676, 0.054043, -79.167038, -175.748322, -909.248169, 13.724858, 100.771885
1759224932.470852, 3.281702, 22.781876, -6.708553, 0.024574, 0.806401, -1.118775, -79.561523, -175.794250, -909.203796, 13.724858, 100.771885
1759224932.490829, 5.566818, 38.687905, 0.267103, 0.764547, 3.482083, -0.647409, -77.971207, -175.439789, -907.748291, 13.724858, 100.771885
1759224932.510912, 6.583905, 6.421997, 1.761833, -1.301744, 1.470598, 1.033118, -77.066315, -175.403900, -906.759277, 13.724858, 100.771885
1759224932.530822, 5.924302, -2.040458, -9.658509, -1.125913, 1.038357, 1.565989, -75.748825, -175.765793, -905.931274, 13.724858, 100.771885
1759224932.550835, 5.675754, 2.288707, -9.649531, 0.232673, -0.600235, 2.084102, -75.330811, -177.268814, -906.591309, 13.724858, 100.771885
1759224932.570855, 8.254160, 23.902662, -12.255170, 2.576381, -1.897967, 2.381858, -75.506012, -180.508972, -908.667236, 13.724858, 100.771885
1759224932.590827, 2.869750, 30.951341, -9.227253, 5.432374, -1.987587, 2.448530, -75.831528, -182.972458, -909.786316, 13.724858, 100.771885
1759224932.609856, -5.319018, 20.078823, -0.930147, 7.339701, -0.702671, 1.274556, -76.194397, -188.762939, -911.747009, 13.724858, 100.771885
1759224932.630849, -13.071743, 18.829049, 34.733132, 2.219717, 4.896773, 0.603670, -73.619904, -192.822632, -910.144409, 13.724858, 100.771885
1759224932.650854, -4.295347, 16.291495, 7.471406, 0.763018, -1.010363, 1.247703, -73.527832, -193.377228, -909.481689, 13.724858, 100.771885
1759224932.670847, -5.611560, 12.946645, 4.016872, 0.887919, -2.330136, 1.091568, -75.018097, -194.838455, -910.895935, 13.724858, 100.771885
1759224932.690846, -5.250185, 5.654506, 3.155259, 0.868743, -0.559808, 0.887847, -76.309265, -195.481049, -911.359009, 13.724858, 100.771885
1759224932.709971, -6.238691, 3.315221, 4.153641, 0.729814, 0.292858, 0.103502, -76.071930, -196.311096, -911.379700, 13.724858, 100.771885
1759224932.730861, -5.374833, 2.338536, 4.785411, 0.762255, -0.392770, -0.610169, -76.432373, -196.350464, -911.179443, 13.724858, 100.771885
1759224932.750824, -5.860706, 1.868974, 8.476372, -0.189842, -0.291575, -0.542009, -76.669327, -195.931625, -911.357727, 13.724858, 100.771885
1759224932.770878, -2.953697, 1.870171, 7.573309, -1.615887, -1.192010, -0.699119, -77.287125, -194.431412, -911.780212, 13.724858, 100.771885
1759224932.790834, 2.784307, 3.834015, 7.424569, -2.492443, -1.682813, -0.322630, -78.748413, -192.472748, -912.975769, 13.724858, 100.771885
1759224932.810846, 1.320402, 4.748450, 3.389441, -3.495405, -1.583738, 0.065246, -79.710770, -190.276703, -913.937134, 13.724858, 100.771885
1759224932.830855, -2.799420, 12.829030, -0.057162, -4.179695, -2.300984, -0.674565, -80.601517, -187.146042, -914.562378, 13.724858, 100.771885
1759224932.850878, -3.471293, 27.448325, -3.000833, -3.853115, -2.768823, -1.856087, -83.161102, -183.503708, -914.972290, 13.724858, 100.771885
1759224932.870887, 4.984578, 34.880974, -6.737732, -3.152573, 1.965448, -2.196421, -83.667191, -179.623077, -913.736450, 13.724858, 100.771885
1759224932.890829, 9.102156, 21.655554, -1.002722, -2.468320, 6.178731, -2.107282, -80.424332, -176.823669, -910.325073, 13.724858, 100.771885
1759224932.909940, 7.431303, 20.264672, 7.097012, -2.641859, 2.200038, -2.082107, -79.331757, -174.569565, -908.108643, 13.724858, 100.771885
1759224932.930853, 2.492514, 18.743457, -1.148618, -2.826257, -0.732262, -0.582457, -79.863571, -172.644547, -907.020508, 13.724858, 100.771885
1759224932.950857, -7.216573, 14.580090, -0.768988, -2.558599, -2.553967, -0.120907, -81.431427, -171.238937, -906.996399, 13.724858, 100.771885
1759224932.970870, -7.223755, 11.632079, -3.309834, -2.181632, -1.665655, -0.638830, -83.149414, -169.655090, -906.858276, 13.724858, 100.771885
1759224932.990823, 1.642422, 9.162310, -2.571373, -1.504447, -2.035569, -1.224231, -84.907013, -168.370163, -906.959351, 13.724858, 100.771885
1759224933.009961, 6.398953, 5.185691, -4.006098, -0.476528, -2.214205, -1.114171, -87.094528, -167.345352, -907.300232, 13.724858, 100.771885
1759224933.030505, 5.845593, -0.531363, -4.692186, 0.848234, -1.811915, -0.650521, -88.582108, -167.856354, -908.249390, 13.724858, 100.771885
1759224933.050253, 4.524143, -4.555418, -8.616432, 2.465185, -0.539163, -0.105326, -89.440277, -169.305634, -909.535889, 13.724858, 100.771885
1759224933.070830, 4.758625, -7.319673, -5.019593, 3.387208, 0.060861, 0.664841, -89.234726, -171.715775, -911.042053, 13.724858, 100.771885
1759224933.090844, 5.213374, -9.696517, 2.181866, 2.384896, 0.439527, 0.914091, -88.851898, -173.838577, -911.726440, 13.724876, 100.771885
1759224933.110848, 6.126912, -4.308815, 15.585056, 0.570355, 0.985734, 0.527574, -87.475922, -174.902084, -912.094604, 13.724876, 100.771885
1759224933.130818, 5.898265, 8.232762, 19.869031, -1.025180, 1.462084, 0.824172, -85.353455, -174.680252, -910.972839, 13.724876, 100.771885
1759224933.150846, -0.616357, 11.818976, -10.314071, 0.272118, 4.083323, 0.414112, -83.663589, -174.839035, -910.080322, 13.724876, 100.771885
1759224933.170856, 3.047220, 14.795119, -10.439467, 1.045764, 3.475360, -0.698672, -81.763214, -175.220322, -908.921448, 13.724876, 100.771885
1759224933.190823, 2.318934, 46.661494, 0.992097, 1.038601, 1.605909, -0.663178, -80.672134, -175.651123, -908.540039, 13.724876, 100.771885
1759224933.210849, 2.172888, 12.511649, -0.484078, -0.895978, 3.240245, 1.470688, -79.185547, -175.539780, -906.801331, 13.724876, 100.771885
1759224933.230817, 2.122160, 0.074370, -7.810484, -0.975413, 0.968693, 1.716929, -78.173706, -176.099884, -906.096741, 13.724876, 100.771885
1759224933.250847, -0.015562, -1.794005, -6.970120, -0.454349, -1.264688, 2.376586, -77.880798, -177.232117, -906.447205, 13.724876, 100.771885
1759224933.270852, 6.329371, 19.948638, -13.005902, 2.645650, -4.035702, 2.883305, -78.910568, -180.436737, -909.050537, 13.724876, 100.771885
1759224933.290449, 2.699462, 33.743729, -12.689418, 4.857654, -2.261759, 1.662089, -79.784576, -184.702850, -911.243164, 13.724876, 100.771885
1759224933.310846, -3.038242, 19.979164, -2.346467, 7.583305, -0.068450, 0.997190, -79.476852, -190.548767, -912.274536, 13.724876, 100.771885
1759224933.330849, -9.604639, 15.732449, 30.816817, 4.002830, 4.691804, 0.380968, -77.139160, -193.285995, -910.551697, 13.724876, 100.771885
1759224933.350854, -1.762731, 18.227805, 10.934169, 1.316314, -1.093016, 0.713006, -77.656708, -194.759415, -910.913330, 13.724876, 100.771885
1759224933.370931, -2.967164, 14.106337, 4.411317, 0.515392, -2.519103, 0.815122, -79.468979, -195.691757, -911.643494, 13.724876, 100.771885
1759224933.390822, -5.670816, 8.352921, 3.199102, 0.174887, -0.026203, 0.626689, -79.534119, -196.310318, -911.773743, 13.724876, 100.771885
1759224933.410846, -6.698228, 4.834192, 3.624223, 0.568197, -0.195891, -0.100422, -80.076843, -196.665405, -911.720886, 13.724876, 100.771885
1759224933.430849, -5.699996, 3.150919, 4.173393, 0.812978, -0.080834, -0.284993, -80.105972, -197.244568, -912.100220, 13.724876, 100.771885
1759224933.450863, -6.711247, 2.283470, 8.509142, 0.065547, -0.357153, 0.002287, -80.242966, -197.479111, -912.108093, 13.724876, 100.771885
1759224933.470848, -6.650045, 1.025766, 8.755595, -1.553166, -1.157130, -0.391334, -81.529541, -196.092148, -912.615845, 13.724876, 100.771885
1759224933.490553, 2.246809, 1.945588, 5.958869, -2.471112, -1.773289, -0.379788, -82.795151, -194.290588, -913.009399, 13.724876, 100.771885
1759224933.510836, 1.828871, 4.707898, 2.009483, -3.541212, -1.559561, 0.073820, -83.569641, -192.326736, -914.374512, 13.724876, 100.771885
1759224933.530846, -1.991976, 16.773478, -0.053720, -4.378652, -3.200879, -0.570731, -85.601837, -189.218536, -915.566406, 13.724876, 100.771885
1759224933.550854, 0.594660, 35.691262, -5.437831, -4.055724, -2.087118, -2.347332, -87.551727, -184.738113, -915.229980, 13.724876, 100.771885
1759224933.570854, 17.153108, 35.519179, -4.476708, -3.577095, 4.529413, -1.939714, -84.296555, -181.615631, -912.920410, 13.724876, 100.771885
1759224933.590821, 12.248736, 15.128362, 3.562273, -3.037388, 4.624731, -2.018051, -81.602951, -178.723785, -910.803406, 13.724876, 100.771885
1759224933.610846, 13.167211, 17.668460, -1.187973, -2.745935, 3.120212, -1.388397, -79.986969, -176.538574, -908.740356, 13.724876, 100.771885
1759224933.630852, 3.566014, 15.019725, -1.345092, -1.978870, 1.754732, 0.427074, -78.513062, -176.151917, -907.705688, 13.724876, 100.771885
1759224933.650862, -9.127295, 12.452841, -1.075745, -1.528256, -1.509619, 0.418783, -79.059799, -175.485596, -907.880798, 13.724876, 100.771885
1759224933.670457, -12.983606, 10.218153, -2.777723, -1.302390, -1.013879, -0.957336, -81.105347, -173.349670, -907.870544, 13.724876, 100.771885
1759224933.690821, 2.379537, 7.649325, -2.269853, -0.912528, -2.088103, -1.235732, -82.986633, -172.065262, -908.615295, 13.724876, 100.771885
1759224933.710187, 5.420622, 2.135927, -4.690989, 0.234121, -2.175370, -0.861963, -83.761368, -172.121201, -908.981812, 13.724876, 100.771885
1759224933.730820, 1.418714, -4.270807, -5.812972, 1.425244, -2.184330, -0.525591, -85.977081, -173.383347, -911.014160, 13.724876, 100.771885
1759224933.750422, 0.414347, -8.843582, -13.460052, 3.067958, -1.769852, -0.145889, -86.937286, -174.193008, -912.192383, 13.724876, 100.771885
1759224933.770840, 3.248932, -15.040524, -1.200692, 2.872753, 0.471475, -0.175442, -87.060104, -176.822067, -913.141602, 13.724876, 100.771885
1759224933.790823, 7.170035, -12.725481, 24.094048, 0.658145, -0.033110, -1.387214, -87.107590, -176.972366, -913.588257, 13.724876, 100.771885
1759224933.810849, 8.626159, 6.305429, 17.233464, -0.637173, 4.009285, -0.520556, -84.581772, -176.398376, -912.504517, 13.724876, 100.771885
1759224933.830843, 3.500921, 10.862194, -3.424905, 0.467929, 3.673247, -0.132424, -81.783493, -176.770935, -911.430786, 13.724876, 100.771885
1759224933.850843, 2.820070, 12.454936, -18.451963, 0.093027, 2.539443, 0.137298, -79.705231, -176.520844, -910.012451, 13.724876, 100.771885
1759224933.870841, 5.598541, 23.804799, -5.745635, 1.594483, -0.476858, -0.568066, -79.960129, -177.110504, -910.113403, 13.724876, 100.771885
1759224933.890452, 4.259584, 46.100203, 0.875081, 0.192350, 4.837663, 1.789750, -77.021317, -178.969711, -908.794067, 13.724876, 100.771885
1759224933.910841, 5.098752, 6.285378, 3.300856, -0.977610, -0.484844, 1.524315, -77.047150, -178.907089, -908.327393, 13.724876, 100.771885
1759224933.930846, 0.850391, -2.748095, -9.219472, -1.234671, -1.701895, 2.122671, -76.889236, -179.259216, -908.909607, 13.724876, 100.771885
1759224933.950845, -1.529745, 0.070928, -13.906870, 0.691825, -1.950071, 1.995993, -77.139984, -180.903717, -910.415283, 13.724876, 100.771885
1759224933.970924, 3.599084, 27.312903, -16.478841, 3.284890, -1.262308, 2.076936, -77.269745, -183.979218, -911.824707, 13.724876, 100.771885
1759224933.990432, -3.552846, 38.824524, -9.573365, 7.273069, -1.038164, 1.329680, -77.483948, -189.620789, -913.146301, 13.724876, 100.771885
1759224934.010846, -5.458331, 21.542877, 1.306336, 8.770067, 0.284064, 0.103525, -77.157257, -195.897324, -912.901245, 13.724876, 100.771885
1759224934.030866, -1.485303, 13.092991, 46.744842, 0.483094, 3.586026, 0.726931, -74.777023, -196.811829, -910.852112, 13.724876, 100.771885
1759224934.050852, -2.491017, 10.980407, 5.288193, 0.398649, -3.178163, 0.093398, -76.666016, -196.996811, -912.029358, 13.724876, 100.771885
1759224934.070845, -1.818546, 7.339276, -0.977582, 0.204509, 0.357597, 0.355391, -76.715164, -197.007339, -912.534302, 13.724876, 100.771885
1759224934.090828, -3.235464, 2.971354, 2.065597, 0.544579, 1.921249, 0.637647, -75.492126, -197.933319, -911.132812, 13.724876, 100.771885
1759224934.110850, -6.149208, 1.829020, 7.484574, 0.562175, 1.604371, 0.502512, -74.608795, -198.693924, -910.137207, 13.724894, 100.771884
1759224934.130855, -7.208043, 1.656937, 9.091532, -0.777731, 0.269733, 0.300134, -74.027130, -198.251709, -910.012573, 13.724894, 100.771884
1759224934.150857, -6.363040, 0.952892, 5.827188, -1.533257, -0.599588, -0.230559, -74.391464, -197.033524, -910.449280, 13.724894, 100.771884
1759224934.170851, -0.052972, 4.096629, 6.913108, -2.231589, -0.872042, -0.317996, -75.164154, -195.056992, -911.353638, 13.724894, 100.771884
1759224934.190828, -0.056413, 5.957971, 3.876961, -3.874149, -1.640236, 0.152088, -75.693451, -192.861832, -912.376526, 13.724894, 100.771884
1759224934.210852, -5.172224, 17.221941, -3.347692, -4.215429, -2.153967, -0.596137, -77.041504, -189.360855, -913.114563, 13.724894, 100.771884
1759224934.230855, -4.296096, 31.663916, -3.934122, -3.493316, -1.892477, -2.301863, -78.666168, -185.572617, -913.642700, 13.724894, 100.771884
1759224934.250860, 8.487595, 29.517813, -4.457555, -2.948106, 3.409872, -2.770042, -77.434692, -181.566559, -910.788086, 13.724894, 100.771884
1759224934.270863, 11.699117, 20.858883, 3.806481, -2.231786, 4.945926, -2.146437, -74.953186, -178.746674, -907.757202, 13.724894, 100.771884
1759224934.290827, 9.497499, 20.828956, 3.195062, -2.338779, 2.082422, -1.865728, -74.424500, -176.163712, -905.651245, 13.724894, 100.771884
1759224934.310073, 0.124648, 14.587571, -0.085293, -2.003657, -0.917633, -0.588978, -75.045868, -174.984726, -905.554688, 13.724894, 100.771884
1759224934.330891, -8.277653, 12.234370, -0.046238, -1.715960, -2.706818, -0.139750, -76.078323, -174.160721, -906.198425, 13.724894, 100.771884
1759224934.350895, -5.151574, 11.741315, 0.279373, -2.057091, -3.184599, -0.493970, -78.973312, -172.293045, -906.893250, 13.724894, 100.771884
1759224934.370848, 3.343054, 7.104494, -6.191705, -1.318202, -3.662842, -0.465516, -81.789246, -171.062149, -907.839539, 13.724894, 100.771884
1759224934.390368, 6.435165, 1.040430, -7.587075, -0.092505, -3.406801, 0.373934, -83.691315, -171.220749, -908.909729, 13.724894, 100.771884
1759224934.410837, 3.415329, -5.748029, -11.941979, 1.300238, -2.102509, 0.552054, -85.000351, -172.572266, -910.446350, 13.724894, 100.771884
1759224934.430815, 3.081936, -13.023260, -9.686790, 1.886346, -0.985930, 0.241874, -85.336517, -174.023605, -911.070740, 13.724894, 100.771884
1759224934.450817, 3.849727, -14.709376, 3.387047, 1.031937, -1.577147, 0.393974, -86.519592, -175.314209, -912.187073, 13.724894, 100.771884
1759224934.470467, 0.822558, -1.231817, 13.650990, 0.608979, -0.864565, 0.403198, -85.792938, -176.430267, -912.612305, 13.724894, 100.771884
1759224934.490813, 2.853290, 12.458228, 16.880468, 0.951742, -0.544913, -0.196057, -85.510315, -176.904602, -912.811646, 13.724894, 100.771884
1759224934.510809, 8.173356, 24.882639, -8.560019, -0.959193, 1.656200, -1.106676, -85.748123, -176.499298, -912.073242, 13.724894, 100.771884
1759224934.530806, 18.636316, 34.454806, 0.215029, -0.117057, -0.325133, 0.571858, -86.054947, -175.851410, -911.893921, 13.724894, 100.771884
1759224934.550814, 3.016844, 11.269806, -8.778191, -0.010863, 1.839937, 2.029012, -84.315491, -176.692352, -911.656250, 13.724894, 100.771884
1759224934.570824, -1.583166, 4.947019, -10.415076, -0.100648, 0.616425, 1.694035, -83.363800, -177.660461, -911.101562, 13.724894, 100.771884
1759224934.590817, -4.059818, 0.526874, -11.922675, 1.191098, 0.568966, 0.900059, -82.415756, -178.572357, -911.403870, 13.724894, 100.771884
1759224934.610831, -2.256086, 9.630377, -13.540407, 3.725577, -1.043141, 0.753242, -82.415848, -180.848160, -912.249939, 13.724894, 100.771884
1759224934.630828, 4.290858, 28.097902, -10.726173, 6.835112, -1.097732, 0.803206, -83.062546, -185.636475, -914.012207, 13.724894, 100.771884
1759224934.650825, 1.567454, 30.440030, -5.409250, 8.902937, -0.047109, -0.213870, -83.336456, -192.026184, -914.858582, 13.724894, 100.771884
1759224934.670829, -2.180370, 17.625963, 39.434447, 1.161383, 2.699561, 0.367164, -81.828812, -194.750870, -913.235779, 13.724894, 100.771884
1759224934.690816, 0.632219, 13.098977, 10.737097, 0.418917, -0.772884, 0.788781, -81.386032, -195.618515, -913.461609, 13.724894, 100.771884
1759224934.710903, -3.300257, 10.803985, 1.506402, 0.895493, -0.389489, 0.752929, -82.360138, -196.465302, -914.000305, 13.724894, 100.771884
1759224934.730715, -3.483863, 5.372289, 2.084601, 1.047186, 1.775122, 0.589289, -80.871262, -197.816895, -913.179443, 13.724894, 100.771884
1759224934.750176, -5.008221, 5.436484, 9.557952, 0.770321, 1.686253, 0.161053, -80.301117, -198.518173, -912.366821, 13.724894, 100.771884
1759224934.770860, -6.810307, 5.905149, 7.384167, -0.732557, 0.329996, -0.433612, -79.830307, -197.936584, -912.457520, 13.724894, 100.771884
1759224934.790437, -6.777686, 2.332701, 6.766014, -1.568269, -0.322099, -0.358391, -80.240646, -196.943008, -912.881348, 13.724894, 100.771884
1759224934.810301, -3.431340, 0.202011, 8.403349, -2.622675, -2.015939, -0.236690, -81.283234, -195.332840, -913.524170, 13.724894, 100.771884
1759224934.830842, -1.517475, 5.962610, 3.009661, -3.723296, -3.902489, -0.080362, -83.134628, -192.857117, -915.479614, 13.724894, 100.771884
1759224934.850862, -3.993977, 18.599655, 0.891840, -4.221691, -5.000378, -0.610479, -87.081314, -189.465057, -917.286011, 13.724894, 100.771884
1759224934.870815, -1.424400, 30.595353, -3.051859, -3.896365, -0.967266, -1.704862, -88.942078, -185.755524, -917.768616, 13.724894, 100.771884
1759224934.890449, 9.932794, 24.719983, -5.809231, -3.765085, 3.932621, -1.565513, -86.894196, -181.794250, -916.151489, 13.724894, 100.771884
1759224934.910325, 12.877214, 20.912005, 2.371906, -3.557064, 3.462901, -1.443324, -85.831482, -180.164703, -915.349548, 13.724894, 100.771884
1759224934.930837, 8.695292, 23.708881, 1.325789, -3.509499, -2.731943, 0.758857, -86.169296, -176.606201, -914.521362, 13.724894, 100.771884
1759224934.950824, -4.417302, 18.954146, -1.298256, -3.224883, -2.568048, 0.603839, -87.941696, -174.360718, -914.470520, 13.724894, 100.771884
1759224934.970816, -6.439505, 13.432220, -4.215740, -2.507809, -1.092511, -0.046665, -88.898697, -172.051071, -913.552795, 13.724894, 100.771884
1759224934.990823, 1.438167, 10.767922, -3.039738, -1.728608, -1.484676, -0.653379, -89.815750, -170.822968, -913.256226, 13.724894, 100.771884
