SamplingTime,AccelerationX,AccelerationY,AccelerationZ,GyroX,GyroY,GyroZ,Durations,Subject,Activity
1759224931.45974,0.754473,8.248923,-3.245041,0.498887,-1.785625,0.805371,4.00,2,RUN
1759224931.47970,0.451756,7.684041,-3.936516,0.382162,-1.329682,0.729703,4.02,2,RUN
1759224931.49979,0.343718,7.460632,-4.584597,0.248444,-0.679416,0.556601,4.04,2,RUN
1759224931.51912,0.596156,7.569269,-5.048324,0.148637,-0.220829,0.396509,4.06,2,RUN
1759224931.53972,1.259799,7.484424,-5.31408,0.116457,-0.146775,0.263701,4.08,2,RUN
1759224931.55978,2.125453,7.400926,-5.560982,0.147455,-0.202528,0.171028,4.10,2,RUN
1759224931.57970,2.716371,7.542334,-5.525219,0.147139,-0.31776,0.069342,4.12,2,RUN
1759224931.59971,2.585439,7.190236,-5.182249,0.069399,-0.449689,-0.108283,4.14,2,RUN
1759224931.61972,1.521216,6.531382,-4.916044,-0.137079,-0.406024,-0.449199,4.16,2,RUN
1759224931.63973,0.029928,6.298396,-3.841945,-0.395042,0.079906,-0.848117,4.18,2,RUN
1759224931.65971,-1.408688,4.840926,-1.852663,-0.593135,1.40036,-1.109863,4.20,2,RUN
1759224931.67970,-4.555717,1.455525,-0.685041,-1.03652,2.416413,-1.442057,4.22,2,RUN
1759224931.69944,-10.172364,3.67884,-7.329998,-1.315641,1.562785,-1.580182,4.24,2,RUN
1759224931.71978,-3.613449,15.453524,-4.631134,-1.784165,2.348145,-0.897858,4.26,2,RUN
1759224931.73971,1.181987,22.69763,3.47668,-0.921249,6.281908,-0.730167,4.28,2,RUN
1759224931.75902,-1.816152,11.576713,2.902221,-0.938914,4.753778,-0.732031,4.30,2,RUN
1759224931.77989,-0.688632,8.882488,1.922843,-1.434979,4.1581,-0.658704,4.32,2,RUN
1759224931.79978,-0.486771,6.882282,6.582409,-1.731082,3.043911,-0.703946,4.34,2,RUN
1759224931.81984,2.943072,7.286603,1.740435,-1.429321,2.715199,-0.430866,4.36,2,RUN
1759224931.83974,5.494842,8.447941,0.516848,-1.096917,3.088774,-0.81062,4.38,2,RUN
1759224931.85975,1.782483,9.776722,2.091634,-0.508478,2.822032,-1.782771,4.40,2,RUN
1759224931.87974,3.763984,11.414356,1.04866,0.267505,1.802352,-2.135969,4.42,2,RUN
1759224931.89972,3.797353,15.717335,-1.022623,1.075755,-0.24915,-2.675515,4.44,2,RUN
1759224931.91979,5.061043,21.200207,0.091877,0.434843,-3.75986,-2.907781,4.46,2,RUN
1759224931.93985,6.677279,21.331589,3.545214,-0.885218,-6.209476,-2.188406,4.48,2,RUN
1759224931.95974,8.592341,21.796064,3.11336,-1.921279,-5.887327,-1.442527,4.50,2,RUN
1759224931.97991,7.660996,19.275418,1.646163,-2.267602,-3.480697,-1.371392,4.52,2,RUN
1759224931.99977,9.317485,15.246725,1.802086,-2.984701,-0.040358,-0.919182,4.54,2,RUN
1759224932.01980,10.323349,12.335675,0.977134,-2.703135,3.16434,-0.084173,4.56,2,RUN
1759224932.03978,8.034941,13.417854,-9.551069,-1.415525,7.989404,0.527418,4.58,2,RUN
1759224932.05986,4.528632,10.152463,-25.110836,0.341876,8.028753,0.383277,4.60,2,RUN
1759224932.07979,7.553407,3.73286,-13.338696,1.230795,-0.112615,0.963438,4.62,2,RUN
1759224932.09976,0.68938,3.053655,-3.036147,1.622089,-1.634266,1.11226,4.64,2,RUN
1759224932.11975,-2.202666,0.993145,-0.199018,2.164976,-2.003307,0.866016,4.66,2,RUN
1759224932.13977,-2.370709,-1.567454,1.334767,2.793175,-4.337715,0.535808,4.68,2,RUN
1759224932.15972,-0.868646,-3.591452,1.108815,2.38334,-4.817325,0.25204,4.70,2,RUN
1759224932.17975,1.77141,-3.365649,-1.470938,2.257332,-1.289561,1.098044,4.72,2,RUN
1759224932.19971,4.184466,2.044798,-0.812981,2.362512,-0.536181,2.404218,4.74,2,RUN
1759224932.21973,5.104737,10.897508,2.425925,1.694193,-0.403181,3.376663,4.76,2,RUN
1759224932.23974,5.329493,30.87742,5.023783,1.383505,0.688074,3.511935,4.78,2,RUN
1759224932.27974,14.238168,24.024317,-5.27278,-0.469041,1.848989,2.97459,4.82,2,RUN
1759224932.29979,-0.125696,23.155821,-6.155941,0.511933,0.254663,3.378186,4.84,2,RUN
1759224932.31974,-7.031471,22.175096,-2.307861,0.565197,-2.324966,2.041575,4.86,2,RUN
1759224932.33972,-1.839345,14.411598,0.927604,0.706063,-2.940098,0.98987,4.88,2,RUN
1759224932.35978,-2.965069,7.191134,1.460313,0.756998,-3.262639,0.307161,4.90,2,RUN
1759224932.37972,-5.812373,2.346767,3.468899,0.160957,-2.819535,-0.192235,4.92,2,RUN
1759224932.39975,-7.685088,-1.01978,3.299958,-0.578646,-1.625736,-0.652728,4.94,2,RUN
1759224932.41973,-8.207323,-2.913444,1.480814,-0.763584,0.18333,-1.27825,4.96,2,RUN
1759224932.43974,-6.265476,-3.156755,0.71018,-0.579968,0.886742,-1.546392,4.98,2,RUN
1759224932.45972,-4.222474,-3.420566,0.473902,-0.870623,1.436323,-0.93115,5.00,2,RUN
1759224932.47971,-4.776732,-4.102016,-1.950676,-1.575896,2.379657,-0.521797,5.02,2,RUN
1759224932.49880,-2.536657,-0.209642,-5.432593,-1.316202,3.986241,-0.344232,5.04,2,RUN
1759224932.51937,2.292598,1.898752,-2.958485,-0.730241,4.111836,0.252008,5.06,2,RUN
1759224932.53974,1.031901,5.158607,5.404312,-0.864751,2.359094,0.694792,5.08,2,RUN
1759224932.55979,-0.632817,5.46297,-0.028132,-0.696132,3.788353,0.674373,5.10,2,RUN
1759224932.57972,2.025046,11.735179,5.751471,-0.251799,2.265873,0.978229,5.12,2,RUN
1759224932.59900,-5.904999,34.093581,6.510283,-1.684604,3.078519,-1.687393,5.14,2,RUN
1759224932.61973,3.65819,23.474698,-9.219921,-0.849067,5.810874,-1.15846,5.16,2,RUN
1759224932.63979,-3.012953,4.632481,-2.644545,0.879017,0.189182,-0.793676,5.18,2,RUN
1759224932.65974,-5.779902,4.865018,0.676212,2.099103,-2.388762,-2.237924,5.20,2,RUN
1759224932.67976,-5.72723,11.722909,1.787571,3.072422,-3.669519,-4.24943,5.22,2,RUN
1759224932.69920,-1.357063,27.749695,5.70628,1.893177,-5.729893,-4.542267,5.24,2,RUN
1759224932.71975,12.504017,36.198085,12.53185,-1.763619,-7.02422,-1.518274,5.26,2,RUN
1759224932.73994,13.516017,22.503999,4.891204,-3.869556,-4.56936,-0.174985,5.28,2,RUN
1759224932.75979,10.441263,13.77893,1.521964,-4.022915,1.568509,-1.71892,5.30,2,RUN
1759224932.77979,12.745832,13.90283,-2.174534,-2.903181,4.35675,-1.639611,5.32,2,RUN
1759224932.79945,8.286182,8.566154,-4.948366,-2.698786,7.359091,-0.869316,5.34,2,RUN
1759224932.81974,0.628628,9.421782,-17.784429,-2.173173,3.871876,-0.352565,5.36,2,RUN
1759224932.83974,3.86888,4.168455,-12.038495,0.755633,-2.282898,-0.330147,5.38,2,RUN
1759224932.85974,4.851401,1.770811,-2.435651,1.462355,-2.912671,0.001334,5.40,2,RUN
1759224932.87972,3.444658,1.299154,-1.697938,1.635026,-2.123274,0.240512,5.42,2,RUN
1759224932.89955,4.018069,-0.447267,-1.166425,1.289844,-0.944757,0.510522,5.44,2,RUN
1759224932.91975,5.722142,-1.889923,-2.363376,0.74911,-0.062068,1.086942,5.46,2,RUN
1759224932.93984,9.084649,-1.752107,-6.096086,1.840985,0.704393,2.425262,5.48,2,RUN
1759224932.95980,6.416909,4.72795,-3.448997,3.572363,-0.077295,4.226802,5.50,2,RUN
1759224932.97975,3.097349,10.035147,0.484377,3.594231,-2.603273,4.854658,5.52,2,RUN
1759224932.99981,8.371176,26.842742,1.098041,3.941033,-3.076816,6.012786,5.54,2,RUN
1759224933.03973,-5.875371,32.488419,16.635362,-0.678888,7.795921,0.730098,5.58,2,RUN
1759224933.05977,-0.819266,17.47872,15.24867,-4.228702,1.796185,2.415815,5.60,2,RUN
1759224933.07972,-6.072294,15.892711,-3.041235,-4.112616,1.193219,1.781756,5.62,2,RUN
1759224933.09989,2.543839,10.845883,-11.496507,-1.231369,-0.3162,0.52493,5.64,2,RUN
1759224933.11980,-2.540398,5.444564,-7.942315,0.445313,-3.348107,-0.586634,5.66,2,RUN
1759224933.13991,-6.191405,2.957138,-1.069909,0.681001,-3.723053,-1.286027,5.68,2,RUN
1759224933.15980,-4.520103,-0.217573,1.72607,0.177018,-3.207663,-1.157194,5.70,2,RUN
1759224933.17978,-4.407576,-3.118298,0.806996,-0.394376,-2.746997,-0.775344,5.72,2,RUN
1759224933.19981,-8.542512,-6.579865,-13.640216,1.662625,-3.19441,-1.085495,5.74,2,RUN
1759224933.21876,-8.211214,-6.580763,-9.722254,2.236782,-1.214011,-1.451917,5.76,2,RUN
1759224933.23974,1.342848,-0.013018,-0.829441,0.119537,2.362598,-0.564612,5.78,2,RUN
1759224933.25979,5.851728,7.016807,10.245238,-2.396483,4.041936,1.037008,5.80,2,RUN
1759224933.27973,3.948487,9.971551,7.719205,-1.025355,3.641078,1.495863,5.82,2,RUN
1759224933.29996,-0.159214,5.308244,1.392079,0.701,3.303013,1.156858,5.84,2,RUN
1759224933.31982,-4.339341,12.059743,-13.801375,-0.681752,7.849001,1.519092,5.86,2,RUN
1759224933.33980,-3.220949,20.856489,1.913266,-0.143735,3.236794,0.560241,5.88,2,RUN
1759224933.35980,-7.122002,22.867768,-0.959776,0.398525,0.791016,-1.020242,5.90,2,RUN
1759224933.37984,-4.741267,9.204059,1.08188,1.179667,0.611184,-1.547601,5.92,2,RUN
1759224933.39978,-5.333982,16.61127,2.359635,2.492805,-1.400246,-3.374532,5.94,2,RUN
1759224933.41912,-1.171214,21.560385,7.347655,2.107356,-6.586209,-4.294993,5.96,2,RUN
1759224933.43981,7.966107,21.360169,7.605182,0.262027,-8.732939,-3.124332,5.98,2,RUN
1759224933.45986,11.306318,24.099136,11.543494,-2.692817,-8.046968,-2.201365,6.00,2,RUN
1759224933.47980,11.710489,18.906562,6.638074,-5.425988,-2.599085,-2.576511,6.02,2,RUN
1759224933.49980,15.47163,15.983092,1.837849,-4.647581,3.766167,-1.874502,6.04,2,RUN
1759224933.51982,11.00809,11.448474,-1.51942,-4.255539,6.577158,-0.951886,6.06,2,RUN
1759224933.53977,-2.127099,11.413159,-29.048849,-2.230532,5.879548,-0.740437,6.08,2,RUN
1759224933.55978,4.077176,8.962993,-15.2159,1.150625,-2.383942,-0.487325,6.10,2,RUN
1759224933.57975,6.231808,3.437026,0.869993,0.751531,-2.018198,-0.467061,6.12,2,RUN
1759224933.59980,6.393267,2.624045,-0.037709,0.736845,-0.684836,0.221463,6.14,2,RUN
1759224933.61946,4.346673,0.124798,-0.267103,0.113283,0.425323,0.552159,6.16,2,RUN
1759224933.63983,4.703559,-2.611326,-3.864391,-0.789077,1.992064,0.54871,6.18,2,RUN
1759224933.65976,15.068207,-4.768502,-16.112828,1.461922,1.468132,2.48655,6.20,2,RUN
1759224933.67975,6.369774,0.693121,-1.882291,3.143224,-2.497535,3.796569,6.22,2,RUN
1759224933.69981,2.575413,3.706224,-0.249147,4.147899,-3.706603,4.38324,6.24,2,RUN
1759224933.71958,4.708646,10.548404,1.388038,4.608595,-3.917114,4.537217,6.26,2,RUN
1759224933.73976,16.775722,45.074438,3.629909,3.345307,-1.426987,5.426205,6.28,2,RUN
1759224933.77974,-6.12766,26.982353,15.809063,-0.8695,9.354781,1.636519,6.32,2,RUN
1759224933.79984,-6.651541,20.245369,14.527866,-5.30977,2.742264,2.652368,6.34,2,RUN
1759224933.81977,-2.120066,13.032388,-7.295581,-3.100507,1.750695,1.756915,6.36,2,RUN
1759224933.83977,3.372383,8.22094,-10.435726,-0.183513,-0.791379,0.385903,6.38,2,RUN
1759224933.85978,-2.701408,3.996072,-5.013608,0.415502,-3.370116,-0.434622,6.40,2,RUN
1759224933.87976,-6.609643,1.271471,-0.325312,0.197212,-3.638641,-0.771094,6.42,2,RUN
1759224933.89963,-6.278794,-1.620126,1.836951,-0.336527,-1.812132,-0.463064,6.44,2,RUN
1759224933.91983,-7.517644,-3.994875,-2.355296,-0.131118,-1.256253,-0.318415,6.46,2,RUN
1759224933.93978,-10.220697,-4.82297,-7.387608,0.799628,-1.604309,-1.270657,6.48,2,RUN
1759224933.95977,-4.519056,-2.682104,-6.817639,0.611795,-1.073657,-1.954544,6.50,2,RUN
1759224933.97976,8.780136,1.107618,3.025223,-1.681845,3.980138,-0.65987,6.52,2,RUN
1759224933.99977,7.232285,5.149479,9.192687,-1.948853,3.731103,0.371212,6.54,2,RUN
1759224934.01976,3.703381,5.443666,2.706346,0.121814,3.324056,1.193945,6.56,2,RUN
1759224934.03902,2.43221,6.89964,-14.041843,0.722941,6.726905,1.840565,6.58,2,RUN
1759224934.05976,-3.024775,25.015666,1.5691,0.861647,0.651528,0.162397,6.60,2,RUN
1759224934.07976,-8.893112,47.438861,1.950975,0.273952,-3.055931,-2.690092,6.62,2,RUN
1759224934.09975,-5.202002,10.038139,0.414496,0.966629,-2.12448,-3.27489,6.64,2,RUN
1759224934.11974,-4.189254,8.128315,1.42859,1.270772,-2.010656,-3.302487,6.66,2,RUN
1759224934.13987,-4.622904,12.210279,3.774908,1.487965,-3.645781,-3.389078,6.68,2,RUN
1759224934.15983,-1.01574,21.377078,4.881777,1.552161,-4.972156,-3.602873,6.70,2,RUN
1759224934.17975,5.378125,26.544963,14.231434,-0.313183,-6.943352,-3.006258,6.72,2,RUN
1759224934.19958,15.466543,25.761909,16.151584,-4.818989,-5.348825,-1.499887,6.74,2,RUN
1759224934.21986,15.392173,18.905364,0.032771,-7.216158,6.225214,-2.587668,6.76,2,RUN
1759224934.23982,16.745645,15.582213,-3.724779,-4.782172,8.361691,-2.47566,6.78,2,RUN
1759224934.25982,8.363395,6.125415,-32.836476,-1.071808,3.872074,-1.035273,6.80,2,RUN
1759224934.27976,6.320543,4.128501,-12.976573,-0.016682,-2.7848,-0.624416,6.82,2,RUN
1759224934.29980,7.41589,1.435623,-1.956362,-0.132995,-0.648632,-0.602473,6.84,2,RUN
1759224934.31982,9.634866,1.056591,1.042824,0.234083,-0.691947,0.2454,6.86,2,RUN
1759224934.33987,5.965752,-1.861193,-2.532766,0.286642,0.149445,0.666065,6.88,2,RUN
1759224934.35978,5.742493,-4.362535,-8.561067,0.761098,1.099221,1.015443,6.90,2,RUN
1759224934.37943,8.666262,-2.51451,-8.985888,1.66577,-1.130973,2.339725,6.92,2,RUN
1759224934.39976,1.207276,5.948095,-5.102493,3.061135,-1.958343,2.648123,6.94,2,RUN
1759224934.41896,0.112677,5.839607,-0.542885,4.026472,-3.031621,2.36323,6.96,2,RUN
1759224934.43982,4.187159,13.299641,1.548151,4.834668,-4.698705,2.949937,6.98,2,RUN
1759224934.45988,14.143597,33.886932,6.420201,4.723152,-6.49134,5.432816,7.00,2,RUN
1759224934.49984,-9.234137,29.400796,5.08708,1.659873,7.452399,-0.194315,7.04,2,RUN
1759224934.51908,-4.673631,20.41042,7.511209,-1.360116,6.802483,1.247238,7.06,2,RUN
1759224934.53978,-0.862661,18.30457,1.174206,-1.858653,1.770974,2.293478,7.08,2,RUN
1759224934.55976,5.028721,16.52897,0.190189,-1.198751,-0.46536,1.976904,7.10,2,RUN
1759224934.57975,4.499902,8.223783,-3.345747,0.382969,-1.996206,0.986242,7.12,2,RUN
1759224934.59887,0.339378,4.976498,-0.83408,0.918313,-3.201089,0.42144,7.14,2,RUN
1759224934.61927,-4.762067,2.134431,3.147328,0.161881,-2.511808,0.146523,7.16,2,RUN
1759224934.63976,-7.435792,-1.119439,4.012682,-0.791717,-1.833537,0.338069,7.18,2,RUN
1759224934.65980,-8.101081,-2.782062,3.091064,-0.849598,0.019287,0.774195,7.20,2,RUN
1759224934.67976,-9.076718,-3.454983,0.62773,-0.838079,1.300947,0.477679,7.22,2,RUN
1759224934.69976,-11.866711,-6.604555,-7.131579,-0.193588,-0.274243,-0.135387,7.24,2,RUN
1759224934.71944,-8.28708,-9.049484,-14.193276,1.112199,-1.77439,-1.600084,7.26,2,RUN
1759224934.73978,3.602974,-2.129343,-4.915146,0.731249,0.773023,-2.250505,7.28,2,RUN
1759224934.75983,6.696133,6.274754,9.94716,-0.114123,2.373387,-1.138379,7.30,2,RUN
1759224934.77979,8.363096,6.605602,0.853383,-0.204728,7.438003,0.520634,7.32,2,RUN
1759224934.79983,4.337096,16.385617,9.908553,-0.539495,6.263306,2.199731,7.34,2,RUN
1759224934.83986,-5.501726,5.35134,0.352097,-2.35112,2.604369,-1.729367,7.38,2,RUN
1759224934.85979,-2.905813,5.11192,-2.278233,-1.247026,1.882519,-1.365985,7.40,2,RUN
1759224934.87977,-3.881749,12.757504,-1.013645,0.560452,0.810928,-2.606643,7.42,2,RUN
1759224934.89977,-1.996166,19.977368,0.531213,2.892035,-1.884452,-4.085945,7.44,2,RUN
1759224934.91969,3.705775,26.469845,5.113566,3.012123,-5.461917,-4.132023,7.46,2,RUN
1759224934.93976,11.259631,29.159281,11.886014,-0.748594,-9.701186,-2.562,7.48,2,RUN
1759224934.95977,12.10673,18.747946,10.024971,-6.223711,-8.016593,-1.871,7.50,2,RUN
1759224934.97979,14.514698,15.865177,-0.760159,-6.950827,0.142798,-1.905756,7.52,2,RUN
1759224934.99978,14.197167,12.054955,-4.705055,-4.849801,6.01986,-1.832226,7.54,2,RUN
1759224935.01978,1.41647,4.936545,-27.906515,0.260752,11.794394,-1.398167,7.56,2,RUN
1759224935.03981,6.73055,3.766378,-13.210157,1.077873,0.116738,0.594605,7.58,2,RUN
1759224935.05997,6.470929,-0.425719,-0.129736,0.120103,-1.773479,0.74485,7.60,2,RUN
1759224935.07985,5.03336,-1.511639,-4.451868,1.30576,0.537973,0.893924,7.62,2,RUN
1759224935.09984,3.532046,-0.723049,-1.303493,1.658056,0.947615,1.158108,7.64,2,RUN
1759224935.11979,3.080889,-2.570475,-1.231667,0.348678,-0.441216,1.212712,7.66,2,RUN
1759224935.13984,7.770232,-1.133056,-9.151686,1.070504,-0.540235,1.88245,7.68,2,RUN
1759224935.15983,8.245481,4.526986,-5.14484,2.610901,-0.889315,2.967176,7.70,2,RUN
1759224935.17990,4.324527,4.999093,-0.203358,4.051429,-2.256726,3.546669,7.72,2,RUN
1759224935.19984,6.355408,9.585186,2.048838,5.294829,-4.452951,4.206824,7.74,2,RUN
1759224935.21999,22.979548,40.545655,8.575731,3.277527,-5.72828,6.635479,7.76,2,RUN
1759224935.23908,9.845855,57.363725,5.261109,1.71217,0.165132,3.452097,7.78,2,RUN
1759224935.25985,-4.271405,30.865898,6.2764,1.436899,7.116835,0.708657,7.80,2,RUN
1759224935.27977,-4.531326,25.788844,8.995614,-1.493055,6.377264,1.898301,7.82,2,RUN
1759224935.29990,-6.01199,17.538126,3.279158,-2.05756,2.825622,2.725458,7.84,2,RUN
1759224935.31982,-6.290316,8.082077,-1.929577,-1.235556,1.109319,1.649316,7.86,2,RUN
1759224935.33982,-4.398597,5.013159,-4.927716,-0.701942,-2.14277,-0.031016,7.88,2,RUN
1759224935.35979,-5.226093,3.185485,-4.893299,-0.310522,-2.622705,-1.014845,7.90,2,RUN
1759224935.37998,-6.212804,1.594838,-1.240645,-0.605016,-1.219612,-1.565726,7.92,2,RUN
1759224935.39980,-7.4117,-1.680879,-4.808305,-0.912484,-0.668198,-1.928295,7.94,2,RUN
1759224935.41997,-9.02195,-2.491765,-12.36246,0.520528,-0.451718,-3.170676,7.96,2,RUN
1759224935.43987,3.027019,2.959084,-5.313482,0.958101,1.161393,-3.542141,7.98,2,RUN
1759224935.45990,10.316166,2.713229,8.298303,-0.058726,2.686394,-2.804533,8.00,2,RUN
1759224935.47984,12.499977,1.4247,9.939528,-0.790445,1.168581,-1.176667,8.02,2,RUN
1759224935.49987,4.280833,-0.054169,3.664775,-0.511862,-0.397832,0.205728,8.04,2,RUN
1759224935.51979,0.117316,1.067664,1.311125,0.422419,-0.64891,0.936319,8.06,2,RUN
1759224935.53997,-1.044321,0.791583,-0.983867,0.575139,0.901098,1.256975,8.08,2,RUN
1759224935.55978,-0.865354,8.911967,-0.645387,-0.343907,2.115003,2.283593,8.10,2,RUN
1759224935.57977,-9.671827,49.058239,1.054646,1.597722,2.301814,-0.560805,8.12,2,RUN
1759224935.59978,-8.881141,21.352688,4.647594,-0.339021,1.378157,-1.976061,8.14,2,RUN
1759224935.61979,-4.053683,11.546486,2.148646,-0.421934,-0.03947,-1.656272,8.16,2,RUN
1759224935.63979,-5.310788,9.829545,3.109469,-0.069649,-1.464911,-2.602829,8.18,2,RUN
1759224935.65986,-3.605518,14.71222,3.785083,0.416001,-3.089828,-3.624381,8.20,2,RUN
1759224935.67980,0.009577,22.323836,7.332691,0.060419,-4.627768,-3.993871,8.22,2,RUN
1759224935.69986,8.117541,28.951734,15.726912,-2.477224,-7.948486,-2.919459,8.24,2,RUN
1759224935.71980,11.935694,25.700109,10.699538,-5.540607,-5.328825,-1.742109,8.26,2,RUN
1759224935.73987,17.189171,17.840693,-0.964564,-5.849632,13.354359,-2.511085,8.28,2,RUN
1759224935.75978,9.50947,11.706449,-48.226554,2.951891,-0.156068,0.678133,8.30,2,RUN
1759224935.77992,7.842806,1.526004,2.319383,1.155574,-1.570488,0.756148,8.32,2,RUN
1759224935.79979,6.662914,1.530942,-0.622044,1.256869,0.704165,0.784194,8.34,2,RUN
1759224935.81998,4.186411,0.794725,0.534206,1.409166,1.180731,1.217734,8.36,2,RUN
1759224935.83985,2.772486,-0.225654,-0.254833,1.117883,0.145096,1.477127,8.38,2,RUN
1759224935.85983,1.658134,-2.476353,-2.592471,0.712263,-0.123305,1.420709,8.40,2,RUN
1759224935.87980,2.148197,-3.875464,-6.773196,1.441626,-0.012146,1.323241,8.42,2,RUN
1759224935.89983,3.386149,-1.65185,-1.480814,2.373372,-1.35042,1.676949,8.44,2,RUN
1759224935.91980,4.188506,1.981202,-0.175974,3.650084,-2.850613,2.148926,8.46,2,RUN
1759224935.93980,8.36953,8.768165,0.559345,5.345251,-4.620748,2.842891,8.48,2,RUN
1759224935.95986,30.446314,48.491562,4.24462,2.288887,-1.260171,6.648755,8.50,2,RUN
1759224935.99985,-7.571812,31.454722,6.432621,-0.355685,8.294547,2.1516,8.54,2,RUN
1759224936.01999,-12.644677,23.336583,-0.003591,-2.79475,2.766076,2.721153,8.56,2,RUN
1759224936.03979,-9.645939,15.437663,-2.88202,-1.0863,1.172644,1.652157,8.58,2,RUN
1759224936.05979,-1.997662,7.243956,1.912817,-0.646262,-2.079348,-0.179006,8.60,2,RUN
1759224936.07950,0.806247,1.712453,-4.136732,-0.32416,-1.754883,-0.990415,8.62,2,RUN
1759224936.10001,-4.321235,2.190994,-2.804209,-0.136045,-0.716776,-1.362366,8.64,2,RUN
1759224936.11980,-6.553528,0.866701,1.30873,-0.836566,-0.02104,-1.527057,8.66,2,RUN
1759224936.13988,-7.426215,-1.92823,-4.546888,-0.359104,-0.275551,-1.565191,8.68,2,RUN
1759224936.15901,-8.449587,-2.532018,-9.729886,1.347455,-0.191754,-1.946411,8.70,2,RUN
1759224936.17979,-2.412158,-1.187075,-3.203891,0.990786,0.955701,-1.475292,8.72,2,RUN
1759224936.19980,3.995025,-1.799991,3.287538,-0.107031,2.631041,-1.045195,8.74,2,RUN
1759224936.21981,3.493439,-1.144877,6.310966,-0.58754,1.911783,-0.924736,8.76,2,RUN
1759224936.23986,2.999785,3.240552,7.065439,-0.458618,0.585092,0.062042,8.78,2,RUN
1759224936.25981,3.199102,3.649212,2.51047,0.335438,1.201049,1.186875,8.80,2,RUN
1759224936.27979,3.05141,10.914417,0.977134,0.551676,1.762969,1.61516,8.82,2,RUN
1759224936.29984,-0.863259,45.268966,1.607258,-0.717918,3.467175,0.248532,8.84,2,RUN
1759224936.31987,-7.26745,20.372711,1.16867,-1.193978,4.057387,-1.780072,8.86,2,RUN
1759224936.33896,-2.334796,6.395511,0.277428,-0.832417,2.720682,-1.706605,8.88,2,RUN
1759224936.35987,-2.275689,10.131214,-0.233884,0.925283,-0.199577,-2.061097,8.90,2,RUN
1759224936.37979,-1.7343,16.915334,1.553388,2.840629,-3.595316,-3.34159,8.92,2,RUN
1759224936.39980,-0.395642,24.843284,7.606379,2.619298,-7.079054,-4.53953,8.94,2,RUN
1759224936.41983,9.754726,28.57749,20.091093,-1.797479,-9.810158,-2.81315,8.96,2,RUN
1759224936.43918,5.871331,18.760815,11.543045,-4.94698,-4.615562,-2.027,8.98,2,RUN
1759224936.45981,9.583391,14.996531,1.953818,-6.19105,4.424323,-2.996503,9.00,2,RUN
1759224936.47979,12.08159,11.687744,-41.956289,-1.385479,5.57883,-1.489359,9.02,2,RUN
1759224936.49999,7.050325,7.71741,-15.189564,1.409639,-2.346661,0.326941,9.04,2,RUN
1759224936.51983,4.109647,4.132991,0.660351,0.904734,1.392062,0.071641,9.06,2,RUN
1759224936.53939,4.780772,2.696619,2.208801,0.763686,1.974236,0.490224,9.08,2,RUN
1759224936.55900,4.053982,0.372448,1.808221,0.450733,0.864105,1.025092,9.10,2,RUN
1759224936.57987,3.208978,-0.954389,0.21877,0.000247,-0.202754,1.510923,9.12,2,RUN
1759224936.59980,4.376451,-4.372261,-9.291897,0.428527,1.080935,2.0588,9.14,2,RUN
1759224936.61982,11.289858,-3.960608,-10.437223,2.1649,0.457968,3.136336,9.16,2,RUN
1759224936.63949,6.41661,2.768894,0.149189,3.111541,-2.074686,3.443443,9.18,2,RUN
1759224936.65983,4.542249,4.795287,0.746841,3.650053,-3.418021,3.602427,9.20,2,RUN
1759224936.67985,7.962666,15.629648,1.312621,3.867735,-5.185015,2.887147,9.22,2,RUN
1759224936.69980,23.384766,59.441742,6.777237,1.57924,-2.994757,4.040594,9.24,2,RUN
1759224936.71983,-1.396268,43.177631,8.570643,1.544386,4.72729,1.360404,9.26,2,RUN
1759224936.73969,-2.058864,23.778912,12.110919,-0.956485,6.990422,1.262868,9.28,2,RUN
1759224936.75981,-4.916044,17.971177,6.083218,-3.663027,2.525645,2.692216,9.30,2,RUN
1759224936.77981,-0.03726,13.387328,-8.777293,-1.835679,1.172727,1.661417,9.32,2,RUN
1759224936.79985,-1.624466,10.216507,-3.013103,-0.391154,-1.43336,0.512597,9.34,2,RUN
1759224936.81986,-2.912846,5.235221,-1.179593,0.188958,-2.661281,0.054846,9.36,2,RUN
1759224936.83981,-4.85185,1.249624,-0.039205,0.399598,-2.790716,-0.021535,9.38,2,RUN
1759224936.85988,-7.27119,-0.567426,1.462558,0.292153,-1.631435,0.259653,9.40,2,RUN
1759224936.87986,-8.498069,-2.177826,-1.752406,0.319161,-0.44598,0.725341,9.42,2,RUN
1759224936.89987,-13.041067,-3.996371,-9.10066,0.846608,-1.223533,0.393453,9.44,2,RUN
1759224936.91983,-12.628965,-3.717447,-8.125472,0.349368,0.75671,-1.542178,9.46,2,RUN
1759224936.93985,5.043984,-2.559102,0.294786,-0.604257,4.578664,-2.02848,9.48,2,RUN
1759224936.95980,14.870536,2.920477,13.722666,-1.681183,5.373477,-0.967471,9.50,2,RUN
1759224936.97984,7.382072,7.534702,9.54658,-0.771043,2.409674,0.410535,9.52,2,RUN
1759224936.99981,2.121562,5.241207,-17.816452,2.058011,1.287279,0.667328,9.54,2,RUN
1759224937.01937,0.421379,9.657761,10.065074,1.182979,-0.066688,1.151715,9.56,2,RUN
1759224937.03894,-4.838233,35.852422,4.648043,1.669785,-2.253899,-1.15065,9.58,2,RUN
1759224937.05894,-5.61156,25.841067,5.948095,-0.137495,-0.017758,-2.653412,9.60,2,RUN
1759224937.07980,-3.83596,3.623026,2.097021,-0.130764,0.532742,-2.141774,9.62,2,RUN
1759224937.09983,-9.665093,12.272079,3.173664,0.171036,-0.736744,-3.764784,9.64,2,RUN
1759224937.11981,-3.045425,24.775648,3.986495,0.375381,-3.54747,-4.939118,9.66,2,RUN
1759224937.14000,3.592949,27.540053,5.560384,0.16731,-6.815293,-4.583303,9.68,2,RUN
1759224937.15917,19.133711,32.669031,10.201095,-3.167055,-5.674422,-2.383918,9.70,2,RUN
1759224937.17980,15.461305,17.490092,1.799991,-4.21025,0.136448,-2.373948,9.72,2,RUN
1759224937.19981,15.901539,12.335825,-0.550367,-3.196218,3.974627,-2.498077,9.74,2,RUN
1759224937.21984,9.77373,6.698078,-8.035539,-3.46652,3.401287,-1.663423,9.76,2,RUN
1759224937.23982,1.651401,6.947973,-28.729372,0.922968,-2.332623,-0.314574,9.78,2,RUN
1759224937.25938,4.337545,2.864213,-2.429666,0.877761,0.19632,-0.049487,9.80,2,RUN
1759224937.27987,6.006753,2.526332,1.660229,1.122297,0.313998,0.566913,9.82,2,RUN
1759224937.29981,4.563049,0.263512,0.56174,1.044433,-0.110645,1.002386,9.84,2,RUN
1759224937.31988,3.559729,-1.599925,-2.710984,0.559896,0.767155,1.101068,9.86,2,RUN
1759224937.33981,6.256199,-3.354576,-8.591892,0.677569,1.084207,1.317274,9.88,2,RUN
1759224937.35949,7.565677,-3.665972,-5.307347,1.868433,-2.316285,1.771314,9.90,2,RUN
1759224937.37927,3.665972,0.115071,-0.37589,2.837514,-4.123871,2.411092,9.92,2,RUN
1759224937.39988,6.421398,2.129642,-0.013318,3.842448,-4.944081,3.616135,9.94,2,RUN
1759224937.41982,9.888951,8.296208,2.209848,4.819183,-5.938418,4.917428,9.96,2,RUN
1759224937.43981,26.242844,54.007054,5.068375,3.913027,2.314261,6.432312,9.98,2,RUN
1759224937.47983,-1.08173,27.274596,14.976779,-5.447366,6.124043,1.31762,10.02,2,RUN
1759224937.49984,-0.773926,15.613188,-4.611532,-4.463242,0.821807,2.324703,10.04,2,RUN
1759224937.51982,-0.149039,11.34253,-6.879589,-0.615621,-0.798184,0.694922,10.06,2,RUN
1759224937.53984,-3.089867,7.277774,-4.900482,-0.01411,-3.713342,-0.32875,10.08,2,RUN
1759224937.55982,-6.320992,4.830601,-1.391779,0.560968,-3.831333,-0.883874,10.10,2,RUN
1759224937.57981,-6.295703,2.927061,1.949628,0.152525,-2.182547,-0.53717,10.12,2,RUN
1759224937.59983,-7.135918,-0.794725,0.022745,-0.32825,-0.806986,0.131546,10.14,2,RUN
1759224937.61984,-11.461343,-4.672883,-11.030237,1.103332,-1.751958,-0.136098,10.16,2,RUN
1759224937.63991,-8.953566,-7.017106,-4.957793,0.566329,0.110858,-1.193176,10.18,2,RUN
1759224937.65989,1.72607,-8.045864,0.404022,-0.717256,3.599407,-1.349781,10.20,2,RUN
1759224937.67988,5.616498,-2.23379,3.813814,-1.283577,5.49829,-0.296055,10.22,2,RUN
1759224937.70002,0.753425,1.862839,10.800693,-0.956627,3.08394,-0.143727,10.24,2,RUN
1759224937.71986,0.54932,3.639187,4.181324,0.533919,2.400332,0.162133,10.26,2,RUN
1759224937.74001,-2.056919,8.825327,-9.556456,-0.478301,2.952608,0.603051,10.28,2,RUN
1759224937.75950,6.118981,22.004808,8.323741,0.306974,0.697475,0.536426,10.30,2,RUN
1759224937.79905,-1.533935,3.818003,-0.222062,-1.475352,3.556949,-1.488088,10.34,2,RUN
1759224937.81987,-1.861941,6.11943,-0.708833,-0.019714,0.889854,-1.306437,10.36,2,RUN
1759224937.83989,-5.860856,13.310414,0.734571,2.034618,-1.872282,-3.679759,10.38,2,RUN
1759224937.85984,-0.93329,21.397579,4.568885,2.780158,-5.885727,-5.502844,10.40,2,RUN
1759224937.87989,11.88781,31.42674,13.557017,0.670028,-8.708403,-3.749421,10.42,2,RUN
1759224937.89998,14.495395,20.280833,8.000225,-3.080112,-6.033504,-1.769844,10.44,2,RUN
1759224937.91991,14.1834,14.783148,0.687286,-4.127466,-0.138466,-1.409079,10.46,2,RUN
1759224937.93995,13.888016,10.485406,-2.190395,-2.413288,4.080792,-1.681219,10.48,2,RUN
1759224937.95983,8.835951,2.241871,-6.716933,-2.533264,8.352208,-1.015577,10.50,2,RUN
1759224937.97985,4.75249,1.395371,-24.189368,0.246333,0.872693,0.313753,10.52,2,RUN
1759224937.99986,3.967192,2.038214,-0.533009,0.259616,-2.4573,0.86416,10.54,2,RUN
1759224938.01993,3.599084,-1.610998,-5.199757,0.815999,-0.468194,0.95364,10.56,2,RUN
1759224938.03984,3.04303,-3.799748,-3.809624,0.965028,1.172754,0.867563,10.58,2,RUN
1759224938.05991,5.491401,-5.055656,-5.130475,1.167463,0.85622,1.189253,10.60,2,RUN
1759224938.07988,6.451027,0.347907,-6.31336,2.137983,-0.799235,2.286358,10.62,2,RUN
1759224938.10004,2.401983,4.09214,-1.465401,2.905496,-2.079209,2.657884,10.64,2,RUN
1759224938.11986,3.159748,6.785018,0.321422,2.838228,-3.225015,2.688486,10.66,2,RUN
1759224938.14002,9.567828,18.068142,1.023072,3.36678,-4.487272,3.594953,10.68,2,RUN
1759224938.15892,20.058472,45.023112,2.29155,2.707474,-2.806082,5.324249,10.70,2,RUN
1759224938.17989,1.510442,39.906553,2.391508,4.140759,5.020319,2.629852,10.72,2,RUN
1759224938.19990,-4.3561,25.460539,11.420492,1.558493,8.027806,0.686149,10.74,2,RUN
1759224938.21991,-1.766472,21.522077,12.573449,-2.962985,3.986892,1.585001,10.76,2,RUN
1759224938.23985,2.222567,18.930504,9.779266,-3.773261,-0.98487,1.043176,10.78,2,RUN
1759224938.25919,12.675053,12.315773,-13.809905,-0.705749,1.479839,1.230325,10.80,2,RUN
1759224938.27989,1.313968,7.000346,-3.674501,0.360515,-2.216646,0.617763,10.82,2,RUN
1759224938.30003,-6.265626,4.134188,-0.077063,-0.036091,-2.354014,0.036844,10.84,2,RUN
1759224938.31987,-9.309105,1.736245,2.406921,-0.703574,-1.064313,-0.128478,10.86,2,RUN
1759224938.34003,-9.184307,-0.444873,1.495927,-0.975048,0.723135,0.300297,10.88,2,RUN
1759224938.35935,-9.418041,-4.387375,-3.465308,-0.569831,0.638055,0.226109,10.90,2,RUN
1759224938.37986,-10.798897,-8.526051,-10.436475,0.55377,-1.61064,-0.639772,10.92,2,RUN
1759224938.39988,1.258452,-8.210166,-9.926061,0.995211,1.568269,-1.916505,10.94,2,RUN
1759224938.41987,10.307487,-0.692224,10.92983,-0.816288,5.472142,-1.544086,10.96,2,RUN
1759224938.43983,7.097461,4.532972,13.959842,-1.33122,2.147361,-0.183699,10.98,2,RUN
1759224938.45948,0.750732,5.188085,-0.250194,0.296316,0.168814,0.042713,11.00,2,RUN
1759224938.47984,1.454926,33.359758,-16.640899,2.033337,3.177516,0.914558,11.02,2,RUN
1759224938.49984,0.595408,47.890318,1.121983,1.195562,1.389763,0.492621,11.04,2,RUN
1759224938.51983,-5.200505,11.344775,0.332495,1.323282,2.715803,-0.414881,11.06,2,RUN
1759224938.53985,-6.07409,4.915146,1.671153,2.011495,2.815175,-1.275639,11.08,2,RUN
1759224938.55969,-7.394641,8.080281,4.36433,1.936277,-0.501113,-3.294236,11.10,2,RUN
1759224938.57991,-0.011672,16.008829,7.784597,1.669688,-6.347757,-3.878218,11.12,2,RUN
1759224938.59991,6.274454,24.730457,10.88868,0.546725,-10.925717,-3.764505,11.14,2,RUN
1759224938.61985,14.778509,30.385412,12.567763,-1.77848,-12.589512,-2.305768,11.16,2,RUN
1759224938.63983,15.196896,15.284733,6.811953,-4.948046,-2.168186,-1.642549,11.18,2,RUN
1759224938.65984,16.679056,9.698013,0.782006,-5.430697,7.269873,-2.347494,11.20,2,RUN
1759224938.67982,12.330438,8.472481,-1.818546,-4.412491,8.562105,-2.562649,11.22,2,RUN
1759224938.69985,2.224662,11.072285,-41.519048,-0.022253,0.027684,-1.549569,11.24,2,RUN
1759224938.71985,5.992687,9.682451,-5.706729,-0.181641,-5.072512,-0.489626,11.26,2,RUN
1759224938.73984,5.141997,3.991284,-1.107468,-0.397021,-1.361264,-0.289804,11.28,2,RUN
1759224938.75984,9.242816,1.615936,-0.19423,0.372911,-0.196718,0.700836,11.30,2,RUN
1759224938.77984,6.305729,-0.357484,-0.671574,0.42943,0.490026,1.29971,11.32,2,RUN
1759224938.79984,4.50065,-4.145411,-4.268113,0.070853,2.611373,1.353869,11.34,2,RUN
1759224938.81985,7.93199,-9.378088,-12.909984,1.457513,1.22502,1.624666,11.36,2,RUN
1759224938.83984,3.323152,1.073201,-1.963694,2.052355,-2.286574,2.039827,11.38,2,RUN
1759224938.86004,2.680309,3.873818,1.207875,2.643259,-4.530462,2.489983,11.40,2,RUN
1759224938.87983,9.047688,12.26759,2.856582,3.02223,-7.152693,3.162208,11.42,2,RUN
1759224938.90004,26.907235,35.663878,3.740641,2.172251,-4.796389,6.204949,11.44,2,RUN
1759224938.91986,8.413823,43.440694,0.227449,3.087631,0.160885,3.430292,11.46,2,RUN
1759224938.93989,-2.36592,30.657902,8.089858,3.884308,6.534599,0.283706,11.48,2,RUN
1759224938.95988,-1.878102,23.422774,13.356653,-0.411572,7.719061,1.395409,11.50,2,RUN
1759224938.97989,-6.305729,19.40276,7.813327,-3.684245,4.094386,2.001291,11.52,2,RUN
1759224938.99991,-0.022895,15.855451,2.75019,-3.262645,1.332255,0.752447,11.54,2,RUN
1759224939.01989,10.076746,10.607361,-5.295525,-1.19496,-1.646268,0.800009,11.56,2,RUN
1759224939.03987,2.296339,7.429208,-2.561497,-0.288645,-2.614423,0.272055,11.58,2,RUN
1759224939.05991,-4.264971,4.702362,0.387861,-0.594126,-3.665564,0.030594,11.60,2,RUN
1759224939.07990,-10.105626,1.843386,0.188543,-1.058967,-3.452645,0.181549,11.62,2,RUN
1759224939.10004,-13.583952,-0.847847,-2.804209,-0.565401,-1.487651,0.660717,11.64,2,RUN
1759224939.11986,-16.409409,-4.27365,-10.225486,0.927299,-1.743454,-0.111333,11.66,2,RUN
1759224939.13998,-15.728857,-4.578462,-11.501595,1.391971,-1.216117,-1.28041,11.68,2,RUN
1759224939.15985,0.024241,-3.813664,-6.651391,0.889534,2.663287,-1.741671,11.70,2,RUN
1759224939.17987,9.699958,-0.760608,8.20044,-0.694341,6.35335,-0.894692,11.72,2,RUN
1759224939.19986,6.944831,4.276194,13.350517,-0.718774,4.656062,0.043663,11.74,2,RUN
1759224939.21993,4.420594,4.759224,2.367417,0.533446,5.211639,1.314377,11.76,2,RUN
1759224939.23995,5.220706,11.482292,4.469077,1.345464,4.665661,2.37534,11.78,2,RUN
1759224939.25992,4.042011,55.616107,1.278055,-1.10751,3.811147,-0.046439,11.80,2,RUN
1759224939.27973,-3.752911,15.439159,-3.680187,-0.08141,4.237919,-1.279269,11.82,2,RUN
1759224939.29984,-6.66037,9.958682,3.733159,0.917143,-1.004756,-3.189064,11.84,2,RUN
1759224939.31989,-2.596811,14.97648,6.897695,1.079936,-5.878829,-4.449686,11.86,2,RUN
1759224939.33985,3.868282,22.826019,5.538836,0.967927,-9.038238,-4.777487,11.88,2,RUN
1759224939.35985,13.913604,30.1427,6.285378,-0.225884,-8.420435,-3.208444,11.90,2,RUN
1759224939.37991,15.617527,18.935741,3.598186,-3.300795,-0.938443,-2.192613,11.92,2,RUN
1759224939.39991,15.828666,15.778986,3.239654,-3.44544,3.14646,-2.613455,11.94,2,RUN
1759224939.41986,16.033669,12.470948,0.733673,-2.398065,4.985824,-2.596557,11.96,2,RUN
1759224939.43984,8.446893,4.725855,-9.479393,-1.911846,9.34897,-2.127617,11.98,2,RUN
1759224939.45987,9.582792,2.896535,-22.743569,0.953193,-1.418619,-0.365976,12.00,2,RUN
1759224939.47985,7.369652,0.498293,1.011101,0.173264,-3.661869,0.092327,12.02,2,RUN
1759224939.49986,8.163479,-1.258303,-1.756297,0.392201,-1.623781,0.556066,12.04,2,RUN
1759224939.51986,5.035305,-3.135357,-0.807145,0.60506,-0.021832,0.45603,12.06,2,RUN
1759224939.53917,3.210475,-5.564574,-0.398335,0.012008,1.00549,-0.13661,12.08,2,RUN
1759224939.55992,5.621585,-6.667253,-8.466196,0.64918,0.881239,0.132255,12.10,2,RUN
1759224939.57986,7.425168,-0.128539,-4.890456,1.850502,-1.574538,1.870884,12.12,2,RUN
1759224939.59988,6.49921,3.503316,-1.051354,2.967912,-3.275928,3.016844,12.14,2,RUN
1759224939.61985,5.306299,7.181707,1.247379,3.397637,-4.643275,3.458994,12.16,2,RUN
1759224939.63966,18.93215,28.95323,1.878401,2.827975,-4.760466,5.295399,12.18,2,RUN
1759224939.67991,-2.053178,33.172113,7.687033,3.415855,4.956236,1.425076,12.22,2,RUN
1759224939.69989,-0.939724,24.844331,13.088801,-0.147341,6.73946,1.869309,12.24,2,RUN
1759224939.71987,-7.076662,23.160459,8.734945,-3.175814,2.520761,2.301485,12.26,2,RUN
1759224939.74009,1.104475,15.598523,-6.850559,-1.457135,0.468845,1.513392,12.28,2,RUN
1759224939.75989,3.572299,10.917859,-6.260388,0.133325,-1.063593,1.076928,12.30,2,RUN
1759224939.77991,-1.342399,6.067506,-1.723227,0.273677,-2.612653,0.500595,12.32,2,RUN
1759224939.79993,-7.234829,3.041833,1.823783,-0.168415,-1.923175,0.056576,12.34,2,RUN
1759224939.81998,-9.679308,0.84231,1.524358,-0.891842,-1.155334,0.058187,12.36,2,RUN
1759224939.83990,-10.895264,-0.456395,-1.205481,-0.816523,0.636027,-0.01046,12.38,2,RUN
1759224939.85993,-11.892149,-2.218527,-3.817854,0.430114,1.446683,-1.107643,12.40,2,RUN
1759224939.87986,-9.991303,-5.92131,-5.163545,1.172502,0.311511,-2.019893,12.42,2,RUN
1759224939.89994,1.555184,-3.822493,-2.70455,0.55107,1.11666,-1.808637,12.44,2,RUN
1759224939.91931,11.479449,-1.029956,1.836652,-0.570511,5.022656,-0.820164,12.46,2,RUN
1759224939.93990,8.059332,1.803283,10.487351,-1.594657,4.109107,0.06815,12.48,2,RUN
1759224939.95986,2.023998,4.346523,-1.732803,0.055495,2.554521,0.481019,12.50,2,RUN
1759224939.97892,3.629161,15.307328,4.872649,0.980991,1.070306,1.753646,12.52,2,RUN
1759224939.99996,1.534683,51.993531,4.834342,0.807416,-0.860766,0.180675,12.54,2,RUN
1759224940.01988,-2.675371,18.057219,-1.047014,-1.458979,3.198611,-1.500989,12.56,2,RUN
1759224940.03989,-4.562151,6.158635,-0.05761,-0.549259,3.920444,-1.345707,12.58,2,RUN
1759224940.05906,-9.104999,8.621371,-0.4953,1.193939,1.449624,-2.766494,12.60,2,RUN
1759224940.07919,-3.239205,16.480038,2.840122,2.547613,-2.347785,-4.294935,12.62,2,RUN
1759224940.09947,4.129699,26.286688,6.960692,2.737623,-6.107395,-4.639754,12.64,2,RUN
1759224940.11989,12.918663,31.099931,10.554539,0.261714,-8.310619,-3.07585,12.66,2,RUN
1759224940.13914,12.705579,16.905308,8.057985,-4.223045,-5.526579,-2.51383,12.68,2,RUN
1759224940.15889,18.032678,15.052795,0.757914,-4.503344,-0.589999,-1.797399,12.70,2,RUN
1759224940.17926,16.85099,4.623054,-1.601422,-3.020952,5.600101,-2.50336,12.72,2,RUN
1759224940.19986,12.74239,1.269675,-11.721114,-1.536609,10.452025,-1.498294,12.74,2,RUN
1759224940.21987,12.103737,1.865083,-17.805229,0.48566,0.328889,0.975786,12.76,2,RUN
1759224940.23986,6.836344,-0.206051,-1.810166,0.385328,-2.953088,1.665314,12.78,2,RUN
1759224940.25990,3.836708,-3.042432,-6.563554,1.06905,-0.204328,1.285634,12.80,2,RUN
1759224940.27945,1.638681,-1.456124,-0.348656,0.74199,-0.036247,0.826947,12.82,2,RUN
1759224940.29990,2.480842,-1.650652,-0.206201,0.551882,-1.344292,0.841379,12.84,2,RUN
1759224940.31991,8.570045,-1.180192,-5.01286,1.555041,-1.222572,2.058906,12.86,2,RUN
1759224940.33990,9.853337,3.766229,-2.231845,2.835306,-1.500409,3.644937,12.88,2,RUN
1759224940.35993,4.503793,6.943484,1.497274,2.816386,-3.461913,3.793608,12.90,2,RUN
1759224940.37966,13.825617,19.108273,4.857237,2.962298,-7.152983,4.807645,12.92,2,RUN
1759224940.39986,27.668292,52.46025,5.887342,2.138455,-5.956018,5.618167,12.94,2,RUN
1759224940.41989,2.178125,39.511211,5.25243,3.32876,4.086328,2.164184,12.96,2,RUN
1759224940.43923,-2.693776,24.920946,11.911303,1.44663,9.17203,0.565693,12.98,2,RUN
1759224940.45997,-4.158279,17.385196,12.526313,-2.985185,5.287883,1.558105,13.00,2,RUN
1759224940.47988,-6.847117,11.792191,3.349787,-3.407094,0.053022,0.868277,13.02,2,RUN
1759224940.49989,-1.495927,8.665065,-9.082554,-1.216492,-2.926464,-0.616773,13.04,2,RUN
1759224940.51988,3.73675,6.949769,-9.621548,0.527625,-2.210071,-0.444678,13.06,2,RUN
1759224940.53988,-4.400842,3.729418,-0.535703,0.169325,-1.19198,-0.613729,13.08,2,RUN
1759224940.55994,-7.571962,2.504036,0.930896,-0.166551,0.080285,-1.009179,13.10,2,RUN
1759224940.57991,-8.794052,-0.513706,-2.73762,0.446685,-0.805719,-1.320288,13.12,2,RUN
1759224940.59887,-9.586982,-3.216311,-6.404041,1.032042,-2.586372,-1.259003,13.14,2,RUN
1759224940.61987,-10.170419,-3.141043,-7.853131,0.781877,-0.728289,-1.700311,13.16,2,RUN
1759224940.63929,2.913743,1.045219,-5.013608,0.426005,3.842107,-2.002045,13.18,2,RUN
1759224940.65909,9.491962,2.123807,13.871256,-1.206277,5.223433,-1.299017,13.20,2,RUN
1759224940.67988,10.564415,8.820089,14.668376,-1.207275,-0.267948,0.803766,13.22,2,RUN
1759224940.69905,7.91972,10.676793,3.628413,0.192961,-2.009109,2.437171,13.24,2,RUN
1759224940.71995,13.362788,30.148535,-4.918887,0.945857,5.19033,3.782561,13.26,2,RUN
1759224940.73990,-0.865654,30.658949,-10.833763,-0.436088,11.454301,1.35931,13.28,2,RUN
1759224940.75994,-7.623886,7.58513,-0.709432,0.623155,3.043089,1.281265,13.30,2,RUN
1759224940.77989,-10.426748,5.712116,0.960673,1.563058,0.827489,-0.229344,13.32,2,RUN
1759224940.79989,-16.027833,9.526379,5.316026,1.511366,-0.88726,-4.335881,13.34,2,RUN
1759224940.81989,-2.858527,16.499491,6.207267,1.964571,-5.367039,-5.630498,13.36,2,RUN
1759224940.83989,4.468029,26.330831,6.882282,1.924914,-9.679463,-5.425599,13.38,2,RUN
1759224940.85989,10.696096,29.74182,9.570821,-0.927827,-11.178128,-3.973428,13.40,2,RUN
1759224940.87987,13.851354,19.651458,7.912238,-6.32873,-4.5153,-2.408449,13.42,2,RUN
1759224940.89947,19.037195,17.75106,0.647033,-7.659742,4.033665,-1.435563,13.44,2,RUN
1759224940.91995,16.023793,8.952219,-15.625907,-2.697915,10.602529,-2.517791,13.46,2,RUN
1759224940.93995,9.293692,7.188142,-30.239964,1.57676,1.711371,-1.124254,13.48,2,RUN
1759224940.95988,7.093571,1.777994,-3.015497,-0.017409,-2.922879,-0.29513,13.50,2,RUN
1759224940.97988,6.933458,1.011251,1.053299,-0.196668,-2.08554,0.093724,13.52,2,RUN
1759224940.99988,6.596325,-0.371101,-2.619706,0.999774,0.249279,0.735968,13.54,2,RUN
1759224941.01991,5.581183,-2.866308,-0.911592,1.10842,1.739605,0.662151,13.56,2,RUN
1759224941.03955,10.349685,-7.916428,-10.510096,1.549226,3.253943,0.997058,13.58,2,RUN
1759224941.05992,5.230283,4.206014,0.807145,2.635289,-3.515467,3.079076,13.60,2,RUN
1759224941.07996,6.312911,7.299173,1.946336,3.253072,-5.798753,3.696831,13.62,2,RUN
1759224941.09983,18.416349,21.553352,2.228254,3.8196,-7.178637,5.787437,13.64,2,RUN
1759224941.11989,24.495227,41.102906,2.240673,2.477195,-3.880251,6.219528,13.66,2,RUN
1759224941.13993,9.859472,31.788564,3.574992,3.424314,-2.315791,4.107901,13.68,2,RUN
1759224941.15989,2.531569,39.155223,7.447015,3.901018,3.95705,1.682808,13.70,2,RUN
1759224941.18003,-3.734655,30.452749,12.857761,-0.333771,8.273126,0.693821,13.72,2,RUN
1759224941.19995,-4.957195,18.468273,8.904335,-3.616888,5.725705,1.164058,13.74,2,RUN
1759224941.21989,-2.217779,7.879168,0.86296,-2.686173,-0.718583,0.707404,13.76,2,RUN
1759224941.23988,0.235679,3.847931,-7.037756,-0.580226,-3.659749,0.152973,13.78,2,RUN
1759224941.25990,-4.71972,3.644723,-3.138349,-0.432541,-2.71491,-0.45245,13.80,2,RUN
1759224941.27988,-10.565013,2.477999,-1.122282,-1.132806,-0.359329,-0.964511,13.82,2,RUN
1759224941.29989,-11.782764,-0.983418,-6.832154,0.147983,-0.757496,-1.360726,13.84,2,RUN
1759224941.31989,-11.086351,-4.842871,-9.430311,2.045944,-3.142472,-1.763777,13.86,2,RUN
1759224941.33988,-5.222053,-4.929362,-4.704157,1.532241,-1.243987,-2.062629,13.88,2,RUN
1759224941.35991,3.383605,-2.021604,0.475099,0.115683,1.839867,-1.90012,13.90,2,RUN
1759224941.37990,10.656891,0.971148,10.373627,-1.38564,4.30144,-0.638346,13.92,2,RUN
1759224941.39991,6.462399,5.325153,8.116344,-1.191806,5.114581,0.371495,13.94,2,RUN
1759224941.41896,0.467468,5.99119,1.492336,0.242775,4.502757,0.781515,13.96,2,RUN
1759224941.43991,-0.03322,26.869676,-12.725331,-0.684995,5.217945,2.085245,13.98,2,RUN
1759224941.45996,5.14484,28.249634,6.744167,0.03832,-0.24824,1.645136,14.00,2,RUN
1759224941.47995,4.586093,27.893646,-6.093393,-0.000986,3.191588,-0.830277,14.02,2,RUN
1759224941.49999,-2.028038,5.755362,-0.05791,0.676575,1.877434,-0.560436,14.04,2,RUN
1759224941.51990,-3.653103,9.970503,1.477671,0.982969,-0.210759,-2.177438,14.06,2,RUN
1759224941.53990,-3.335422,12.36261,2.589329,1.521125,-1.861756,-3.935429,14.08,2,RUN
1759224941.55990,2.210297,23.85822,4.156933,2.220779,-4.778379,-4.722515,14.10,2,RUN
1759224941.57955,10.728118,33.141138,13.117981,0.454803,-9.302474,-3.939411,14.12,2,RUN
1759224941.59989,8.830564,16.938827,13.004256,-3.073994,-11.399381,-2.965729,14.14,2,RUN
1759224941.61937,13.051242,13.464691,3.392584,-6.31309,-3.145432,-2.142706,14.16,2,RUN
1759224941.63989,17.514483,10.774805,-0.38382,-6.064583,4.510364,-2.130933,14.18,2,RUN
1759224941.65990,11.345074,5.97054,-9.805603,-3.394683,10.381577,-2.598015,14.20,2,RUN
1759224941.67995,2.544139,6.238541,-35.978267,1.752118,0.355163,-0.340045,14.22,2,RUN
1759224941.69999,5.364807,1.80837,1.438466,0.569922,-2.525769,0.918962,14.24,2,RUN
1759224941.71990,5.385607,0.283114,0.530465,0.402527,-2.056668,1.070267,14.26,2,RUN
1759224941.74001,4.340837,-0.587028,-0.063895,0.614793,-0.608735,1.025107,14.28,2,RUN
1759224941.75990,4.09199,-3.176806,-1.230021,0.768595,0.912746,0.683938,14.30,2,RUN
1759224941.77990,6.698527,-6.040421,-7.175422,1.094248,4.044657,0.658468,14.32,2,RUN
1759224941.79905,9.170391,-0.278326,-6.497714,1.488017,1.417091,2.432753,14.34,2,RUN
1759224941.81990,4.817433,2.573168,0.563685,2.019855,-2.331709,3.529209,14.36,2,RUN
1759224941.83991,4.356549,5.20679,1.443554,3.032516,-5.278934,4.256407,14.38,2,RUN
1759224941.85993,17.974619,21.189283,2.300229,5.041676,-7.763073,6.365664,14.40,2,RUN
1759224941.89916,1.685518,39.877524,6.067506,2.642203,7.112058,2.166431,14.44,2,RUN
1759224941.91991,-2.36592,25.305814,8.347085,-0.48619,8.476843,1.784328,14.46,2,RUN
1759224941.93992,-5.654805,18.353501,4.664803,-3.142291,1.878096,2.464125,14.48,2,RUN
1759224941.95990,-3.659088,12.353931,-5.230134,-1.221975,-1.408769,1.124056,14.50,2,RUN
1759224941.97994,-0.449661,9.581745,-0.604386,-0.497812,-2.081113,-0.171473,14.52,2,RUN
1759224941.99939,1.499668,5.064485,-4.344728,-0.427462,-1.258093,-0.796079,14.54,2,RUN
1759224942.01991,-3.672406,3.619434,-2.157176,-0.404827,-0.89515,-1.506202,14.56,2,RUN
1759224942.03991,-6.795941,3.195062,-0.923114,-0.061924,-0.039854,-1.882766,14.58,2,RUN
1759224942.05994,-7.360973,0.28895,1.054347,-0.269929,0.371994,-1.703348,14.60,2,RUN
1759224942.07993,-6.870461,-3.170372,-2.443283,-0.244118,-0.409388,-1.447089,14.62,2,RUN
1759224942.09953,-8.717139,-4.214992,-7.90715,0.167637,-0.95755,-1.701621,14.64,2,RUN
1759224942.11997,2.919729,-2.345569,-3.547608,-0.097178,2.21046,-2.108831,14.66,2,RUN
1759224942.14011,12.256517,1.228225,10.644621,-1.344647,2.872586,-1.625392,14.68,2,RUN
1759224942.15994,10.288782,5.731419,10.017938,-1.094925,-0.946928,-0.029508,14.70,2,RUN
1759224942.18008,7.127389,5.720945,1.680131,0.423937,-2.398921,1.467733,14.72,2,RUN
1759224942.19966,8.613739,15.95885,-2.975693,0.912851,1.145501,2.595814,14.74,2,RUN
1759224942.21994,9.208399,38.26877,-1.706617,-0.793689,6.57852,2.327499,14.76,2,RUN
1759224942.24005,-3.171719,21.06688,-4.430919,-1.088953,7.602177,1.839075,14.78,2,RUN
1759224942.26007,-18.113782,6.662764,-15.714193,1.555904,1.539072,0.634516,14.80,2,RUN
1759224942.27996,-6.744167,6.762123,2.672827,2.373979,-0.267206,-1.129924,14.82,2,RUN
1759224942.29986,-4.842572,12.909086,3.19596,2.833119,-1.507379,-3.537885,14.84,2,RUN
1759224942.31998,1.930325,22.085463,4.918139,3.215504,-3.494314,-5.070942,14.86,2,RUN
1759224942.34010,9.215881,31.450532,15.5668,0.773002,-7.136596,-4.844553,14.88,2,RUN
1759224942.35999,12.461969,22.604406,17.808371,-3.314156,-10.211484,-3.218891,14.90,2,RUN
1759224942.38006,12.950386,16.218472,7.277625,-4.185948,-5.171271,-2.304925,14.92,2,RUN
1759224942.39999,15.788413,12.055853,1.591845,-5.498074,4.729824,-2.926849,14.94,2,RUN
1759224942.41991,17.262942,8.554333,0.044442,-6.584754,9.640662,-3.724604,14.96,2,RUN
1759224942.44000,6.806266,10.058939,-57.779867,1.341636,-2.417799,-1.245253,14.98,2,RUN
1759224942.45994,5.508011,4.049942,-0.933739,0.029572,-3.193341,-0.461649,15.00,2,RUN
1759224942.47992,4.917241,1.29227,0.44607,0.310282,-1.233467,-0.02056,15.02,2,RUN
1759224942.50012,5.076007,0.253187,1.040131,0.944253,-0.335082,0.597378,15.04,2,RUN
1759224942.51994,4.519654,-1.787571,0.795474,1.390147,-0.240646,0.901323,15.06,2,RUN
1759224942.53993,2.287959,-3.475782,-0.554856,1.326885,1.038621,0.595136,15.08,2,RUN
1759224942.55991,4.270807,-5.831677,-10.187478,1.651655,4.838012,0.950176,15.10,2,RUN
1759224942.57992,3.391836,0.895132,-3.789423,2.161919,2.132139,1.706394,15.12,2,RUN
1759224942.59993,4.421791,2.399888,2.017863,2.545576,-2.025684,2.410141,15.14,2,RUN
1759224942.61914,8.677036,10.529998,2.918831,2.716523,-5.57958,3.43042,15.16,2,RUN
1759224942.63991,26.407296,34.58948,4.317195,1.50261,-5.14556,7.346092,15.18,2,RUN
1759224942.65991,10.039785,33.216855,1.890073,1.438219,-3.621263,5.349164,15.20,2,RUN
1759224942.67991,5.372888,32.918627,0.107589,3.250478,0.529997,3.657084,15.22,2,RUN
1759224942.69992,1.178097,32.528222,6.641964,3.155808,6.210619,2.232379,15.24,2,RUN
1759224942.71999,-3.173814,28.063934,10.355521,-1.199757,8.661482,1.750688,15.26,2,RUN
1759224942.73992,-3.883694,16.841862,8.476821,-3.652001,4.017686,0.252913,15.28,2,RUN
1759224942.75992,3.221997,7.906402,-3.51813,-2.492256,-1.618276,-0.300542,15.30,2,RUN
1759224942.77997,0.295983,6.797737,-7.855525,-0.423578,-3.645513,-0.277843,15.32,2,RUN
1759224942.79938,-6.151003,4.126556,-3.082984,-0.085765,-3.30265,-0.690541,15.34,2,RUN
1759224942.81993,-7.699603,2.828151,0.19393,-0.861132,-0.213688,-0.514869,15.36,2,RUN
1759224942.83998,-7.651869,-2.767996,-6.822128,-0.007628,-0.280897,-0.4425,15.38,2,RUN
1759224942.85991,-9.280075,-4.609886,-8.12188,1.009309,-0.456103,-0.92816,15.40,2,RUN
1759224942.87990,-5.724985,-6.321441,-5.094562,1.02486,0.962334,-1.457476,15.42,2,RUN
1759224942.89991,4.073884,-5.265448,0.122852,0.625727,3.797919,-1.848966,15.44,2,RUN
1759224942.91999,6.509086,2.001104,11.68535,-0.954867,3.342116,-1.300946,15.46,2,RUN
1759224942.93960,4.893299,4.744859,7.698107,-0.666639,0.953468,-0.036697,15.48,2,RUN
1759224942.95993,7.075464,17.214759,1.398812,0.885773,0.028037,1.52578,15.50,2,RUN
1759224942.97991,15.355512,43.808952,0.835127,-0.335892,3.636083,2.519989,15.52,2,RUN
1759224942.99992,2.3125,20.520254,-9.222166,-0.806544,8.531168,0.059512,15.54,2,RUN
1759224943.01982,-4.245219,3.467702,-7.091625,1.448565,2.827788,0.860468,15.56,2,RUN
1759224943.03997,-6.114043,8.012645,1.342848,1.915148,-1.223362,-0.039195,15.58,2,RUN
1759224943.05992,-8.748263,12.348843,3.985598,1.999919,-2.305131,-3.404612,15.60,2,RUN
1759224943.07994,-1.373524,20.208708,5.928642,2.625928,-4.047387,-5.080151,15.62,2,RUN
1759224943.09993,7.487118,29.554773,16.49186,0.489629,-9.358827,-4.433374,15.64,2,RUN
1759224943.11993,9.907955,22.922536,15.312117,-3.425074,-12.537346,-2.884371,15.66,2,RUN
1759224943.13992,9.851242,16.985065,3.012504,-4.530592,-6.684221,-1.886931,15.68,2,RUN
1759224943.15992,14.165294,10.76882,-2.16346,-6.072718,6.003563,-2.043965,15.70,2,RUN
1759224943.17906,14.403068,8.60521,-8.474426,-3.569823,12.156595,-2.658863,15.72,2,RUN
1759224943.19998,10.17835,11.297938,-40.271519,1.273949,-1.017334,-0.96594,15.74,2,RUN
1759224943.21997,6.320243,3.457676,-1.166126,0.313216,-4.252611,-0.584333,15.76,2,RUN
1759224943.23992,5.500229,1.891419,-2.117971,0.428786,-1.680053,-0.343532,15.78,2,RUN
1759224943.25994,6.069002,0.924162,1.209371,0.307429,-0.590136,0.353587,15.80,2,RUN
1759224943.27992,3.800346,-1.988085,0.604237,0.174221,-0.174283,0.415793,15.82,2,RUN
1759224943.29921,3.405602,-5.394436,-5.752369,0.503512,2.645453,-0.090366,15.84,2,RUN
1759224943.32000,6.106561,-5.886743,-7.597251,1.613971,1.171546,0.669232,15.86,2,RUN
1759224943.33993,4.930858,0.87553,0.236278,2.114676,-2.509286,1.919475,15.88,2,RUN
1759224943.35999,7.228244,8.662521,0.695665,3.048132,-5.500584,3.058284,15.90,2,RUN
1759224943.37991,22.253955,30.916176,-0.009876,3.743556,-4.785241,6.651871,15.92,2,RUN
1759224943.39992,13.183073,38.729504,1.974767,2.740219,-1.509704,5.314023,15.94,2,RUN
1759224943.41998,2.909853,35.163789,1.724573,4.080894,2.61475,2.88032,15.96,2,RUN
1759224943.43999,-2.321927,32.991051,9.587281,3.188379,7.218638,0.791522,15.98,2,RUN
1759224943.45996,-5.43394,24.979155,11.604995,-1.35108,7.698288,0.408929,16.00,2,RUN
1759224943.47995,-4.640262,18.214787,7.654712,-3.828187,1.594307,0.546228,16.02,2,RUN
1759224943.50006,-2.502689,11.68146,4.5213,-4.04594,-4.594223,-0.459393,16.04,2,RUN
1759224943.51996,7.748684,6.625504,-17.260398,-0.750018,-2.732614,-0.970049,16.06,2,RUN
1759224943.53998,1.922694,6.071546,-4.83509,0.883888,-1.838193,-0.320046,16.08,2,RUN
1759224943.56000,-7.185897,2.219575,2.216432,0.489298,-0.515301,0.101623,16.10,2,RUN
1759224943.58011,-9.661651,-0.681001,2.692729,0.03353,-0.062546,0.290235,16.12,2,RUN
1759224943.59995,-9.207202,-5.375881,-3.06398,0.348763,-1.908463,0.739729,16.14,2,RUN
1759224943.62000,-12.434286,-8.226776,-3.534141,-0.047182,-1.640246,0.049443,16.16,2,RUN
1759224943.64000,-6.232705,-10.409839,-7.508665,0.186083,2.651764,-1.659299,16.18,2,RUN
1759224943.66004,2.463634,-0.63177,6.11105,-1.058063,3.976327,-2.1359,16.20,2,RUN
1759224943.67994,4.31495,5.513547,14.788684,-1.520433,2.221138,-0.899567,16.22,2,RUN
1759224943.70001,3.62108,6.627599,2.534562,0.219477,1.099602,0.190664,16.24,2,RUN
1759224943.71901,7.514202,33.912969,-38.971917,0.25505,8.049925,1.398721,16.26,2,RUN
1759224943.74002,4.856488,9.382128,10.26918,1.042483,2.070007,1.937609,16.28,2,RUN
1759224943.76000,-0.75567,39.563434,5.398775,2.086519,-1.305611,0.120475,16.30,2,RUN
1759224943.78009,-4.015525,6.52001,3.231574,0.132681,0.386265,-1.114658,16.32,2,RUN
1759224943.79999,-3.537283,9.518298,1.186327,0.422023,1.452166,-1.619919,16.34,2,RUN
1759224943.81916,-4.355352,16.383073,1.545906,1.040459,0.910756,-3.592204,16.36,2,RUN
1759224943.84000,0.999878,23.968203,2.422633,1.792358,-1.444925,-3.910324,16.38,2,RUN
1759224943.85996,5.732766,25.766698,7.063194,1.3503,-5.894635,-3.163454,16.40,2,RUN
1759224943.87993,10.031256,19.785533,11.471967,-0.720957,-8.880149,-1.942993,16.42,2,RUN
1759224943.90001,10.567408,14.358776,5.334132,-3.619737,-5.341866,-1.657423,16.44,2,RUN
1759224943.91930,15.661371,11.291205,3.219752,-4.907423,2.949179,-1.7368,16.46,2,RUN
1759224943.94000,13.681366,9.072378,0.07422,-4.111868,5.274529,-2.19208,16.48,2,RUN
1759224943.95946,8.009951,8.15899,-26.930579,-1.079741,10.280064,-1.527682,16.50,2,RUN
1759224943.97994,8.581866,5.263503,-14.280814,1.041551,-2.067207,-0.163855,16.52,2,RUN
1759224944.00002,6.227618,0.736666,2.381333,0.321042,-4.372253,0.136834,16.54,2,RUN
1759224944.01950,5.225046,-1.658284,-0.741155,0.375192,-2.629863,0.310878,16.56,2,RUN
1759224944.03998,4.157082,-4.38932,-1.887978,0.562691,0.212542,0.00182,16.58,2,RUN
1759224944.05995,4.307917,-4.531176,-3.031658,0.834475,2.371758,-0.286018,16.60,2,RUN
1759224944.07992,5.641936,-3.501969,-3.801394,1.122999,2.15262,0.389551,16.62,2,RUN
1759224944.09997,6.986729,0.624887,0.195277,1.607759,-1.131923,2.032384,16.64,2,RUN
1759224944.11966,8.164826,6.380547,0.704494,2.24022,-4.772092,3.520539,16.66,2,RUN
1759224944.14014,16.888549,21.492449,-0.585532,3.601221,-5.985881,6.637841,16.68,2,RUN
1759224944.16001,18.748095,44.022036,0.958578,3.752821,-3.997578,6.663157,16.70,2,RUN
1759224944.18000,0.133177,34.995746,3.182044,5.495082,2.20057,3.028872,16.72,2,RUN
1759224944.20000,-3.617788,35.676597,14.479084,3.173523,7.4248,0.596291,16.74,2,RUN
1759224944.22004,-6.881983,24.916606,15.898546,-2.323025,5.480223,0.34425,16.76,2,RUN
1759224944.24003,-4.386327,16.209493,8.884882,-4.566129,1.492373,0.890571,16.78,2,RUN
1759224944.25998,-2.75408,11.065402,2.214337,-5.04297,-1.487525,-0.256077,16.80,2,RUN
1759224944.27996,6.101773,7.900865,-20.276344,-1.767123,-1.077469,-0.6452,16.82,2,RUN
1759224944.29959,-0.571316,5.23163,-9.308506,0.436974,-2.451644,-0.627309,16.84,2,RUN
1759224944.32002,-5.086781,1.806575,-1.868674,0.610651,-2.450715,-0.762189,16.86,2,RUN
1759224944.33997,-6.543054,0.873884,1.162535,0.245486,-1.062907,-0.596325,16.88,2,RUN
1759224944.36000,-6.009446,-1.070507,-0.851588,0.262257,-0.580732,-0.061308,16.90,2,RUN
1759224944.37999,-7.096114,-3.419369,-2.473659,0.153575,0.12547,0.160328,16.92,2,RUN
1759224944.40003,-8.080431,-4.877737,-2.564639,-0.355837,2.615385,-0.959612,16.94,2,RUN
1759224944.42001,0.110433,-2.155679,1.92404,-0.689093,5.124526,-1.934526,16.96,2,RUN
1759224944.44001,3.610306,3.716998,7.574656,-0.548956,3.333741,-1.22764,16.98,2,RUN
1759224944.46005,3.333627,7.059154,4.034978,0.778607,-0.283945,-0.063674,17.00,2,RUN
1759224944.47998,6.056881,12.952481,3.013103,1.132862,-1.713724,1.432025,17.02,2,RUN
1759224944.49998,12.949189,35.370289,3.157653,-1.026726,1.64581,2.309502,17.04,2,RUN
1759224944.52000,4.647145,31.147666,-3.600281,-0.938328,6.321077,-0.620064,17.06,2,RUN
1759224944.54002,-0.934636,6.218939,-2.943671,0.18162,4.956241,-0.196225,17.08,2,RUN
1759224944.55995,-1.628955,4.078672,-0.32217,0.72117,0.377313,0.586313,17.10,2,RUN
1759224944.57994,-7.190835,9.939528,0.998831,2.101917,-1.620871,-2.553255,17.12,2,RUN
1759224944.60001,-2.099864,19.210924,2.131139,2.94088,-3.645026,-4.513631,17.14,2,RUN
1759224944.61996,5.114913,28.139351,8.630498,1.688873,-7.699873,-4.335812,17.16,2,RUN
1759224944.63957,8.589049,26.799347,14.795717,-2.165058,-10.310031,-2.303815,17.18,2,RUN
1759224944.65995,9.903017,18.018462,7.616853,-3.602094,-5.304434,-1.018626,17.20,2,RUN
1759224944.67943,11.257087,11.030536,4.093636,-4.491202,2.70604,-1.418106,17.22,2,RUN
1759224944.69996,10.726023,6.555773,-1.032799,-6.817755,10.226571,-2.507325,17.24,2,RUN
1759224944.73994,10.059089,2.947861,0.327257,0.832211,-3.306846,0.267619,17.28,2,RUN
1759224944.76001,6.212055,1.683273,1.389236,0.475368,-3.042256,0.542996,17.30,2,RUN
1759224944.78009,3.842544,-0.467917,1.375618,0.32983,-1.976106,0.728667,17.32,2,RUN
1759224944.79995,2.129044,-2.313098,-0.11582,0.328255,-1.160346,0.573354,17.34,2,RUN
1759224944.82002,0.868646,-3.105878,-4.374356,0.84556,1.381832,0.057126,17.36,2,RUN
1759224944.83965,1.618181,-3.456928,-5.417929,1.903965,2.702152,-0.009515,17.38,2,RUN
1759224944.86004,2.404377,-0.086191,0.698957,2.339145,0.472831,0.735797,17.40,2,RUN
1759224944.88000,5.727978,5.175366,1.061679,2.993629,-3.352067,1.561763,17.42,2,RUN
1759224944.90007,27.213693,35.098697,4.030489,2.857917,-5.252553,6.766248,17.44,2,RUN
1759224944.92002,12.294375,48.132581,-0.390853,2.686114,-2.115694,6.141247,17.46,2,RUN
1759224944.94004,-2.962226,34.122461,3.243545,4.145488,5.000716,2.937685,17.48,2,RUN
1759224944.96002,-5.856517,33.126025,13.951761,0.405733,8.254285,1.958859,17.50,2,RUN
1759224944.98008,-9.693374,23.515549,10.403105,-3.012471,4.232686,1.892371,17.52,2,RUN
1759224945.00002,-5.023933,11.436353,-0.82585,-2.739682,-0.041906,1.24695,17.54,2,RUN
1759224945.01999,0.942268,8.062474,-5.632659,-1.296636,-1.750269,-0.023918,17.56,2,RUN
1759224945.03992,2.082806,5.832724,-6.61503,-0.092286,-2.34866,-0.488357,17.58,2,RUN
1759224945.06000,-4.027945,3.466205,-2.441936,-0.106503,-2.229237,-1.069822,17.60,2,RUN
1759224945.07998,-5.314679,2.178574,0.276979,-0.364155,-1.111577,-1.239228,17.62,2,RUN
1759224945.10003,-5.364508,-0.531363,-0.166696,-0.305309,-0.035677,-0.903437,17.64,2,RUN
1759224945.12003,-5.460875,-3.213468,-5.224747,0.644539,-0.446562,-0.700113,17.66,2,RUN
1759224945.13950,-6.049699,-4.381688,-5.063886,1.162769,-0.669738,-0.693162,17.68,2,RUN
1759224945.15999,-2.970755,-4.67019,-0.563236,0.380527,1.591553,-1.049215,17.70,2,RUN
1759224945.18016,4.445883,-1.70542,5.235072,-0.611732,4.894463,-1.374154,17.72,2,RUN
1759224945.20002,2.932298,3.006968,9.904513,-1.038144,3.057421,-0.896165,17.74,2,RUN
1759224945.22004,2.010232,5.780052,3.496133,-0.226345,-0.099209,-0.16853,17.76,2,RUN
1759224945.24000,4.800075,18.037466,1.56925,0.52598,-2.0953,0.992105,17.78,2,RUN
1759224945.26015,9.924864,45.190556,-0.226402,-2.053609,3.37273,1.031535,17.80,2,RUN
1759224945.27999,1.375768,17.513884,-6.666206,-0.867964,8.660557,-0.010951,17.82,2,RUN
1759224945.30008,-2.252644,1.218649,-3.071162,0.207775,3.377899,1.093591,17.84,2,RUN
1759224945.31999,-4.938041,7.050026,-1.087267,1.586793,-1.088302,0.047652,17.86,2,RUN
1759224945.34000,-3.341557,11.719617,-0.507421,2.972173,-1.963494,-2.268352,17.88,2,RUN
1759224945.35996,-1.700931,19.950733,0.808492,4.403378,-3.747516,-4.442027,17.90,2,RUN
1759224945.38002,7.423372,31.147965,12.026823,2.580037,-7.97773,-4.191993,17.92,2,RUN
1759224945.39999,12.298266,21.925051,17.991228,-1.839884,-11.501985,-2.031662,17.94,2,RUN
1759224945.42010,8.264784,14.798261,9.020903,-4.601936,-6.462682,-1.261652,17.96,2,RUN
1759224945.43998,11.15264,9.656414,4.904672,-5.423736,3.227019,-1.749974,17.98,2,RUN
1759224945.46003,10.8595,8.898948,1.2387,-5.534667,6.27606,-2.46148,18.00,2,RUN
1759224945.47996,8.467693,9.879972,-20.64565,-3.136644,8.19425,-2.26077,18.02,2,RUN
1759224945.50003,7.97314,4.654627,-16.866103,1.227942,-2.06035,-0.62239,18.04,2,RUN
1759224945.51998,7.395988,0.4748,1.723825,0.23261,-3.918798,-0.071485,18.06,2,RUN
1759224945.53999,6.88318,1.427692,0.485125,0.093995,-3.682894,0.235704,18.08,2,RUN
1759224945.56003,7.750031,0.733673,-3.187281,0.359971,-0.437211,0.602549,18.10,2,RUN
1759224945.57998,9.102306,-1.333271,-6.662016,1.563308,3.173484,1.521583,18.12,2,RUN
1759224945.59997,5.156213,1.217452,-3.681085,1.69797,0.25569,2.519457,18.14,2,RUN
1759224945.61919,6.794146,8.947281,-0.373795,2.035238,-4.20439,3.049202,18.16,2,RUN
1759224945.63937,12.400019,18.335694,0.75163,3.741387,-7.361864,5.351729,18.18,2,RUN
1759224945.66015,15.290719,34.315344,-0.316184,4.565643,-5.515845,6.635223,18.20,2,RUN
1759224945.68004,3.719841,35.903298,3.187281,5.429605,0.625318,3.711385,18.22,2,RUN
1759224945.70003,-2.234987,34.964023,9.216479,5.607304,6.819923,0.705713,18.24,2,RUN
1759224945.72006,-3.910479,27.040862,15.704167,0.477474,8.14146,0.53955,18.26,2,RUN
1759224945.73914,-6.96189,16.725145,9.927557,-3.416273,3.926235,0.663054,18.28,2,RUN
1759224945.76004,-5.264251,10.65719,4.861726,-3.688085,0.027992,0.102446,18.30,2,RUN
1759224945.78001,5.247342,6.34628,-7.326107,-1.911149,-2.121422,0.045943,18.32,2,RUN
1759224945.80006,6.295703,6.106262,-8.24982,0.092089,-1.776598,-0.301601,18.34,2,RUN
1759224945.81999,-4.861277,3.993678,-1.149666,0.150085,-1.88678,-0.669741,18.36,2,RUN
1759224945.83934,-7.649175,1.705569,1.584213,-0.842783,-0.974479,-0.828684,18.38,2,RUN
1759224945.85998,-6.909067,-0.288801,-1.051055,-0.71704,-0.923937,-0.888202,18.40,2,RUN
1759224945.87997,-8.551639,-4.453065,-12.323255,1.442327,-2.998297,-1.200435,18.42,2,RUN
1759224945.89999,-5.629067,-7.290344,-7.233482,1.448463,-0.894139,-0.941451,18.44,2,RUN
1759224945.91998,2.986018,-7.442376,-3.423559,0.417817,4.410262,-0.864134,18.46,2,RUN
1759224945.93951,7.024588,0.619949,9.758616,-1.001804,7.391139,-0.073462,18.48,2,RUN
1759224945.95999,2.51466,4.159177,9.237877,-0.731865,5.241908,0.914061,18.50,2,RUN
1759224945.98004,1.433977,15.411775,2.967763,0.400502,3.127101,1.351965,18.52,2,RUN
1759224946.00004,7.718457,48.011076,-2.124405,-1.708182,4.086421,0.594629,18.54,2,RUN
1759224946.02008,-1.914015,24.818294,-8.086117,0.541609,3.548966,-0.873881,18.56,2,RUN
1759224946.03968,-1.871069,7.318925,-0.332495,2.245165,1.666292,-0.997626,18.58,2,RUN
1759224946.06004,-1.966537,5.235969,2.252644,3.017243,0.415047,-1.652292,18.60,2,RUN
1759224946.08003,-1.957559,9.871892,6.781427,2.908061,-3.263171,-2.739542,18.62,2,RUN
1759224946.10004,3.599981,21.166389,12.768427,1.027173,-8.850945,-2.991461,18.64,2,RUN
1759224946.12008,9.561843,28.818108,15.915755,-2.337574,-12.464036,-1.82707,18.66,2,RUN
1759224946.14006,6.729353,19.096152,9.757868,-4.289793,-8.378701,-1.814466,18.68,2,RUN
1759224946.16000,9.130587,12.796409,2.43221,-5.75069,5.092227,-2.604707,18.70,2,RUN
1759224946.18011,11.742512,12.722189,-0.507421,-5.008918,8.81964,-2.447652,18.72,2,RUN
1759224946.20007,9.70325,8.459463,-39.596205,-0.259968,5.382182,-1.915557,18.74,2,RUN
1759224946.22006,7.515399,8.017882,-7.56448,0.76378,-3.85912,-1.348152,18.76,2,RUN
1759224946.24006,8.015189,2.651279,-0.417938,-0.181894,-2.253996,-1.325156,18.78,2,RUN
1759224946.26019,9.735423,1.721431,-0.53271,0.060875,-0.842206,-0.308546,18.80,2,RUN
1759224946.28001,6.558766,-0.328604,0.289399,0.051854,-0.758444,0.22293,18.82,2,RUN
1759224946.30001,3.750517,-3.294272,-2.101361,0.035499,0.358787,-0.070499,18.84,2,RUN
1759224946.31997,10.205135,-6.754941,-12.072463,1.898682,1.842322,0.522576,18.86,2,RUN
1759224946.33998,5.395483,4.650737,-1.735347,2.394922,-3.735245,2.428559,18.88,2,RUN
1759224946.36005,11.224915,18.904616,0.676512,3.450834,-6.293931,4.14344,18.90,2,RUN
1759224946.37998,16.473305,34.873193,-0.285957,4.067248,-4.084844,6.924877,18.92,2,RUN
1759224946.40004,3.455432,33.990182,1.220893,5.119896,0.465288,4.753363,18.94,2,RUN
1759224946.41999,-3.838205,33.198,6.55278,5.90951,6.186912,1.435085,18.96,2,RUN
1759224946.43998,-5.434389,31.907376,16.503681,0.863656,8.03629,0.132242,18.98,2,RUN
1759224946.45912,-7.51914,26.119842,13.715483,-1.568732,6.883509,0.116593,19.00,2,RUN
1759224946.47998,-3.784634,13.714436,6.289568,-3.336382,-0.271387,0.626738,19.02,2,RUN
1759224946.50003,5.425411,9.14585,-3.619285,-2.643211,-1.852202,0.511691,19.04,2,RUN
1759224946.52000,9.225308,7.229292,-9.731981,-0.012889,-1.599858,0.228201,19.06,2,RUN
1759224946.54004,-2.501342,6.189909,-1.369633,0.198507,-2.601785,-0.206427,19.08,2,RUN
1759224946.55933,-7.431752,2.617311,2.462736,-0.711926,-1.838215,-0.45224,19.10,2,RUN
1759224946.58010,-7.495048,-0.800561,1.766921,-0.982436,-1.247928,-0.080985,19.12,2,RUN
1759224946.60000,-8.008754,-4.068946,-6.329671,0.227713,-2.680893,-0.116667,19.14,2,RUN
1759224946.62007,-9.404873,-8.061127,-8.890569,0.879161,-2.668243,-0.460082,19.16,2,RUN
1759224946.63999,-3.642778,-11.225364,-12.074558,1.062351,1.536782,-1.00493,19.18,2,RUN
1759224946.65950,-0.021249,1.34614,11.240926,-0.843358,4.711461,-1.215265,19.20,2,RUN
1759224946.67999,2.825906,4.86008,12.759299,-1.058171,3.659477,-0.256858,19.22,2,RUN
1759224946.70019,0.499939,4.685303,1.421408,0.309337,2.584024,-0.050565,19.24,2,RUN
1759224946.72006,7.619696,26.562919,-4.731242,0.618063,4.389321,1.571238,19.26,2,RUN
1759224946.74019,9.90182,46.862008,2.738667,-0.773643,4.102492,1.305441,19.28,2,RUN
1759224946.75963,1.332074,12.679093,-3.412785,0.171434,4.169216,-0.172061,19.30,2,RUN
1759224946.77998,-1.889923,1.645565,0.562637,1.396951,1.716088,0.152259,19.32,2,RUN
1759224946.79999,-8.344691,2.991106,4.651335,1.227523,-1.418831,-1.619649,19.34,2,RUN
1759224946.81999,-2.032827,10.41343,6.82557,0.691793,-4.456331,-2.938915,19.36,2,RUN
1759224946.84001,2.432808,22.492327,5.968894,0.904508,-6.482135,-3.645427,19.38,2,RUN
1759224946.85988,7.702446,29.095685,8.168418,-0.311842,-8.349373,-3.326331,19.40,2,RUN
1759224946.88000,7.197718,18.152388,8.06412,-2.6912,-9.261696,-2.582415,19.42,2,RUN
1759224946.90001,11.471817,14.762647,3.565266,-5.730438,-1.278738,-1.631716,19.44,2,RUN
1759224946.91973,14.225598,13.854646,0.352845,-5.160573,5.155241,-1.138645,19.46,2,RUN
1759224946.93957,10.610354,9.887155,-3.512294,-3.194272,8.414754,-1.02139,19.48,2,RUN
1759224946.95999,7.992743,11.596016,-40.696341,1.224147,4.088009,-0.696921,19.50,2,RUN
1759224946.98000,9.78196,4.179229,-3.752612,0.686298,-3.08627,0.004088,19.52,2,RUN
1759224946.99999,8.635137,1.231368,-1.412579,0.761972,-1.715545,0.919835,19.54,2,RUN
1759224947.02001,5.728127,-1.314417,-0.787992,1.207748,-0.301728,1.009677,19.56,2,RUN
1759224947.04003,4.71149,-3.273771,0.715866,1.053566,-0.11446,0.829614,19.58,2,RUN
1759224947.06003,3.702932,-4.094683,-2.033725,1.032753,0.722217,0.62045,19.60,2,RUN
1759224947.08004,4.718672,-1.344195,-3.803638,1.91973,0.100049,1.432609,19.62,2,RUN
1759224947.09995,7.029376,3.677344,-0.958279,1.782917,-2.803105,2.508648,19.64,2,RUN
1759224947.11999,15.115942,18.60579,-0.852934,2.629043,-4.253016,4.586579,19.66,2,RUN
1759224947.14001,22.213253,40.955513,1.079336,2.932019,-4.417124,6.453288,19.68,2,RUN
1759224947.15999,4.576217,28.91208,0.769137,4.331248,-2.275717,4.010292,19.70,2,RUN
1759224947.17999,0.552163,34.211795,10.592996,4.279565,3.494248,1.723777,19.72,2,RUN
1759224947.19999,-4.573075,26.958112,13.603255,0.060079,6.23597,0.51989,19.74,2,RUN
1759224947.22001,-4.561553,17.290027,9.927856,-3.148789,5.581275,0.65265,19.76,2,RUN
1759224947.24006,-1.917307,9.617508,1.885883,-3.398056,1.655223,0.449856,19.78,2,RUN
1759224947.26009,7.510611,7.041646,-10.311378,-0.656904,-1.928874,0.096463,19.80,2,RUN
1759224947.28000,0.678158,6.438607,-3.62138,0.027152,-2.539778,-0.422175,19.82,2,RUN
1759224947.30000,-7.581688,4.385579,0.267402,-0.740106,-2.098142,-1.136954,19.84,2,RUN
1759224947.32001,-9.440337,2.123507,0.11971,-1.249985,-0.702381,-1.217962,19.86,2,RUN
1759224947.34006,-8.887576,-2.842217,-6.440253,0.122058,-1.978937,-1.047159,19.88,2,RUN
1759224947.36000,-7.406762,-4.129699,-6.25545,1.319249,-2.563997,-1.147007,19.90,2,RUN
1759224947.37999,-1.640627,-6.02037,-4.296694,0.883341,-0.277386,-0.837237,19.92,2,RUN
1759224947.39999,7.968053,-4.522348,2.814683,-0.317924,5.86379,-0.469243,19.94,2,RUN
1759224947.42001,5.662586,2.444031,9.244312,-0.977521,6.996495,-0.224202,19.96,2,RUN
1759224947.44000,-0.827646,4.383185,3.293374,-0.435966,5.009354,-0.234634,19.98,2,RUN
1759224947.46002,-0.591368,19.994577,-3.166332,0.592649,2.459504,0.314115,20.00,2,RUN
1759224947.48001,5.938817,35.19671,3.44795,0.436227,-0.521405,0.876868,20.02,2,RUN
1759224947.50007,2.94397,26.954222,-3.665972,0.111082,2.285387,-1.057458,20.04,2,RUN
1759224947.52005,-1.366191,5.534347,0.43784,1.429066,3.130091,-1.233542,20.06,2,RUN
1759224947.54006,-3.295768,3.74513,4.430171,1.504208,0.765435,-1.782879,20.08,2,RUN
1759224947.55905,-0.16101,8.176498,7.041497,1.101883,-3.505877,-2.254319,20.10,2,RUN
1759224947.58011,4.497807,18.852842,8.481759,0.774795,-6.29536,-2.41372,20.12,2,RUN
1759224947.60007,10.490643,28.337322,8.917803,-0.455242,-7.651311,-1.808389,20.14,2,RUN
1759224947.62002,9.301025,20.26976,6.996157,-2.431558,-7.833867,-1.615659,20.16,2,RUN
1759224947.64006,10.510695,14.663288,1.974468,-4.755177,-0.662019,-1.949703,20.18,2,RUN
1759224947.65940,13.408128,11.23958,2.404078,-4.571115,3.781718,-2.038852,20.20,2,RUN
1759224947.68006,8.120234,6.825869,-8.91885,-2.291216,8.699717,-2.222214,20.22,2,RUN
1759224947.70008,8.103624,8.166622,-28.744935,1.262559,1.210655,-0.621225,20.24,2,RUN
1759224947.72000,6.942736,2.752284,-1.5483,0.364074,-3.460781,-0.27579,20.26,2,RUN
1759224947.74021,6.195146,0.378583,-1.856703,0.256964,-1.687642,-0.036592,20.28,2,RUN
1759224947.75944,4.484489,-0.426916,-1.555333,0.462885,0.089084,0.22398,20.30,2,RUN
1759224947.78002,3.873818,-2.19683,-1.216703,0.411419,0.858571,0.15052,20.32,2,RUN
1759224947.80007,5.14918,-5.130475,-6.63957,1.161825,1.321369,0.135966,20.34,2,RUN
1759224947.82005,6.629993,-2.579752,-2.732383,2.208207,-0.799431,1.395278,20.36,2,RUN
1759224947.84006,5.564274,2.589479,0.899921,2.449273,-3.723412,2.22741,20.38,2,RUN
1759224947.85966,14.342315,18.964471,2.345121,2.776809,-6.949302,4.016014,20.40,2,RUN
1759224947.88004,27.197682,43.333404,-0.749834,2.138388,-2.708884,6.758538,20.42,2,RUN
1759224947.90022,2.761562,34.122761,-1.535282,4.234179,3.094229,4.04781,20.44,2,RUN
1759224947.92005,-3.599682,32.233736,7.03611,4.363693,7.453416,1.404159,20.46,2,RUN
1759224947.94005,-8.121132,25.998636,16.334441,-1.484395,6.671991,0.496655,20.48,2,RUN
1759224947.95982,-6.353164,19.330335,6.864176,-3.554163,2.878662,0.768063,20.50,2,RUN
1759224947.98004,-1.824382,12.508058,0.583437,-2.857627,-2.391712,0.026608,20.52,2,RUN
1759224948.00007,8.966435,9.858574,-9.312846,-0.739686,-3.159941,0.013157,20.54,2,RUN
1759224948.02008,3.89791,7.198766,-3.0969,0.173432,-2.38795,-0.480916,20.56,2,RUN
1759224948.04002,-4.241628,4.319738,0.266205,0.125318,-2.504172,-1.10907,20.58,2,RUN
1759224948.06002,-6.491279,1.513285,2.161814,-0.262292,-1.698791,-0.954808,20.60,2,RUN
1759224948.08000,-6.109703,-1.433379,-0.503531,0.118484,-1.225786,-0.180663,20.62,2,RUN
1759224948.10002,-7.9281,-4.61213,-6.673538,1.239389,-2.968782,-0.079777,20.64,2,RUN
1759224948.12002,-7.458686,-9.655366,-6.225074,0.706052,-0.945524,-0.228317,20.66,2,RUN
1759224948.14002,2.922871,-9.187599,0.146046,-0.793087,4.690109,-0.163095,20.68,2,RUN
1759224948.16008,2.778471,2.669834,8.721628,-1.754483,6.260172,-0.598475,20.70,2,RUN
1759224948.18002,-0.281618,3.469348,5.189432,-0.933886,4.491985,-0.814879,20.72,2,RUN
1759224948.20008,1.529745,13.120225,-6.284181,-0.084794,3.249472,-0.09983,20.74,2,RUN
1759224948.22008,16.060903,49.037141,9.596559,1.092065,-3.999483,3.100767,20.76,2,RUN
1759224948.24006,5.802647,32.513857,-5.493346,-0.05588,3.179076,-0.616593,20.78,2,RUN
1759224948.26020,-1.400458,2.182016,-0.836923,0.33569,3.702879,-1.62962,20.80,2,RUN
1759224948.28006,-3.855263,1.382502,2.674323,1.132029,1.136057,-1.441181,20.82,2,RUN
1759224948.30002,-4.603152,3.061436,2.67986,1.32649,-1.224896,-1.816605,20.84,2,RUN
1759224948.32009,-1.839495,14.492701,2.031779,1.756765,-3.710425,-2.589052,20.86,2,RUN
1759224948.34021,3.692757,27.972655,7.016657,0.921611,-7.160563,-2.782001,20.88,2,RUN
1759224948.36021,7.542783,26.09186,13.355006,-1.994478,-10.090433,-2.232681,20.90,2,RUN
1759224948.37919,7.373243,18.08131,6.46614,-3.646653,-6.347143,-1.665567,20.92,2,RUN
1759224948.40006,11.500697,12.571354,3.637541,-4.545712,3.520036,-1.656521,20.94,2,RUN
1759224948.42010,13.048249,10.215909,0.890942,-4.591558,8.517591,-1.482073,20.96,2,RUN
1759224948.44006,11.729643,9.436297,-16.633566,-1.603027,12.190373,-1.724115,20.98,2,RUN
1759224948.46024,12.835465,6.802376,-23.077111,1.286288,-2.889579,-0.614923,21.00,2,RUN
1759224948.48001,8.175151,1.543961,1.200243,0.317764,-3.369363,-0.230827,21.02,2,RUN
1759224948.50024,6.10297,1.308132,-0.188992,0.460081,-2.378401,0.255996,21.04,2,RUN
1759224948.52002,4.403984,-0.919074,0.779462,0.498125,-1.447617,0.370284,21.06,2,RUN
1759224948.54010,3.882348,-3.119645,-0.150236,0.421988,-0.63827,-0.053903,21.08,2,RUN
1759224948.56008,3.746776,-5.439028,-5.487959,0.487929,3.014001,-0.614473,21.10,2,RUN
1759224948.57954,4.149301,-1.146972,-4.665401,1.582996,1.819893,0.370895,21.12,2,RUN
1759224948.60002,5.686528,3.566762,-0.252738,1.83823,-1.971748,1.710785,21.14,2,RUN
1759224948.62003,15.424644,18.074577,1.893065,3.482397,-6.150729,5.166944,21.16,2,RUN
1759224948.64002,22.705561,41.316888,-1.471686,3.585019,-3.750377,8.399803,21.18,2,RUN
1759224948.66012,3.086126,35.121292,-0.243311,4.514636,2.022239,4.801221,21.20,2,RUN
1759224948.68003,-4.09603,32.380231,5.932981,3.981748,7.117454,1.618319,21.22,2,RUN
1759224948.70004,-4.662259,26.645519,11.099818,-0.915052,7.597123,1.332673,21.24,2,RUN
1759224948.72003,-7.070078,18.150892,6.303035,-2.89342,2.82629,0.884099,21.26,2,RUN
1759224948.74004,-5.527314,13.149853,2.671929,-2.515663,-1.084181,-0.017186,21.28,2,RUN
1759224948.76004,3.883245,8.863933,-3.053355,-1.586145,-2.927529,-0.839478,21.30,2,RUN
1759224948.77985,8.800636,6.162825,-7.633463,-0.142538,-1.096778,-0.678067,21.32,2,RUN
1759224948.80004,-2.957288,3.539229,-1.009306,-0.437955,-1.37517,-1.0193,21.34,2,RUN
1759224948.82003,-7.034613,2.409016,-0.010475,-1.237458,-0.684451,-0.88913,21.36,2,RUN
1759224948.84002,-9.799767,-1.092205,-7.682544,-0.148656,-2.230889,-1.054664,21.38,2,RUN
1759224948.86006,-9.350106,-1.683273,-7.240664,1.11554,-2.017539,-2.04946,21.40,2,RUN
1759224948.88008,-3.746327,-2.796577,-2.866159,0.757099,0.207677,-2.773516,21.42,2,RUN
1759224948.90010,3.223942,0.170138,3.807529,0.021303,2.40872,-2.586702,21.44,2,RUN
1759224948.92007,7.594408,3.220949,5.297022,-0.04725,2.886683,-0.948658,21.46,2,RUN
1759224948.94003,6.862979,4.608539,4.331859,0.264512,0.920696,0.834801,21.48,2,RUN
1759224948.96002,6.974309,9.485977,3.174113,0.732145,-0.687039,2.480294,21.50,2,RUN
1759224948.98004,8.298453,27.09922,2.356493,0.91867,-1.09098,3.271426,21.52,2,RUN
1759224949.00003,1.240945,27.540951,0.323816,-0.325535,3.742413,0.565152,21.54,2,RUN
1759224949.02005,-0.761206,10.330232,-1.136797,-0.001295,6.960047,-0.591922,21.56,2,RUN
1759224949.03935,-2.281076,5.493645,1.791461,-0.838219,5.516545,-0.729614,21.58,2,RUN
1759224949.05913,-6.193052,6.113893,1.753154,-1.038497,1.208041,-1.63674,21.60,2,RUN
1759224949.08002,-3.674351,12.786084,-1.391929,1.336167,-1.673155,-2.803339,21.62,2,RUN
1759224949.10003,0.179565,21.447258,0.444873,3.073749,-4.481353,-3.747915,21.64,2,RUN
1759224949.12002,3.418471,26.468797,6.177639,1.469182,-6.95989,-4.015683,21.66,2,RUN
1759224949.14003,6.522703,18.900576,8.802432,-1.475677,-8.748419,-2.957668,21.68,2,RUN
1759224949.16003,10.105776,16.319776,7.488315,-3.818614,-6.168957,-1.359914,21.70,2,RUN
1759224949.17976,12.912079,12.491747,3.811719,-4.873695,0.970164,-1.072558,21.72,2,RUN
1759224949.20007,13.176638,7.927202,-1.393276,-4.641087,6.630318,-1.953545,21.74,2,RUN
1759224949.22004,12.423662,8.633342,-31.575929,1.033684,11.521051,-1.389732,21.76,2,RUN
1759224949.24002,13.506589,2.63841,-8.226028,1.154885,-2.151139,0.716835,21.78,2,RUN
1759224949.26005,8.383297,0.804751,2.715923,0.007037,-4.089435,1.206924,21.80,2,RUN
1759224949.28010,6.929568,-0.20665,-3.513341,0.62827,-1.59802,1.528664,21.82,2,RUN
1759224949.30004,2.936189,-2.108693,-3.199402,1.140782,0.813327,1.304504,21.84,2,RUN
1759224949.32005,1.993472,-3.144634,-3.328389,1.147589,1.21684,1.418315,21.86,2,RUN
1759224949.34004,1.540669,-0.468665,-1.264138,1.50522,-1.079715,2.079597,21.88,2,RUN
1759224949.36003,3.874566,4.810101,0.582988,2.160243,-3.773044,2.718279,21.90,2,RUN
1759224949.38004,15.378257,20.749049,1.498621,2.881289,-6.220584,5.063289,21.92,2,RUN
1759224949.40010,22.325482,42.869079,-0.407762,2.135256,-3.141623,6.197113,21.94,2,RUN
1759224949.42010,2.740463,29.524846,0.492757,3.669533,0.89958,3.162866,21.96,2,RUN
1759224949.44009,-1.165976,28.147881,8.728062,3.789494,6.21043,1.348051,21.98,2,RUN
1759224949.46014,-5.910985,23.385215,13.812898,-0.746418,6.628593,1.030915,22.00,2,RUN
1759224949.48009,-5.150377,16.46268,7.728333,-2.951694,3.368679,1.122826,22.02,2,RUN
1759224949.50025,-2.015918,11.365126,-0.38397,-2.53581,0.275375,0.121963,22.04,2,RUN
1759224949.52012,5.031714,8.776395,-5.525069,-1.178128,-1.456362,-0.081981,22.06,2,RUN
1759224949.54026,3.735553,4.522348,-3.81097,-0.679614,-1.74813,-0.674959,22.08,2,RUN
1759224949.56010,-1.452532,3.109619,-1.506252,-0.714667,-0.925948,-1.002296,22.10,2,RUN
1759224949.57921,-6.095637,1.930475,-1.295712,-0.434941,-0.444664,-1.376169,22.12,2,RUN
1759224949.60004,-8.911368,-1.63509,-9.962273,1.088553,-2.129409,-1.969553,22.14,2,RUN
1759224949.62003,-3.124583,-0.767342,-5.734861,1.447668,-1.671186,-1.558465,22.16,2,RUN
1759224949.64011,2.339584,-1.354819,3.010709,0.125946,0.332741,-0.867823,22.18,2,RUN
1759224949.66012,5.931036,-0.775123,4.363433,-0.623927,3.810346,-0.427134,22.20,2,RUN
1759224949.67944,1.661576,3.039289,4.096928,-0.464179,4.495812,-0.364255,22.22,2,RUN
1759224949.70011,0.750133,6.311714,2.259229,0.301127,2.933538,0.269947,22.24,2,RUN
1759224949.72005,2.842516,13.42803,2.557007,-0.183382,0.204233,1.322916,22.26,2,RUN
1759224949.74008,5.309142,28.28869,2.070984,-0.716487,-0.152033,1.04626,22.28,2,RUN
1759224949.76011,3.8813,24.204331,-6.236297,-0.171195,4.244164,-0.559118,22.30,2,RUN
1759224949.77954,-1.372775,7.191883,-1.364994,1.153506,3.266216,-0.347769,22.32,2,RUN
1759224949.80004,-6.014983,5.89243,3.063082,1.063513,-0.427727,-1.410599,22.34,2,RUN
1759224949.82005,-3.879056,8.378808,2.957737,1.144275,-3.084133,-2.661862,22.36,2,RUN
1759224949.84003,-0.180463,17.128568,6.279991,0.788353,-6.365364,-3.21592,22.38,2,RUN
1759224949.86005,6.261286,24.680478,8.314165,-0.918323,-7.745872,-2.995239,22.40,2,RUN
1759224949.87973,6.995408,21.968446,8.449736,-1.654298,-7.179751,-2.785336,22.42,2,RUN
1759224949.90008,10.334721,16.869246,2.357391,-3.562621,-0.200581,-2.183727,22.44,2,RUN
1759224949.92007,13.53936,12.805537,1.000926,-3.829287,5.630808,-1.614627,22.46,2,RUN
1759224949.94011,12.684331,9.569025,-0.002095,-3.323487,6.628804,-1.757552,22.48,2,RUN
1759224949.96004,9.592818,8.008006,-31.602564,-0.37586,4.953818,-1.675877,22.50,2,RUN
1759224949.97990,10.402956,3.58008,-8.378658,0.642103,-3.573681,-0.488075,22.52,2,RUN
1759224949.99983,9.219023,0.566827,-0.881964,0.284638,-3.104768,0.142357,22.54,2,RUN
1759224950.01964,7.026683,-0.073023,-0.211438,0.423725,-1.685308,0.581328,22.56,2,RUN
1759224950.04008,5.381866,-1.736694,0.027982,0.488779,-0.584564,0.730181,22.58,2,RUN
1759224950.06005,6.818836,-3.96824,-6.713641,1.26598,2.619425,0.929383,22.60,2,RUN
1759224950.07958,6.192453,-1.593341,-5.865495,1.858588,0.695254,2.42029,22.62,2,RUN
1759224950.10005,4.402189,6.75539,-0.358382,1.843859,-4.306084,3.032833,22.64,2,RUN
1759224950.11934,12.582876,21.154268,1.281646,3.073728,-7.916868,4.892064,22.66,2,RUN
1759224950.13913,17.666215,32.996738,-0.080355,3.615948,-7.479838,6.047084,22.68,2,RUN
1759224950.16005,4.428974,30.591912,0.291943,4.451158,1.353539,3.730777,22.70,2,RUN
1759224950.18023,-0.497994,32.029929,7.488315,4.961979,7.446943,1.407052,22.72,2,RUN
1759224950.20012,-4.046201,25.804107,19.78688,-0.988613,7.032342,0.649968,22.74,2,RUN
1759224950.22011,-3.711761,18.64305,5.547066,-3.513915,4.482797,1.102383,22.76,2,RUN
1759224950.24013,1.553837,13.749002,-2.558504,-2.4456,0.937502,0.922065,22.78,2,RUN
1759224950.26025,7.417985,10.507553,-4.6452,-0.964071,-2.053982,0.263767,22.80,2,RUN
1759224950.28007,6.819883,7.397335,-1.764078,-0.525942,-2.036549,-0.250813,22.82,2,RUN
1759224950.30009,-0.411653,6.212504,0.586579,-0.80779,-2.008003,-0.591365,22.84,2,RUN
1759224950.32006,-6.300491,4.353407,-0.268599,-0.814044,-1.301507,-0.977094,22.86,2,RUN
1759224950.33941,-8.374319,0.422577,-1.480664,-0.334672,-0.733538,-1.043623,22.88,2,RUN
1759224950.36006,-8.051102,-4.372411,-8.235904,1.049624,-2.71321,-0.967204,22.90,2,RUN
1759224950.38023,-6.713341,-6.94109,-6.01214,1.27978,-2.505843,-0.591076,22.92,2,RUN
1759224950.40015,-1.487547,-8.330026,-5.264849,0.893234,2.076151,-0.691262,22.94,2,RUN
1759224950.42013,1.768716,1.949628,7.742699,-0.797322,5.897193,-0.521665,22.96,2,RUN
1759224950.44014,1.929128,5.177461,6.494122,-0.905395,5.80615,-0.157692,22.98,2,RUN
1759224950.46014,1.745672,10.597934,1.658882,0.461532,3.840923,0.360061,23.00,2,RUN
1759224950.48011,8.660426,34.434007,4.136881,1.363499,0.393261,1.369604,23.02,2,RUN
1759224950.49961,6.192752,29.097182,-0.700753,-0.498687,2.134341,-0.095835,23.04,2,RUN
1759224950.52008,0.82585,7.301717,-2.839523,-0.071049,3.01943,-0.6077,23.06,2,RUN
1759224950.54013,-2.029236,4.007145,0.924611,0.986388,1.673974,-0.711109,23.08,2,RUN
1759224950.56008,-5.809979,4.317643,3.510947,1.095366,-0.56195,-2.091038,23.10,2,RUN
1759224950.58012,-0.58209,14.838364,3.858256,1.602146,-3.531409,-2.964325,23.12,2,RUN
1759224950.59973,5.589713,27.422737,3.940407,2.044177,-5.854248,-3.201584,23.14,2,RUN
1759224950.62006,8.840141,24.80767,8.525453,0.10693,-6.837198,-2.551774,23.16,2,RUN
1759224950.64012,8.501511,15.172954,9.65402,-2.743832,-6.842585,-2.110487,23.18,2,RUN
1759224950.66007,12.607716,15.111902,3.561824,-4.989614,-2.36664,-1.624372,23.20,2,RUN
1759224950.68006,14.609568,11.240627,1.70512,-5.04474,2.79367,-1.833379,23.22,2,RUN
1759224950.70014,12.312631,7.106888,-8.590246,-2.872977,9.318225,-2.179179,23.24,2,RUN
1759224950.72006,8.213309,8.169615,-28.345402,0.776989,5.869253,-1.010275,23.26,2,RUN
1759224950.74010,8.691551,2.214936,-3.908085,0.353668,-3.606113,0.494188,23.28,2,RUN
1759224950.76007,6.880636,-0.970699,-2.751387,0.389976,-2.592218,0.855377,23.30,2,RUN
1759224950.78005,5.295675,-1.280748,-2.257882,1.006905,-0.768902,1.103791,23.32,2,RUN
1759224950.80012,3.435829,-2.655619,-0.447865,1.036763,-0.397981,1.027507,23.34,2,RUN
1759224950.82010,2.756175,-3.599981,-3.065476,1.401813,0.751549,0.743897,23.36,2,RUN
1759224950.84006,3.263447,-1.716792,-1.385046,1.842976,0.073454,1.140498,23.38,2,RUN
1759224950.86008,7.333889,3.876961,0.172682,1.290632,-2.831673,1.860133,23.40,2,RUN
1759224950.88011,18.929007,22.175245,-1.070657,2.698296,-5.040066,5.225865,23.42,2,RUN
1759224950.89929,22.029798,41.463233,-0.142455,2.897875,-3.416854,6.580109,23.44,2,RUN
1759224950.92007,3.694104,32.618454,1.113902,4.920527,2.086875,3.532357,23.46,2,RUN
1759224950.94008,-1.774852,31.765669,12.32146,3.274021,6.622255,1.334027,23.48,2,RUN
1759224950.96006,-6.006603,21.584327,13.406931,-1.691724,5.983091,0.835884,23.50,2,RUN
1759224950.98007,-4.588039,14.714763,6.854749,-3.291385,1.651918,0.932927,23.52,2,RUN
1759224951.00007,-1.133804,10.72737,-1.989432,-2.551353,-1.732499,0.081016,23.54,2,RUN
1759224951.02008,7.880814,9.78585,-9.984868,-0.464728,-2.386526,-0.009568,23.56,2,RUN
1759224951.04007,4.072687,6.461052,-3.298611,0.127852,-1.840709,-0.335918,23.58,2,RUN
1759224951.06019,-5.212925,3.859303,-0.159963,-0.248076,-1.112362,-0.889696,23.60,2,RUN
1759224951.08013,-8.863035,2.827702,-0.952593,-0.174781,-0.494141,-1.361544,23.62,2,RUN
1759224951.10007,-7.996933,-1.222689,-2.082806,0.440701,-0.694965,-1.349785,23.64,2,RUN
1759224951.12014,-5.947496,-4.382736,-3.383456,0.904579,-1.349781,-1.069705,23.66,2,RUN
1759224951.14008,-3.727473,-5.592107,-1.206378,0.38323,-0.022796,-0.916958,23.68,2,RUN
1759224951.16010,5.86355,-5.061342,1.192013,-0.189325,3.926217,-0.551334,23.70,2,RUN
1759224951.18024,5.383512,2.100613,6.815394,-0.701444,5.22872,-0.480585,23.72,2,RUN
1759224951.20011,0.266804,3.856311,2.941127,-0.370864,3.928654,-0.505705,23.74,2,RUN
1759224951.22018,2.513912,15.237597,0.417639,-0.229602,1.754025,0.623494,23.76,2,RUN
1759224951.24013,9.444976,34.038664,3.474884,-0.419035,-0.184375,1.852224,23.78,2,RUN
1759224951.26015,4.359542,30.997579,-8.24982,0.077508,4.629713,-0.249971,23.80,2,RUN
1759224951.28007,-2.899528,6.810456,-0.969053,1.100168,3.472674,-0.189199,23.82,2,RUN
1759224951.30024,-4.830152,8.95177,1.747618,1.577767,0.544435,-1.256928,23.84,2,RUN
1759224951.32012,-5.262605,10.779893,4.803068,1.895981,-3.178054,-3.096924,23.86,2,RUN
1759224951.34015,1.654842,18.767548,4.32318,2.30619,-6.098318,-3.686903,23.88,2,RUN
1759224951.36007,7.387309,24.794502,10.229526,0.652361,-7.342535,-3.252511,23.90,2,RUN
1759224951.38007,11.318738,21.04623,10.477026,-1.931688,-9.920394,-1.962147,23.92,2,RUN
1759224951.40009,10.28983,14.535348,5.742343,-3.946439,-5.568491,-1.574645,23.94,2,RUN
1759224951.42008,14.123845,8.970924,2.555511,-4.627683,4.254706,-2.251521,23.96,2,RUN
1759224951.44016,13.012785,7.459584,0.430358,-4.4147,6.209986,-2.381546,23.98,2,RUN
1759224951.46010,4.498256,6.339846,-32.381727,-1.061605,7.624287,-1.971138,24.00,2,RUN
1759224951.48011,7.58094,6.530784,-11.325472,0.957541,-3.090639,-0.480674,24.02,2,RUN
1759224951.49924,8.172158,0.823007,0.177021,0.3718,-2.706809,0.030778,24.04,2,RUN
1759224951.52010,6.935853,0.675464,-0.539294,0.465661,-1.320525,0.542134,24.06,2,RUN
1759224951.54009,5.319766,-0.538546,0.633266,0.339919,-0.841523,0.618195,24.08,2,RUN
1759224951.56007,6.437559,-2.627038,-2.947711,0.536189,1.628515,0.77079,24.10,2,RUN
1759224951.58007,7.763947,-4.191798,-11.430218,1.62721,2.780696,1.861845,24.12,2,RUN
1759224951.59934,3.324948,2.208352,-1.364545,2.35729,-1.64875,2.862058,24.14,2,RUN
1759224951.62010,10.020781,13.805416,2.331504,3.424628,-7.477668,4.249205,24.16,2,RUN
1759224951.64009,27.918337,37.475391,3.924246,2.356452,-5.369029,6.987407,24.18,2,RUN
1759224951.66008,9.331551,33.013347,2.79553,3.293341,-0.271883,4.023625,24.20,2,RUN
1759224951.68007,2.744653,32.396691,4.966322,4.745672,5.75563,2.197237,24.22,2,RUN
1759224951.69951,-0.742502,31.488391,10.131813,3.297169,7.377504,1.487814,24.24,2,RUN
1759224951.72002,-6.710349,20.490925,5.352088,-3.527757,4.200808,1.473765,24.26,2,RUN
1759224951.74007,-3.818752,15.214703,-6.02456,-2.057814,-0.730885,1.38308,24.28,2,RUN
1759224951.76009,0.960225,11.956045,-4.199729,-0.474299,-2.647483,-0.063115,24.30,2,RUN
1759224951.78006,5.457882,7.182755,-1.73415,-0.25082,-2.35232,-0.489123,24.32,2,RUN
1759224951.79969,-0.086042,3.507356,-0.174029,-0.678519,-0.814636,-0.80236,24.34,2,RUN
1759224951.82006,-6.682666,2.263867,0.773626,-1.096479,-0.150488,-1.388667,24.36,2,RUN
1759224951.84007,-10.09994,1.495329,-1.448791,-0.856963,0.295966,-1.58071,24.38,2,RUN
1759224951.86008,-10.357915,-1.985392,-8.003816,0.700755,-1.2147,-1.641636,24.40,2,RUN
1759224951.88007,-7.020996,-2.798373,-5.989395,1.242975,-1.101209,-1.913552,24.42,2,RUN
1759224951.89986,5.061492,-2.821866,-1.963694,0.3889,1.250189,-1.313118,24.44,2,RUN
1759224951.91980,13.678673,1.540968,8.726416,-1.008944,4.57005,0.058824,24.46,2,RUN
1759224951.93964,6.755839,4.293252,6.798036,-0.990844,3.877671,0.502212,24.48,2,RUN
1759224951.96008,0.501585,4.879982,-2.673874,-0.044912,3.527351,0.330204,24.50,2,RUN
1759224951.98008,1.947234,13.908666,-2.260126,0.851989,3.12742,1.019125,24.52,2,RUN
1759224952.00010,4.198083,29.74212,4.189254,0.773665,-0.20631,0.905356,24.54,2,RUN
1759224952.02007,-0.479289,22.535872,-0.863858,-0.156073,2.437953,-0.981824,24.56,2,RUN
1759224952.04009,-2.106897,5.884199,0.624587,0.795709,2.778451,-1.10308,24.58,2,RUN
1759224952.06009,-3.099444,8.805425,3.347992,1.201791,-0.603931,-1.930114,24.60,2,RUN
1759224952.08010,0.438887,15.623213,6.353613,0.725661,-4.51774,-2.65339,24.62,2,RUN
1759224952.10017,5.075857,21.970092,6.699724,0.154747,-6.871942,-2.774261,24.64,2,RUN
1759224952.11949,7.945757,21.15352,5.910536,-0.728339,-7.611969,-2.645718,24.66,2,RUN
1759224952.14008,9.520693,15.293113,5.073762,-2.235202,-6.435259,-2.176266,24.68,2,RUN
1759224952.16009,10.703578,12.248137,1.501763,-3.230406,0.216088,-2.351511,24.70,2,RUN
1759224952.18007,13.596073,11.721413,2.577508,-2.785338,3.881706,-1.982639,24.72,2,RUN
1759224952.20009,10.138397,8.382549,2.099416,-3.073355,4.531733,-1.545859,24.74,2,RUN
1759224952.22007,3.198055,6.117634,-21.028872,-1.601605,6.396999,-1.156505,24.76,2,RUN
1759224952.24009,6.89141,4.643404,-12.499079,0.814763,-2.010044,-0.167514,24.78,2,RUN
1759224952.26011,6.527043,1.419762,1.098639,0.181461,-2.816668,0.602444,24.80,2,RUN
1759224952.27953,4.343531,-0.286706,-1.422156,0.321852,-1.409013,0.702415,24.82,2,RUN
1759224952.29930,3.760243,-2.660108,-2.521843,0.498991,0.757432,0.335552,24.84,2,RUN
1759224952.31933,7.16809,-6.051195,-8.762479,1.164698,2.800977,0.190948,24.86,2,RUN
1759224952.34009,9.284714,-1.048211,-6.902483,2.136987,-0.389727,1.884664,24.88,2,RUN
1759224952.36008,3.748572,3.071461,-0.022745,2.86688,-3.205407,2.515331,24.90,2,RUN
1759224952.38008,3.584569,6.354062,0.960075,3.154096,-5.071177,2.606111,24.92,2,RUN
1759224952.40007,17.417667,22.442797,3.452738,2.920927,-6.360788,4.894616,24.94,2,RUN
1759224952.42011,23.63526,48.688036,2.157774,2.563385,-2.011941,6.04448,24.96,2,RUN
1759224952.44014,-0.518195,36.887315,4.886266,4.136233,6.149968,2.251499,24.98,2,RUN
1759224952.46016,-4.553472,24.732851,16.040253,0.54931,8.697807,0.845754,25.00,2,RUN
1759224952.48011,-5.172972,19.280057,7.530662,-3.834938,4.308676,1.713935,25.02,2,RUN
1759224952.50011,-1.220295,14.270789,-7.002591,-1.951771,1.608399,1.494069,25.04,2,RUN
1759224952.51976,1.622221,13.169606,-1.889025,-0.685088,-0.432955,0.129134,25.06,2,RUN
1759224952.54016,4.594623,9.461735,0.059705,-0.779364,-2.34229,-0.438048,25.08,2,RUN
1759224952.56013,2.848801,4.952705,-2.802712,-0.663446,-2.076653,-0.711857,25.10,2,RUN
1759224952.58008,-2.451064,2.90267,-0.963517,-0.712481,-1.488543,-1.083337,25.12,2,RUN
1759224952.60010,-6.308572,0.1031,-2.167201,-0.613086,-0.361903,-1.427352,25.14,2,RUN
1759224952.61985,-8.486098,-3.318064,-7.359477,0.542033,-0.756748,-1.905668,25.16,2,RUN
1759224952.64010,-5.374085,-2.929755,-2.925116,0.90525,-1.2965,-2.121339,25.18,2,RUN
1759224952.66010,1.931522,-1.803133,1.880047,-0.085608,-0.553686,-1.578994,25.20,2,RUN
1759224952.67945,8.575133,-0.046687,1.558775,-0.600611,3.126455,-0.858504,25.22,2,RUN
1759224952.69926,3.13386,4.313154,4.691289,-1.030032,3.972977,-0.704894,25.24,2,RUN
1759224952.72011,1.066018,6.682666,3.55928,-0.340233,2.346091,-0.258238,25.26,2,RUN
1759224952.74008,0.881665,10.922947,-1.97776,-0.434631,2.150811,0.546187,25.28,2,RUN
1759224952.76016,4.564695,23.439085,0.745644,-0.699907,2.252836,1.537026,25.30,2,RUN
1759224952.78008,3.543418,32.54588,-7.692121,0.429216,5.072434,0.629301,25.32,2,RUN
1759224952.80011,-4.190451,8.100332,-3.620183,1.172096,4.226117,0.552983,25.34,2,RUN
1759224952.82008,-8.886379,7.632715,2.426523,1.759967,0.293179,-1.148985,25.36,2,RUN
1759224952.84010,-5.412841,11.85055,4.149151,2.401013,-3.322531,-2.913284,25.38,2,RUN
1759224952.86010,0.402376,18.044499,10.76882,1.44003,-6.435058,-3.204032,25.40,2,RUN
1759224952.88010,5.042937,21.041741,11.436054,-0.462092,-8.599092,-3.170388,25.42,2,RUN
1759224952.90010,10.635343,22.963387,9.611373,-1.840073,-9.099408,-2.408356,25.44,2,RUN
1759224952.92016,13.902231,13.985879,5.714361,-2.986585,-3.037374,-1.69349,25.46,2,RUN
1759224952.94010,15.793351,11.187655,0.54513,-4.017787,5.549333,-2.161902,25.48,2,RUN
1759224952.96015,13.9977,11.292701,-0.180613,-3.593611,6.750372,-2.221961,25.50,2,RUN
1759224952.98011,7.377583,6.841731,-32.055367,-0.621154,6.588626,-1.613418,25.52,2,RUN
1759224953.00015,6.004508,6.295104,-10.040234,1.136667,-3.384474,-0.048328,25.54,2,RUN
1759224953.02011,6.385186,2.462586,0.627131,0.622692,-3.297519,0.300411,25.56,2,RUN
1759224953.04011,5.35119,1.444003,-0.542736,0.757772,-2.286112,0.635126,25.58,2,RUN
1759224953.06019,4.750246,-2.229151,0.504728,0.366814,-1.431691,0.577992,25.60,2,RUN
1759224953.08012,5.017498,-4.504541,-3.914969,0.415674,2.237422,0.369573,25.62,2,RUN
1759224953.10014,5.743241,-2.838027,-5.617396,1.578986,3.644125,1.244858,25.64,2,RUN
1759224953.12015,5.86325,1.732055,-1.720234,1.417272,-1.456403,2.235106,25.66,2,RUN
1759224953.14032,9.066093,14.334983,0.398335,2.700479,-5.911739,3.472867,25.68,2,RUN
1759224953.16012,22.181081,39.953539,0.163105,3.154275,-5.767511,7.139902,25.70,2,RUN
1759224953.18009,3.721338,33.371131,0.177321,4.277436,-1.389415,4.085673,25.72,2,RUN
1759224953.19934,-3.39827,29.487586,7.510012,4.579628,3.929717,0.921486,25.74,2,RUN
1759224953.22009,-2.58065,25.338884,17.79221,0.883592,6.439171,0.344361,25.76,2,RUN
1759224953.23995,-4.051588,18.64305,11.030386,-3.423702,4.11434,1.368712,25.78,2,RUN
1759224953.26010,-5.143493,16.381726,2.526631,-4.121897,0.945365,0.912691,25.80,2,RUN
1759224953.27958,6.809409,11.570129,-12.060791,-1.432472,-0.672817,0.799968,25.82,2,RUN
1759224953.30011,3.757849,8.009353,-5.266795,0.034774,-2.603179,-0.009617,25.84,2,RUN
1759224953.32010,-3.031807,5.59091,-0.403273,-0.070287,-2.556921,-0.514738,25.86,2,RUN
1759224953.34013,-7.340024,2.534711,2.220323,-0.81072,-1.24691,-0.561598,25.88,2,RUN
1759224953.36010,-8.714445,-0.457442,-1.33387,-0.638979,-0.579155,-0.64956,25.90,2,RUN
1759224953.38009,-7.585729,-4.595221,-6.624008,1.400636,-2.229519,-0.636841,25.92,2,RUN
1759224953.40010,-5.570409,-6.329671,-4.949563,1.105948,-1.00423,-0.829467,25.94,2,RUN
1759224953.41922,-1.974169,-6.512677,-4.387225,0.568857,0.921184,-0.875991,25.96,2,RUN
1759224953.44018,5.558438,1.002273,6.92433,-1.210399,6.825722,-0.51062,25.98,2,RUN
1759224953.46012,0.7847,4.100819,6.537817,-0.459983,4.881337,-0.43149,26.00,2,RUN
1759224953.48016,1.921796,11.15668,0.615759,0.573828,1.994235,0.407579,26.02,2,RUN
1759224953.50022,12.609063,36.397851,8.822184,0.683053,-2.775664,3.004665,26.04,2,RUN
1759224953.51940,11.096825,48.609177,5.059098,-0.219581,-0.721263,2.035138,26.06,2,RUN
1759224953.54011,-0.064195,2.849998,-1.588403,0.147819,5.090502,-0.632788,26.08,2,RUN
1759224953.55984,-2.167201,-0.73517,1.549647,0.503889,2.065976,0.017313,26.10,2,RUN
1759224953.58010,-5.597344,4.76925,1.305738,0.959623,-1.627047,-1.122349,26.12,2,RUN
1759224953.60011,-3.236512,17.539772,2.613271,2.069437,-5.000531,-3.29705,26.14,2,RUN
1759224953.61955,5.155464,31.082873,8.094197,0.976624,-6.349658,-3.699027,26.16,2,RUN
1759224953.64016,7.916428,23.517345,7.930344,-1.353088,-7.255713,-2.725416,26.18,2,RUN
1759224953.66012,4.904372,13.405285,5.1408,-2.896738,-7.474185,-2.56778,26.20,2,RUN
1759224953.68010,9.368511,12.599636,1.618929,-3.829994,-2.821763,-2.000896,26.22,2,RUN
1759224953.70013,11.306168,9.501988,0.401029,-3.546398,3.365752,-1.885359,26.24,2,RUN
1759224953.71973,10.294918,8.953117,-2.952051,-2.331413,5.912823,-1.719825,26.26,2,RUN
1759224953.74018,6.594679,10.856358,-14.855572,-1.164696,7.469232,-1.122387,26.28,2,RUN
1759224953.76012,5.845443,5.711368,-13.205668,0.019878,-1.463242,-1.031427,26.30,2,RUN
1759224953.78010,7.206996,2.694674,-3.342754,0.438714,-1.614437,-0.267466,26.32,2,RUN
1759224953.80012,5.535095,0.719158,-0.275184,0.59695,-1.312946,0.410558,26.34,2,RUN
1759224953.81991,4.287267,-1.055843,0.692972,0.429579,-1.246779,0.68036,26.36,2,RUN
1759224953.84014,5.327697,-3.838354,-3.387945,0.587792,0.638942,0.488157,26.38,2,RUN
1759224953.86012,7.014562,-6.241534,-6.623709,1.680233,1.325108,0.705666,26.40,2,RUN
1759224953.88017,5.317821,-2.486977,0.297031,2.172662,-1.193818,1.724453,26.42,2,RUN
1759224953.90012,5.313631,3.189077,0.765396,2.337771,-3.952554,2.056332,26.44,2,RUN
1759224953.92015,16.462231,20.476709,1.109862,2.903692,-6.059182,4.287,26.46,2,RUN
1759224953.94011,22.10312,48.625338,-0.150386,2.519454,-2.235448,6.18932,26.48,2,RUN
1759224953.96012,-1.779341,35.264944,5.955876,3.318386,3.80875,2.548652,26.50,2,RUN
1759224953.98010,-4.558261,26.919356,13.347375,0.661643,7.331513,0.461201,26.52,2,RUN
1759224954.00012,-5.456685,20.99655,11.366921,-3.372338,5.526577,1.252595,26.54,2,RUN
1759224954.02027,-5.298368,20.545393,1.501314,-3.621436,0.835906,1.913941,26.56,2,RUN
1759224954.04014,2.158971,14.363265,-11.302876,-1.017333,0.540929,1.109192,26.58,2,RUN
1759224954.05940,2.288707,8.900295,-3.700089,-0.201081,-1.763238,0.082134,26.60,2,RUN
1759224954.08011,1.856254,6.23076,-2.967763,0.059195,-2.172801,-0.483151,26.62,2,RUN
1759224954.10013,-3.246089,3.887884,-1.984045,0.119376,-1.1314,-1.005649,26.64,2,RUN
1759224954.12011,-6.37516,1.265186,-1.945139,0.186323,-0.435948,-1.225532,26.66,2,RUN
1759224954.13918,-7.116615,-2.471265,-5.481225,1.177549,-0.758853,-1.289387,26.68,2,RUN
1759224954.16013,-5.192126,-4.894646,-2.974197,1.513989,-0.452394,-0.915475,26.70,2,RUN
1759224954.18011,-3.070414,-6.290017,0.98701,0.444609,1.049054,-0.687742,26.72,2,RUN
1759224954.20012,3.316119,-4.702362,3.279009,-0.609693,4.698915,-0.467043,26.74,2,RUN
1759224954.22018,4.46773,1.16029,6.25545,-0.931977,6.68124,-0.415396,26.76,2,RUN
1759224954.24013,1.336413,4.237438,6.406435,-0.413253,3.045105,-0.281591,26.78,2,RUN
1759224954.26013,4.00924,13.366379,3.60881,0.43121,-1.198327,0.639026,26.80,2,RUN
1759224954.28011,10.820295,41.857379,-0.397288,-0.99802,0.658484,1.280193,26.82,2,RUN
1759224954.30022,3.772963,22.403742,-9.81488,-0.141161,5.044973,0.171022,26.84,2,RUN
1759224954.32015,-2.172439,5.070021,-1.44939,1.01987,2.001514,0.924137,26.86,2,RUN
1759224954.34013,-6.628347,3.077746,1.696591,1.433575,-0.7564,0.4147,26.88,2,RUN
1759224954.36014,-9.417742,5.806388,2.849399,1.690161,-1.552687,-1.955706,26.90,2,RUN
1759224954.38013,-4.131195,15.730952,4.350713,2.021491,-3.611888,-3.932356,26.92,2,RUN
1759224954.40011,4.630087,31.163078,8.113949,1.593002,-5.76021,-3.935106,26.94,2,RUN
1759224954.42011,9.068787,27.316793,12.218509,-0.89711,-7.973633,-2.565585,26.96,2,RUN
1759224954.44014,7.236923,14.919617,8.408436,-3.126768,-8.54487,-2.134921,26.98,2,RUN
1759224954.46013,10.291625,14.053066,3.073706,-4.960399,-1.94136,-2.416955,27.00,2,RUN
1759224954.48012,14.560936,9.89733,0.166696,-5.309161,4.339307,-2.595055,27.02,2,RUN
1759224954.50014,12.765285,7.896227,-8.477419,-2.671873,9.209168,-2.391127,27.04,2,RUN
1759224954.52012,7.238569,8.904784,-32.447568,0.622621,1.876346,-0.904905,27.06,2,RUN
1759224954.54014,9.224709,2.482787,-3.827131,0.322178,-4.179991,0.186125,27.08,2,RUN
1759224954.56013,8.440908,0.03711,-0.665887,0.244566,-3.022607,0.983869,27.10,2,RUN
1759224954.58013,4.721665,-0.064494,-0.756717,0.669064,-1.517508,1.310391,27.12,2,RUN
1759224954.60013,4.685004,-2.344372,-1.074847,0.727249,0.155052,1.279279,27.14,2,RUN
1759224954.61954,4.775235,-5.67321,-8.681375,1.576602,2.705056,1.228892,27.16,2,RUN
1759224954.64007,2.158971,-2.095076,-4.185663,2.11907,-0.077328,2.131132,27.18,2,RUN
1759224954.66025,3.796306,3.857209,-0.185251,2.395929,-3.483775,3.018168,27.20,2,RUN
1759224954.68013,17.262942,25.023148,1.175852,3.546634,-5.761009,6.451144,27.22,2,RUN
1759224954.70020,20.519206,48.758366,-0.802058,3.370716,-0.247495,7.538833,27.24,2,RUN
1759224954.72018,-2.123807,37.973086,1.777395,4.578346,5.531175,2.938004,27.26,2,RUN
1759224954.74017,-3.963601,27.683106,14.986056,1.692271,8.411012,1.013441,27.28,2,RUN
1759224954.76020,-5.044733,19.620034,8.535479,-2.528364,4.450163,1.802821,27.30,2,RUN
1759224954.78032,-0.961422,15.340697,-1.661127,-1.566962,0.30961,1.564022,27.32,2,RUN
1759224954.80014,3.840599,15.650148,-2.349011,-0.519143,-0.980131,0.606482,27.34,2,RUN
1759224954.82032,8.118738,11.230901,0.437091,-0.71241,-1.417665,0.427763,27.36,2,RUN
1759224954.84020,5.151125,5.557241,-0.806098,-0.253167,-2.198625,-0.533093,27.38,2,RUN
1759224954.86020,-0.633865,3.252673,-1.457171,-0.078394,-1.747817,-1.128847,27.40,2,RUN
1759224954.88019,-5.82225,2.476502,0.293888,0.049651,-0.985223,-1.301674,27.42,2,RUN
1759224954.90015,-6.627898,-0.616956,0.415993,0.189573,-0.409405,-0.892334,27.44,2,RUN
1759224954.92017,-5.675754,-3.389441,-2.442535,0.439766,-0.954723,-0.268935,27.46,2,RUN
1759224954.94017,-5.767033,-5.57864,-2.180968,0.026065,-0.776336,0.427,27.48,2,RUN
1759224954.96021,-4.871303,-10.796203,-5.007024,-0.006457,1.812082,0.31466,27.50,2,RUN
1759224954.98017,-0.144849,-4.817583,4.514417,-0.667766,4.485091,-0.912406,27.52,2,RUN
1759224955.00021,0.575057,3.366248,8.347983,-1.072233,4.409294,-1.091151,27.54,2,RUN
1759224955.02014,0.244209,2.398691,1.212214,-0.410397,3.447013,-0.989524,27.56,2,RUN
1759224955.04014,7.294983,20.251205,2.757671,0.466158,0.742258,0.389978,27.58,2,RUN
1759224955.06024,17.401955,52.320938,1.146224,0.314586,1.057314,1.6382,27.60,2,RUN
1759224955.08018,-0.324714,15.846473,-2.818873,0.594544,2.99892,-0.457689,27.62,2,RUN
1759224955.10022,-2.253991,4.699219,1.484255,1.213633,1.299662,-0.644635,27.64,2,RUN
1759224955.12014,-5.810578,3.297564,3.267786,0.931434,-0.853242,-1.970051,27.66,2,RUN
1759224955.14014,-1.627159,9.417293,3.574543,1.205353,-3.085344,-3.08163,27.68,2,RUN
1759224955.16020,6.885425,28.717551,7.685387,1.083964,-5.905778,-3.446371,27.70,2,RUN
1759224955.18015,10.433781,32.882714,10.300454,0.074584,-7.301115,-2.96826,27.72,2,RUN
1759224955.20015,9.438392,13.115287,6.969371,-3.034804,-7.545039,-2.370768,27.74,2,RUN
1759224955.22013,13.371167,11.61921,1.12707,-5.159194,-0.280974,-2.350493,27.76,2,RUN
1759224955.24015,14.572009,9.320926,0.261716,-4.702548,3.392168,-2.3017,27.78,2,RUN
1759224955.26018,7.099706,8.033893,-13.254899,-0.993204,7.723638,-2.164042,27.80,2,RUN
1759224955.28021,2.189797,8.199841,-19.257462,0.376028,0.875833,-0.83889,27.82,2,RUN
1759224955.30020,5.38441,1.315315,-1.812261,-0.402063,-3.532801,-0.185421,27.84,2,RUN
1759224955.32020,7.834277,-0.720355,-2.44867,-0.268463,-2.098348,0.479306,27.86,2,RUN
1759224955.34014,5.910685,-1.619677,-2.1473,0.17908,-0.334435,0.834812,27.88,2,RUN
1759224955.36016,5.890335,-4.646996,-8.61733,1.34227,2.370575,0.844554,27.90,2,RUN
1759224955.38017,9.926061,-4.663157,-9.528025,2.256645,1.137316,2.145648,27.92,2,RUN
1759224955.40016,3.210026,4.010737,-1.48635,2.728694,-2.221564,2.884161,27.94,2,RUN
1759224955.42032,4.295497,10.914567,1.852065,2.632605,-4.905572,2.804024,27.96,2,RUN
1759224955.43937,17.226879,25.537902,4.429722,2.930339,-6.567555,5.236698,27.98,2,RUN
1759224955.46023,18.318635,42.836757,0.997335,2.346335,-2.841553,5.652427,28.00,2,RUN
1759224955.48021,1.703026,29.059922,0.880767,4.610431,3.61618,3.103044,28.02,2,RUN
1759224955.50018,-2.660257,28.648568,10.630106,3.377258,7.319503,1.52748,28.04,2,RUN
1759224955.52020,-7.541735,21.556195,13.865271,-1.780693,5.064549,1.257121,28.06,2,RUN
1759224955.53968,-3.731513,17.109264,0.456395,-1.926751,2.325561,1.671558,28.08,2,RUN
1759224955.56022,1.570447,15.177742,-0.446369,-0.920501,0.907511,0.894283,28.10,2,RUN
1759224955.58032,5.053412,12.598588,4.423437,-1.465745,-1.214379,0.161934,28.12,2,RUN
1759224955.60015,7.499238,6.662315,-2.340931,-1.331938,-1.437523,-0.309709,28.14,2,RUN
1759224955.61934,-0.685789,4.438251,-2.790143,-1.197166,-1.411773,-1.080585,28.16,2,RUN
1759224955.63965,-7.033267,2.622399,-1.745223,-1.451212,-0.683877,-1.70521,28.18,2,RUN
1759224955.66020,-9.189395,0.30571,-6.091148,-0.322363,-1.198779,-2.058856,28.20,2,RUN
1759224955.68019,-8.510339,-2.550872,-7.612813,1.439178,-2.015804,-2.207531,28.22,2,RUN
1759224955.70028,-2.013673,-5.556194,-2.985719,1.115555,-0.797124,-1.661542,28.24,2,RUN
1759224955.72015,3.453636,-7.096713,0.764648,0.048384,2.894404,-0.702934,28.26,2,RUN
1759224955.73986,2.183063,-1.023072,5.087679,-0.533062,5.436102,-0.503363,28.28,2,RUN
1759224955.76016,0.345813,1.717241,6.496217,-0.283462,4.391245,-0.537524,28.30,2,RUN
1759224955.78018,-0.80924,3.401113,1.488745,0.423861,2.546386,-0.546665,28.32,2,RUN
1759224955.80018,1.097741,11.441441,-1.18932,-0.204819,0.844764,-0.172195,28.34,2,RUN
1759224955.82015,12.529306,40.99382,6.331017,-0.13036,-2.66849,1.717426,28.36,2,RUN
1759224955.84000,5.505766,27.015573,3.409942,-0.071145,0.996143,0.25608,28.38,2,RUN
1759224955.86016,2.227505,2.239327,-1.587206,-0.111023,4.772563,-0.804985,28.40,2,RUN
1759224955.88014,-0.445471,2.619855,0.609324,-0.298806,1.244925,-1.007503,28.42,2,RUN
1759224955.90017,-2.369362,7.820061,-0.23134,0.893422,-1.355416,-1.906279,28.44,2,RUN
1759224955.92016,-1.495478,15.09619,0.812831,2.055084,-2.210984,-2.931108,28.46,2,RUN
1759224955.94021,1.569399,24.804528,4.26961,1.99597,-3.699398,-3.398633,28.48,2,RUN
1759224955.96017,6.931812,24.884734,8.875455,0.351531,-6.629789,-2.66241,28.50,2,RUN
1759224955.98024,6.054038,16.036662,8.955811,-1.750885,-8.559488,-2.194532,28.52,2,RUN
1759224956.00015,9.921721,13.963583,4.641758,-2.585396,-4.152405,-1.49992,28.54,2,RUN
1759224956.02022,11.469722,8.449587,4.850353,-3.98748,4.267802,-1.853259,28.56,2,RUN
1759224956.04017,10.127772,8.979603,0.240468,-4.037733,6.626373,-2.204961,28.58,2,RUN
1759224956.06016,6.363938,9.123854,-31.693394,-0.647629,5.420466,-1.372375,28.60,2,RUN
1759224956.08019,8.288427,3.079542,-5.197812,0.434705,-3.357818,-0.539383,28.62,2,RUN
1759224956.10016,8.301595,0.561889,1.539172,-0.16434,-3.992202,0.136288,28.64,2,RUN
1759224956.12019,7.513454,-1.445799,-1.655142,0.115565,-1.632978,0.61597,28.66,2,RUN
1759224956.14018,5.788731,-3.502268,-2.725649,0.344397,0.760834,0.439818,28.68,2,RUN
1759224956.15935,8.734497,-5.091719,-6.335207,1.209472,1.366607,0.927603,28.70,2,RUN
1759224956.18033,8.744672,0.926855,-3.576937,1.791269,-1.768251,2.573289,28.72,2,RUN
1759224956.20019,6.820482,14.289344,-0.782006,2.33566,-4.994357,3.015029,28.74,2,RUN
1759224956.22022,15.850214,32.425122,-1.046865,3.605376,-5.365123,6.030868,28.76,2,RUN
1759224956.24022,6.759579,35.122938,0.291793,4.051538,-3.616693,5.169107,28.78,2,RUN
1759224956.25948,-0.791583,32.270546,2.401534,5.218731,3.321053,2.678935,28.80,2,RUN
1759224956.28016,-5.775563,30.830284,14.317326,3.106572,8.265203,0.138318,28.82,2,RUN
1759224956.30023,-5.994333,21.018547,10.823288,-1.544061,7.60575,-0.091166,28.84,2,RUN
1759224956.32016,-4.746804,18.827852,5.515792,-2.396915,2.747268,0.594984,28.86,2,RUN
1759224956.34038,-0.724396,11.843367,3.596689,-2.445793,-1.761658,0.413382,28.88,2,RUN
1759224956.35965,7.63062,6.606351,-8.496423,-1.27834,-2.798899,-0.24124,28.90,2,RUN
1759224956.38016,5.80968,5.628918,-7.038654,0.347023,-2.205376,-0.683616,28.92,2,RUN
1759224956.39951,-3.00607,4.068796,0.013617,0.41455,-1.926975,-1.085375,28.94,2,RUN
1759224956.41933,-5.5948,1.383849,3.070115,-0.192623,-0.597563,-0.908059,28.96,2,RUN
1759224956.44015,-5.403414,-1.677438,2.162862,-0.600779,-0.861579,-0.075865,28.98,2,RUN
1759224956.45983,-9.292346,-3.881599,-6.668151,0.377895,-4.518798,0.478727,29.00,2,RUN
1759224956.48015,-9.589675,-7.381623,-10.319757,0.933591,-4.648745,0.396632,29.02,2,RUN
1759224956.50017,3.184587,-9.411008,-9.829993,-0.051196,2.274643,-0.597536,29.04,2,RUN
1759224956.52021,10.593744,5.237765,15.960496,-2.067351,7.696249,-0.296226,29.06,2,RUN
1759224956.53991,4.008791,4.58325,11.170896,-0.744521,5.757166,0.404983,29.08,2,RUN
1759224956.55998,1.550994,5.650017,0.419434,1.418549,3.246268,0.616491,29.10,2,RUN
1759224956.58015,5.502175,27.511622,-0.914435,-1.278604,3.075624,0.947073,29.12,2,RUN
1759224956.59937,5.299416,35.77476,-5.556643,-0.958914,2.525846,0.342156,29.14,2,RUN
1759224956.62017,-0.812981,11.564443,-4.793491,0.936432,2.276236,0.366981,29.16,2,RUN
1759224956.64021,-3.428347,5.073613,1.08188,1.996236,0.018104,0.075014,29.18,2,RUN
1759224956.66018,-5.841553,12.63914,3.627964,2.234714,-1.948266,-2.525577,29.20,2,RUN
1759224956.68016,1.193061,20.580857,4.684106,1.856691,-3.74317,-3.58986,29.22,2,RUN
1759224956.70017,5.178359,22.291514,5.764639,0.595313,-4.365476,-3.119392,29.24,2,RUN
1759224956.72022,8.15091,23.030724,7.618948,-0.838574,-5.563884,-2.103545,29.26,2,RUN
1759224956.74020,6.060024,15.279795,7.922114,-2.436838,-8.016505,-1.880216,29.28,2,RUN
1759224956.76022,9.93055,12.617742,5.439925,-3.153603,-4.919901,-1.454597,29.30,2,RUN
1759224956.78025,13.079224,9.465327,3.24145,-3.803084,3.530251,-1.974662,29.32,2,RUN
1759224956.80017,11.580454,7.237522,0.352397,-4.726714,7.911656,-2.108576,29.34,2,RUN
1759224956.82023,4.058022,11.265766,-33.137397,-1.017527,7.135767,-1.466794,29.36,2,RUN
1759224956.84023,7.069778,5.905897,-9.807697,1.033437,-2.495339,-0.504337,29.38,2,RUN
1759224956.86018,8.163031,0.911742,2.374449,0.133198,-2.604773,0.047653,29.40,2,RUN
1759224956.88019,7.294384,-0.274136,1.012298,0.151173,-1.850996,0.513106,29.42,2,RUN
1759224956.90017,4.925771,-3.534739,0.975039,-0.061533,-0.851669,0.20309,29.44,2,RUN
1759224956.92016,10.696096,-5.911583,-10.821193,1.537111,3.629927,-0.044538,29.46,2,RUN
1759224956.93988,11.662605,-2.685995,-8.599972,2.101569,2.38703,1.037156,29.48,2,RUN
1759224956.96025,7.400926,9.4143,0.223708,2.423927,-4.730674,2.807418,29.50,2,RUN
1759224956.98022,17.163583,26.763434,1.207575,3.488063,-7.320411,5.800625,29.52,2,RUN
1759224957.00022,10.965294,39.847147,-1.092205,3.631475,-3.301124,5.989866,29.54,2,RUN
1759224957.02027,1.005116,33.826179,2.9935,4.748627,3.54688,3.364102,29.56,2,RUN
1759224957.04017,-4.409072,30.635456,11.839776,3.491873,7.531267,0.844247,29.58,2,RUN
1759224957.06018,-7.253982,24.867675,13.239187,-2.045657,6.595546,0.560385,29.60,2,RUN
1759224957.08023,-6.364835,18.278084,5.208885,-3.484857,1.861648,0.737715,29.62,2,RUN
1759224957.10017,-1.387889,15.177443,-1.682076,-2.545846,-1.424632,-0.038,29.64,2,RUN
1759224957.12017,9.316886,11.858331,-5.534496,-0.97341,-2.392551,0.166958,29.66,2,RUN
1759224957.14019,5.841403,6.6478,-0.749834,-0.500922,-1.86111,-0.755549,29.68,2,RUN
1759224957.16025,-3.16274,5.01256,0.577751,-0.752495,-1.397659,-1.129754,29.70,2,RUN
1759224957.18028,-8.275857,1.010952,-0.248099,-0.810217,-0.743804,-0.763065,29.72,2,RUN
1759224957.20025,-8.628404,-2.945916,-3.797952,0.203419,-2.307579,-0.305854,29.74,2,RUN
1759224957.22023,-7.397933,-4.258237,-6.149507,1.469915,-4.235266,0.120673,29.76,2,RUN
1759224957.24025,-8.132654,-4.966622,-3.669713,1.256836,-2.790716,-0.24161,29.78,2,RUN
1759224957.26020,-1.128118,-5.214721,-2.574066,0.349145,3.213966,-0.592587,29.80,2,RUN
1759224957.28020,1.875258,0.225803,7.456591,-1.185417,6.305091,-0.797978,29.82,2,RUN
1759224957.30023,-0.517746,2.626589,4.478653,-1.015414,6.140081,-0.666978,29.84,2,RUN
1759224957.32023,-1.722927,7.195175,-7.962067,0.397313,4.940289,-0.193194,29.86,2,RUN
1759224957.34037,8.282142,21.740099,7.045088,1.063037,0.190559,2.12552,29.88,2,RUN
1759224957.35939,5.927145,46.159909,5.313033,1.17642,-0.622776,1.672311,29.90,2,RUN
1759224957.38024,-1.23451,8.159439,0.268899,0.006056,3.352355,-1.276213,29.92,2,RUN
1759224957.40025,-0.221613,4.957195,1.935562,0.499758,3.321406,-2.045054,29.94,2,RUN
1759224957.42017,1.150564,6.762572,2.940379,0.718675,0.144378,-2.64514,29.96,2,RUN
1759224957.44017,4.918887,11.930457,3.808876,0.817534,-3.508958,-2.673743,29.98,2,RUN
1759224957.45953,11.59437,24.85735,5.737704,0.652708,-5.848495,-2.017209,30.00,2,RUN
1759224957.48018,14.710574,25.527128,8.937405,-0.896745,-6.656066,-1.745069,30.02,2,RUN
1759224957.50024,8.899846,12.256666,5.407155,-2.466252,-1.780868,-2.559399,30.04,2,RUN
1759224957.52024,11.54499,9.259874,6.70556,-2.544837,5.040724,-2.115634,30.06,2,RUN
1759224957.54035,8.981099,9.806201,5.209484,-3.606517,4.091649,-1.8839,30.08,2,RUN
1759224957.55977,4.070891,11.259182,-19.034502,-2.681944,-0.992367,-1.120749,30.10,2,RUN
1759224957.58020,4.699369,5.62817,-18.34572,1.22217,-1.986071,-0.765959,30.12,2,RUN
1759224957.60019,6.698378,1.474379,1.314566,0.927999,-0.007919,-0.605973,30.14,2,RUN
1759224957.62017,7.032369,1.152658,1.967585,0.600897,-0.149511,-0.102735,30.16,2,RUN
1759224957.64018,5.436035,-1.749563,1.011999,0.326667,-0.039532,0.165382,30.18,2,RUN
1759224957.66007,5.400571,-4.5421,-3.343203,0.574035,0.861113,-0.036471,30.20,2,RUN
1759224957.68017,7.571363,-5.532252,-8.193557,1.950524,0.047867,0.549262,30.22,2,RUN
1759224957.70037,6.406435,-0.325163,-0.509217,2.3719,-2.820812,1.741478,30.24,2,RUN
1759224957.72024,8.174253,10.950031,1.41617,2.301307,-5.438949,2.213279,30.26,2,RUN
1759224957.74025,25.374647,35.286642,2.370559,2.494439,-5.327816,6.907079,30.28,2,RUN
1759224957.76006,7.931392,34.888456,-0.182109,3.039086,-1.948156,5.10129,30.30,2,RUN
1759224957.78018,-2.244265,30.665234,3.561974,4.805158,5.618153,2.217364,30.32,2,RUN
1759224957.80020,-6.678177,27.596317,14.277822,1.254372,7.693684,0.638935,30.34,2,RUN
1759224957.82019,-6.710049,20.988619,9.52578,-2.582125,3.221965,1.129742,30.36,2,RUN
1759224957.84020,-4.856788,17.390583,2.147449,-2.264001,-0.222267,1.159448,30.38,2,RUN
1759224957.86021,5.779603,14.039,-7.516596,-0.825624,-0.326779,0.949874,30.40,2,RUN
1759224957.88024,5.210681,9.520094,-2.46902,-0.303386,-1.103384,0.198898,30.42,2,RUN
1759224957.90031,1.117943,4.896442,-0.989553,-0.240494,-1.603114,-0.572894,30.44,2,RUN
1759224957.92018,-5.621585,3.050662,0.340276,-0.554492,-1.288426,-1.121572,30.46,2,RUN
1759224957.94020,-8.718186,1.063474,0.788889,-0.918026,-0.508086,-1.119086,30.48,2,RUN
1759224957.96022,-7.728932,-1.746271,-2.334646,-0.573081,-0.434419,-0.567647,30.50,2,RUN
1759224957.98023,-8.387637,-4.455609,-8.608951,0.931855,-2.310451,-0.434923,30.52,2,RUN
1759224958.00019,-6.029647,-6.606351,-7.142801,0.906782,-1.626797,-0.816808,30.54,2,RUN
1759224958.02023,5.076605,-5.468357,-1.801487,-0.258707,3.820674,-1.249817,30.56,2,RUN
1759224958.04025,8.324789,1.818247,10.802039,-1.264425,6.341374,-0.775919,30.58,2,RUN
1759224958.06020,3.625121,4.336198,6.352416,-0.43416,4.139893,-0.181969,30.60,2,RUN
1759224958.08018,6.170007,20.82297,3.302652,0.980478,0.906198,1.173939,30.62,2,RUN
1759224958.10021,11.205612,41.622747,2.755576,-0.082904,1.642862,1.866044,30.64,2,RUN
1759224958.12019,1.405097,14.670471,-5.02498,-1.170354,5.718169,-0.345522,30.66,2,RUN
1759224958.14021,-1.748366,4.732289,-2.513762,-0.129435,3.660745,-0.008329,30.68,2,RUN
1759224958.16021,-5.168632,3.857209,1.336713,0.734633,-0.115205,-0.482839,30.70,2,RUN
1759224958.18021,-4.361637,10.248829,0.680103,1.948128,-2.674619,-2.340697,30.72,2,RUN
1759224958.20023,0.717812,20.154539,3.180697,2.842446,-4.842334,-3.537228,30.74,2,RUN
1759224958.22018,7.323713,26.019884,8.24578,1.496479,-5.076812,-3.313838,30.76,2,RUN
1759224958.24020,6.850709,19.602077,8.947281,-0.895718,-5.96933,-2.68314,30.78,2,RUN
1759224958.26022,7.055712,14.354436,7.323564,-3.046518,-6.969808,-2.237424,30.80,2,RUN
1759224958.27969,10.15366,15.743223,2.592172,-3.77545,-5.866016,-1.747788,30.82,2,RUN
1759224958.30020,13.062764,10.574291,1.68866,-4.223756,0.384235,-2.0511,30.84,2,RUN
1759224958.32018,11.593922,6.279093,-3.726725,-4.240386,8.09712,-2.138461,30.86,2,RUN
1759224958.34025,7.706786,10.356269,-28.287343,1.195045,10.293598,-1.588359,30.88,2,RUN
1759224958.36028,11.447576,3.787777,-7.293187,1.127986,-2.374256,0.022789,30.90,2,RUN
1759224958.38018,7.950246,0.467767,0.976385,0.442254,-2.858851,0.754292,30.92,2,RUN
1759224958.40020,5.174169,0.016011,-0.281468,0.616977,-1.74232,1.122218,30.94,2,RUN
1759224958.41969,4.310311,-1.828123,0.237924,0.745118,-1.201474,1.213794,30.96,2,RUN
1759224958.43948,4.227562,-3.122488,-4.088249,1.294344,0.893764,1.08618,30.98,2,RUN
1759224958.46020,5.591209,-2.540398,-6.324733,2.067063,0.998602,2.054826,31.00,2,RUN
1759224958.48025,3.990386,3.710115,0.065092,2.032429,-2.273787,2.82475,31.02,2,RUN
1759224958.50021,13.467983,21.710172,1.871817,2.642334,-6.233043,4.73103,31.04,2,RUN
1759224958.52025,22.045061,40.426095,-0.996586,2.433033,-4.633697,6.892785,31.06,2,RUN
1759224958.54019,3.561525,30.773572,-0.214281,3.709616,-0.266318,3.651157,31.08,2,RUN
1759224958.56020,0.28072,30.600441,8.590994,4.087957,5.529367,1.83927,31.10,2,RUN
1759224958.58020,-1.986888,26.126726,16.827497,-0.254821,6.875999,1.662193,31.12,2,RUN
1759224958.60021,-5.075109,19.515437,6.568043,-3.025145,3.805945,1.736869,31.14,2,RUN
1759224958.62019,0.795324,12.906543,-4.557512,-1.774947,-0.191144,0.945237,31.16,2,RUN
1759224958.64020,4.336198,10.202292,-2.660557,-0.857658,-2.079097,0.171402,31.18,2,RUN
1759224958.66019,1.037737,4.824616,-1.050306,0.018185,-2.239869,-0.935222,31.20,2,RUN
1759224958.68019,-5.498583,2.983475,1.682675,-0.47561,-1.430679,-1.717026,31.22,2,RUN
1759224958.70021,-7.007529,0.50802,0.61097,-0.990354,-0.792509,-1.470512,31.24,2,RUN
1759224958.72020,-7.338228,-3.770868,-7.401076,0.035833,-2.94584,-0.857196,31.26,2,RUN
1759224958.74024,-6.568792,-3.399766,-4.931457,0.546539,-3.085479,-0.711566,31.28,2,RUN
1759224958.76021,-5.415983,-5.698948,-5.750124,0.243104,-0.971552,-0.307635,31.30,2,RUN
1759224958.78021,2.794333,-6.509535,-6.034286,0.047721,4.258559,-0.529631,31.32,2,RUN
1759224958.80028,5.696704,0.9496,11.044153,-1.051467,7.141057,-0.825497,31.34,2,RUN
1759224958.82038,0.502333,3.986346,7.262362,-0.820591,5.638342,-0.731985,31.36,2,RUN
1759224958.84021,0.323367,5.825392,-0.678158,0.019948,3.198915,-0.333939,31.38,2,RUN
1759224958.86040,5.654655,24.655638,3.687071,0.29309,-0.496257,0.952043,31.40,2,RUN
1759224958.88019,6.632986,48.116271,-1.624765,0.046642,2.016263,0.312192,31.42,2,RUN
1759224958.90021,-1.481861,10.365696,-2.395249,0.736379,5.77702,-0.932656,31.44,2,RUN
1759224958.92025,-2.515408,6.507739,2.665495,1.531364,2.830905,-1.326019,31.46,2,RUN
1759224958.93997,-1.687912,10.60751,5.19018,1.474573,-3.0511,-2.515169,31.48,2,RUN
1759224958.96020,3.465308,17.170616,5.802647,1.040612,-7.045383,-2.757232,31.50,2,RUN
1759224958.98020,8.681674,25.354147,5.213973,0.034121,-7.718828,-2.316207,31.52,2,RUN
1759224959.00021,9.639355,21.85532,7.03207,-1.641349,-7.69031,-1.846185,31.54,2,RUN
1759224959.02020,9.655217,12.689269,7.87438,-3.297526,-4.278164,-2.068491,31.56,2,RUN
1759224959.04022,12.812421,10.622624,4.477905,-3.409246,5.068034,-2.415571,31.58,2,RUN
1759224959.06022,12.255918,8.994866,4.465036,-3.844146,6.488115,-2.202963,31.60,2,RUN
1759224959.08020,7.899668,8.295161,-3.874716,-4.638957,6.587686,-1.740271,31.62,2,RUN
1759224959.10022,10.086472,5.590012,-31.383345,1.69698,-2.533983,-0.683259,31.64,2,RUN
1759224959.12020,8.697386,1.892167,2.263568,0.852664,-2.52982,-0.056815,31.66,2,RUN
1759224959.13965,9.37734,1.366491,0.948852,0.76007,-1.886601,0.800964,31.68,2,RUN
1759224959.16027,6.955455,-1.4657,0.541838,0.73921,-0.409412,0.867927,31.70,2,RUN
1759224959.18031,4.547636,-2.588731,-1.202338,0.682665,0.893412,0.839725,31.72,2,RUN
1759224959.20024,2.720262,-4.45112,-4.725256,0.572747,2.203152,0.802993,31.74,2,RUN
1759224959.22027,4.044704,-0.6813,-5.391742,1.439795,0.072541,1.859081,31.76,2,RUN
1759224959.24022,6.023512,3.767276,0.518644,2.101681,-2.805745,3.122802,31.78,2,RUN
1759224959.26032,13.698724,16.299875,1.585261,3.445885,-6.638989,5.512753,31.80,2,RUN
1759224959.27944,28.082788,46.18819,0.000898,2.67145,-2.518368,7.500406,31.82,2,RUN
1759224959.30006,4.539107,34.908358,0.777068,3.827911,1.812759,3.775928,31.84,2,RUN
1759224959.32020,-0.620398,32.415246,9.582643,3.099222,6.687129,1.469244,31.86,2,RUN
1759224959.34022,-4.281281,23.452552,10.804284,-1.566245,5.936083,1.338309,31.88,2,RUN
1759224959.36022,-4.52983,15.013141,5.334281,-2.925865,1.201061,1.101527,31.90,2,RUN
1759224959.37959,0.108487,11.784261,-2.050933,-1.800643,-1.238489,0.225893,31.92,2,RUN
1759224959.40022,5.830629,10.633697,-3.718794,-0.747753,-1.748219,-0.359104,31.94,2,RUN
