SamplingTime, AccelerationX, AccelerationY, AccelerationZ, GyroX, GyroY, GyroZ, MagneticFieldX, MagneticFieldY, MagneticFieldZ, Latitude, Longitude
1759224746.525408, -0.215029, -3.057994, -7.072472, -0.053071, -0.337163, -0.452085, 75.044983, 166.407089, -588.057678, 13.726145, 100.771850
1759224746.545394, 0.356586, -3.963002, -6.546944, -0.325233, -0.213013, -0.371011, 74.778946, 166.399719, -588.505798, 13.726144, 100.771852
1759224746.565401, 0.874632, -4.017171, -7.256825, -0.660181, -0.159804, -0.199811, 74.581253, 166.376617, -587.829102, 13.726144, 100.771852
1759224746.585034, -0.067337, -3.165284, -8.096741, -0.711439, 0.062369, -0.263004, 74.494781, 166.987595, -587.480347, 13.726144, 100.771852
1759224746.605418, -2.705897, -3.286640, -8.148216, -0.416147, -0.186326, -0.455032, 74.365631, 166.612228, -586.957520, 13.726144, 100.771852
1759224746.625400, -0.233135, -2.483984, -8.141183, 0.148620, -0.698933, -0.521994, 73.821060, 166.480988, -586.331177, 13.726144, 100.771852
1759224746.645395, 0.314538, -2.376544, -7.671770, 0.400208, -1.686877, -0.374789, 72.767563, 166.270905, -586.090088, 13.726144, 100.771852
1759224746.665407, 0.279224, -2.604891, -7.464971, 0.633285, -2.586595, -0.303197, 71.625076, 165.651123, -584.916443, 13.726144, 100.771852
1759224746.685395, -0.082151, -2.108543, -8.513183, 0.907150, -2.919883, -0.146090, 70.749191, 165.247742, -583.524902, 13.726144, 100.771852
1759224746.705414, -1.724873, -2.382530, -9.529222, 1.238094, -2.778412, -0.140807, 69.834656, 164.657913, -581.832642, 13.726144, 100.771852
1759224746.725411, -2.659060, -3.321656, -9.509619, 1.454333, -2.415368, -0.403192, 68.557922, 163.935562, -580.524475, 13.726144, 100.771852
1759224746.745393, -2.304718, -4.161422, -7.868244, 1.086447, -2.084406, -0.829328, 67.775391, 163.010162, -579.790955, 13.726144, 100.771852
1759224746.764431, -1.526752, -3.912724, -6.610092, 0.135157, -2.161499, -0.950191, 66.802216, 162.163040, -578.516907, 13.726144, 100.771852
1759224746.784402, -1.167622, -2.531719, -5.865046, -0.855179, -3.350349, -0.458657, 65.752625, 161.986359, -576.141479, 13.726144, 100.771852
1759224746.805410, -2.599504, -1.892916, -6.668301, -1.328336, -4.773720, -0.113267, 65.067169, 161.748688, -572.253906, 13.726144, 100.771852
1759224746.825410, -5.333683, -2.387019, -7.566575, -1.445667, -5.374994, -0.164805, 64.733932, 161.787430, -567.190063, 13.726144, 100.771852
1759224746.845391, -7.959523, -2.751985, -8.195801, -1.630965, -5.139521, -0.244191, 65.047516, 161.580902, -562.078003, 13.726144, 100.771852
1759224746.865405, -7.879617, -2.004994, -9.097667, -1.535084, -4.227696, 0.022034, 65.097855, 161.407959, -558.142578, 13.726144, 100.771852
1759224746.885400, -6.491279, -3.753659, -9.408464, -0.212341, -1.914076, 0.047471, 65.338684, 161.432617, -556.372559, 13.726144, 100.771852
1759224746.905409, -5.469554, -4.022558, -7.394941, -0.179796, -0.772786, 0.197396, 65.529755, 161.387970, -554.934143, 13.726144, 100.771852
1759224746.925408, -6.043414, -2.695273, -5.201553, -0.878019, -0.799039, 0.112685, 65.820526, 161.601273, -554.046570, 13.726144, 100.771852
1759224746.945262, -6.695684, -1.878850, -5.332037, -1.520334, -0.935231, 0.320384, 66.294540, 161.425003, -552.758484, 13.726144, 100.771852
1759224746.964734, -6.313510, -1.781436, -5.418228, -1.802013, -0.840583, 0.788033, 66.705551, 161.672241, -551.461975, 13.726144, 100.771852
1759224746.985390, -5.855020, -2.427870, -3.774758, -2.363527, -1.120377, 1.282162, 67.541061, 161.806519, -550.417969, 13.726144, 100.771852
1759224747.005436, -4.871003, 0.455198, -5.522825, -2.759643, -1.022341, 1.873102, 68.544250, 162.087860, -548.110596, 13.726144, 100.771852
1759224747.025392, -6.961291, 0.871789, -8.098986, -2.100984, -1.381134, 2.013174, 69.525101, 162.547485, -546.617554, 13.726144, 100.771852
1759224747.045285, -8.661773, 0.866701, -7.874978, -1.186150, -1.767623, 1.999929, 71.256500, 163.203491, -544.485596, 13.726144, 100.771852
1759224747.065439, -9.441684, 0.918625, -5.437681, -0.709428, -2.458383, 2.018664, 73.156128, 164.324463, -542.784241, 13.726144, 100.771852
1759224747.085394, -8.700529, 1.365293, -2.656666, -0.895124, -2.930559, 2.152641, 75.266434, 165.239059, -540.932434, 13.726144, 100.771852
1759224747.105406, -8.061576, 1.862539, -1.733552, -1.398909, -2.720195, 2.263713, 77.856293, 165.811279, -539.129639, 13.726144, 100.771852
1759224747.125402, -7.279121, 2.987066, -1.977760, -1.899015, -2.192433, 2.332052, 79.966599, 165.798569, -537.214600, 13.726144, 100.771852
1759224747.145292, -7.348703, 3.762488, -2.584840, -2.246956, -1.897760, 2.351095, 82.433365, 165.799835, -535.159058, 13.726144, 100.771852
1759224747.164962, -7.404518, 4.588338, -3.152266, -2.380436, -1.796541, 2.194297, 84.453735, 165.226730, -532.557617, 13.726144, 100.771852
1759224747.185388, -6.179135, 5.741744, -4.193145, -2.204513, -1.728362, 2.139725, 86.697159, 164.634018, -531.313110, 13.726144, 100.771852
1759224747.205412, -6.073940, 5.799355, -4.624700, -1.796957, -1.144838, 1.987019, 88.727158, 163.842789, -529.497314, 13.726144, 100.771852
1759224747.225208, -6.531083, 5.997326, -4.409820, -1.561662, -0.330093, 1.679291, 90.290146, 162.844604, -528.802795, 13.726144, 100.771852
1759224747.245313, -7.269245, 6.366631, -3.838803, -1.848003, 0.403275, 1.269453, 90.799911, 161.749924, -527.456299, 13.726144, 100.771852
1759224747.265132, -7.572561, 6.681169, -2.755277, -1.991460, 0.687174, 0.984821, 90.956375, 160.974075, -527.117737, 13.726144, 100.771852
1759224747.285406, -7.110480, 7.554604, -3.213318, -1.951386, 0.304415, 0.843792, 90.908585, 159.121353, -526.246216, 13.726144, 100.771852
1759224747.305391, -5.343110, 7.805247, -3.528455, -1.943617, -0.020916, 0.906842, 91.220596, 157.932938, -525.934204, 13.726144, 100.771852
1759224747.325393, -4.010587, 7.830685, -4.016273, -2.054658, 0.301234, 1.315998, 91.819855, 156.528091, -524.888733, 13.726144, 100.771852
1759224747.345327, -7.957728, 7.167342, -9.211841, -2.456283, 2.416592, 1.719848, 90.427994, 155.019516, -524.700134, 13.726144, 100.771852
1759224747.365025, -10.365995, 6.973412, -2.082656, -2.761100, 0.660480, 1.554255, 90.174500, 154.235092, -524.636292, 13.726144, 100.771852
1759224747.385386, -6.129007, 8.145224, -5.807435, -2.068994, 0.581907, 1.188910, 89.238327, 152.121368, -524.123779, 13.726144, 100.771852
1759224747.405391, -2.686893, 12.563124, -5.308993, -1.189474, 1.970345, 1.382613, 88.334564, 151.932175, -524.466187, 13.726144, 100.771852
1759224747.425386, -6.136488, 14.240113, -4.842572, -1.001179, 2.160252, 1.896587, 87.146530, 151.820236, -525.164368, 13.726144, 100.771852
1759224747.445338, -8.885780, 11.806856, -3.974375, -0.885655, 2.299900, 1.411489, 85.930740, 151.796799, -525.449219, 13.726144, 100.771852
1759224747.465387, -7.647230, 12.651111, -3.105728, -0.140953, 1.058660, 1.504760, 85.683533, 152.084198, -525.310547, 13.726144, 100.771852
1759224747.485385, -7.632416, 14.771027, -2.314445, 0.876166, -0.147137, 1.902467, 86.542740, 153.569626, -525.107666, 13.726144, 100.771852
1759224747.504722, -10.680384, 14.621988, 0.139462, 0.808061, -1.251116, 2.168118, 87.732483, 155.116241, -526.004272, 13.726144, 100.771852
1759224747.525385, -14.750976, 12.480075, -1.349133, 0.655525, -2.137618, 1.365137, 90.121796, 156.274017, -525.223938, 13.726144, 100.771852
1759224747.545359, -12.440272, 11.681759, -1.902343, 0.814194, -1.854359, 0.566663, 91.517441, 157.141968, -524.999146, 13.726144, 100.771852
1759224747.565389, -10.917410, 10.311976, -2.675520, 0.780832, -1.012110, 0.016786, 92.516983, 157.638306, -524.922729, 13.726144, 100.771852
1759224747.585091, -9.146748, 9.868600, -2.270302, 1.003258, -0.782700, 0.091129, 93.303940, 158.527069, -524.805725, 13.726144, 100.771852
1759224747.605415, -8.754398, 8.680477, 0.097713, 0.884978, -1.208740, 0.127057, 94.228027, 159.268082, -525.292480, 13.726144, 100.771852
1759224747.625386, -11.062858, 6.429778, -1.436371, 0.447916, -0.463541, -0.278762, 94.554703, 159.823441, -524.970337, 13.726144, 100.771852
1759224747.645377, -10.786477, 7.063643, -0.046088, -0.167152, 0.023633, -0.914238, 94.049911, 159.561371, -525.216187, 13.726144, 100.771852
1759224747.665391, -6.401796, 9.608380, 1.291672, -0.354631, -0.622209, -0.765839, 93.831573, 159.214478, -524.456726, 13.726144, 100.771852
1759224747.685390, -11.293000, 1.971625, -0.508469, -0.704611, -2.250633, -0.537396, 95.110153, 158.496613, -524.375427, 13.726144, 100.771852
1759224747.705405, -6.695983, 6.295254, -0.207398, -0.846723, -1.569899, -0.897263, 96.225555, 157.998260, -524.257935, 13.726144, 100.771852
1759224747.725385, -6.266972, 4.588188, -0.190938, -0.944604, -0.725574, -0.921336, 96.889496, 157.053146, -523.232361, 13.726144, 100.771852
1759224747.745381, -6.208913, 6.156989, 1.003470, -1.080225, -0.455818, -0.700556, 96.853561, 156.043228, -523.236084, 13.726144, 100.771852
1759224747.765398, -6.605004, 6.873753, 1.991826, -1.552259, -0.650749, -0.489662, 97.271530, 154.682510, -522.030518, 13.726144, 100.771852
1759224747.784799, -6.389376, 8.026411, 2.593968, -2.112476, -1.147936, -0.273050, 98.120224, 152.957123, -521.650391, 13.726144, 100.771852
1759224747.805405, -6.514024, 8.382699, 1.930774, -2.353376, -1.710519, -0.141789, 99.362442, 150.953308, -521.212036, 13.726144, 100.771852
1759224747.825395, -5.111172, 9.069386, 2.133084, -2.393491, -1.869239, 0.028672, 101.006638, 149.020096, -520.996582, 13.726144, 100.771852
1759224747.845393, -5.877466, 5.031564, -7.876026, -0.957501, -1.485996, -0.126216, 102.253998, 148.042114, -520.884338, 13.726144, 100.771852
1759224747.865392, -4.391415, 3.750068, -5.611410, 0.547542, -1.275739, -0.039463, 103.383728, 148.410049, -520.062073, 13.726144, 100.771852
1759224747.885381, -3.843292, 4.527435, 1.129315, -0.200880, -1.443200, 0.398043, 104.658859, 148.213638, -520.681458, 13.726144, 100.771852
1759224747.905396, -5.381716, 4.817433, -0.782904, -0.458469, -0.673275, 0.248293, 105.240723, 148.132278, -520.847717, 13.726144, 100.771852
1759224747.925426, -4.199879, 4.220529, 0.118663, -0.324441, -0.137201, 0.219358, 105.570374, 147.504211, -520.703430, 13.726144, 100.771852
1759224747.944560, -4.231452, 3.372532, 0.435595, -0.296652, -0.011361, 0.256752, 105.562836, 147.436127, -520.638489, 13.726144, 100.771852
1759224747.965385, -5.276222, 2.813187, 0.776619, -0.177516, 0.854036, 0.239154, 104.756241, 147.062897, -520.103088, 13.726144, 100.771852
1759224747.985380, -7.199514, 2.452560, 0.202160, 0.559914, 1.372386, -0.030522, 103.852585, 147.504272, -520.326172, 13.726144, 100.771852
1759224748.005387, -8.275408, 4.074033, 1.970428, 0.606174, 1.261319, -0.223878, 102.801376, 148.133545, -520.628418, 13.726144, 100.771852
1759224748.024880, -8.834604, 4.681712, 2.225560, 0.508794, 1.264934, -0.341420, 101.555405, 148.477631, -520.449463, 13.726144, 100.771852
1759224748.045382, -8.822483, 4.995951, 0.956334, 0.524601, 1.423633, -0.576352, 100.513474, 148.949295, -520.373901, 13.726144, 100.771852
1759224748.065419, -8.890120, 4.993257, 0.240917, 0.659813, 1.369747, -0.765478, 98.903137, 149.315170, -520.607544, 13.726144, 100.771852
1759224748.085402, -7.338527, 6.849362, -0.254833, 0.775049, 1.275291, -0.779093, 97.819885, 150.042358, -520.793457, 13.726144, 100.771852
1759224748.105395, -6.885874, 7.397933, -0.314089, 0.786875, 1.203879, -0.680601, 96.739914, 150.826843, -521.262146, 13.726144, 100.771852
1759224748.125406, -7.724443, 6.691045, -0.719308, 0.843027, 1.090312, -0.676943, 95.672913, 151.187241, -521.691284, 13.726144, 100.771852
1759224748.145087, -8.217499, 6.309619, 0.150685, 0.614767, 0.854667, -0.843343, 94.798477, 151.543198, -521.309387, 13.726144, 100.771852
1759224748.165397, -7.681796, 6.857891, 0.440832, 0.389283, 0.420625, -0.806705, 94.460938, 151.901245, -521.536438, 13.726144, 100.771852
1759224748.185399, -5.445612, 8.011897, 2.411859, 0.019824, 0.236748, -0.540683, 94.033447, 151.654633, -521.183228, 13.726144, 100.771852
1759224748.205399, -6.731747, 6.710049, -0.760608, 0.062173, -0.010770, -0.404648, 93.869049, 151.818954, -522.025818, 13.726144, 100.771852
1759224748.225415, -7.845500, 4.646248, -1.345691, 0.190003, -0.106282, -0.636328, 93.853760, 151.803406, -522.195801, 13.726144, 100.771852
1759224748.245387, -6.053440, 5.561132, 0.598999, -0.086000, 0.377818, -0.741184, 93.718048, 151.691544, -521.614136, 13.726144, 100.771852
1759224748.265399, -7.239916, 7.278523, -0.696114, 0.145837, 0.543750, -0.728306, 93.338058, 151.437622, -522.078369, 13.726144, 100.771852
1759224748.285086, -7.026832, 6.113594, -0.245256, 0.233199, 0.174471, -0.302152, 92.749878, 151.582474, -521.462463, 13.726144, 100.771852
1759224748.305395, -7.110031, 5.866393, 0.147692, 0.063352, 0.015883, -0.083232, 92.787704, 151.632095, -522.383362, 13.726144, 100.771852
1759224748.325461, -7.996933, 7.133075, 0.181660, 0.099804, -0.046859, -0.227797, 92.530014, 151.723404, -522.727722, 13.726144, 100.771852
1759224748.345384, -6.582857, 8.489091, 1.053748, -0.046483, 0.032445, -0.270516, 92.834946, 151.656387, -521.819641, 13.726144, 100.771852
1759224748.365383, -7.927950, 8.278700, 0.020051, -0.189982, 0.078289, -0.146585, 92.809937, 151.195709, -522.003479, 13.726144, 100.771852
1759224748.385403, -9.600599, 8.561665, -0.839168, -0.287830, 0.063897, -0.230374, 92.891830, 150.880890, -521.282654, 13.726144, 100.771852
1759224748.405393, -8.859594, 9.315390, -0.774973, -0.298512, -0.052602, -0.224897, 92.725159, 150.671249, -521.609070, 13.726144, 100.771852
1759224748.425395, -8.169315, 9.167249, -0.316334, -0.256424, -0.452555, -0.047584, 93.061920, 150.700348, -521.605347, 13.726144, 100.771852
1759224748.445367, -7.674613, 8.665364, -0.077662, -0.225513, -0.750016, 0.116085, 93.903900, 150.062668, -520.946472, 13.726144, 100.771852
1759224748.465397, -7.442825, 8.430882, 0.520140, -0.344526, -1.119330, 0.194189, 94.578064, 149.842499, -521.243591, 13.726144, 100.771852
1759224748.485272, -7.930344, 7.960571, 0.981473, -0.498745, -1.043947, 0.015056, 95.339874, 149.410599, -520.107605, 13.726144, 100.771852
1759224748.505392, -7.778013, 6.821081, 1.144279, -0.728342, -0.270690, -0.307029, 95.601929, 148.809082, -520.729248, 13.726144, 100.771852
1759224748.525400, -7.195324, 5.655853, 0.745943, -0.711920, 0.008333, -0.293722, 95.834747, 148.203018, -520.873291, 13.726144, 100.771852
1759224748.545372, -8.164677, 5.437531, 0.924162, -0.588111, -0.296666, -0.207578, 95.930099, 147.585114, -520.589355, 13.726144, 100.771852
1759224748.565394, -8.403648, 5.321712, 0.923563, -0.581139, -0.508295, -0.237187, 96.425491, 147.266632, -521.024719, 13.726144, 100.771852
1759224748.585395, -8.150012, 4.784812, 0.410606, -0.525284, -0.369167, -0.300256, 96.573135, 146.684601, -519.832825, 13.726144, 100.771852
1759224748.604792, -7.896077, 4.315399, 0.671723, -0.414426, -0.170850, -0.364498, 96.642853, 146.321930, -520.537415, 13.726144, 100.771852
1759224748.625396, -7.583185, 4.121618, 1.847875, -0.398973, -0.156195, -0.274061, 96.810272, 146.049927, -520.461914, 13.726144, 100.771852
1759224748.645371, -7.975984, 4.045602, 0.831686, -0.257455, -0.232660, -0.261374, 97.094742, 145.759354, -520.033020, 13.726144, 100.771852
1759224748.665095, -7.463175, 3.361459, -0.314987, -0.057730, -0.157764, -0.277460, 97.312271, 145.636307, -520.529480, 13.726144, 100.771852
1759224748.684551, -7.282413, 4.091541, 0.572364, 0.036713, -0.009155, -0.228156, 97.114319, 145.516312, -519.763916, 13.726144, 100.771852
1759224748.705387, -8.532785, 4.953603, 1.194258, 0.055696, 0.207801, -0.328953, 97.058197, 145.716309, -520.227295, 13.726144, 100.771852
1759224748.725397, -8.644564, 4.734983, 0.922665, -0.011704, 0.392437, -0.355747, 96.671860, 145.837814, -520.688171, 13.726144, 100.771852
1759224748.745369, -8.650550, 4.246266, 0.204255, -0.004216, 0.697814, -0.340641, 95.798767, 145.467606, -520.623657, 13.726144, 100.771852
1759224748.765401, -8.159888, 4.810400, 0.131382, 0.051657, 0.678149, -0.327726, 95.292175, 145.691498, -520.886780, 13.726144, 100.771852
1759224748.785393, -7.808988, 5.840505, 1.099836, 0.096114, 0.519239, -0.309620, 94.695312, 145.540314, -520.005981, 13.726144, 100.771852
1759224748.805393, -7.418434, 5.657199, 0.814627, 0.072178, 0.474137, -0.245951, 94.159409, 145.608109, -520.724365, 13.726144, 100.771852
1759224748.825395, -7.921216, 4.335600, -0.196325, 0.224245, 0.497590, -0.252586, 93.758240, 145.696564, -520.922485, 13.726144, 100.771852
1759224748.845368, -8.667609, 3.741539, -0.556203, 0.495640, 0.451124, -0.332671, 93.440155, 146.011215, -521.168884, 13.726144, 100.771852
1759224748.865398, -7.960870, 3.442712, 0.614412, 0.605709, 0.268927, -0.286783, 93.368042, 146.528122, -521.440125, 13.726144, 100.771852
1759224748.885395, -7.723994, 2.854038, -0.075417, 0.786998, 0.206456, -0.030507, 92.966583, 147.006439, -520.909180, 13.726144, 100.771852
1759224748.905401, -8.405443, 1.909525, 0.173729, 0.855744, 0.135662, 0.065158, 92.983597, 147.920288, -521.421143, 13.726144, 100.771852
1759224748.925404, -9.274539, 2.019808, -1.320701, 1.014226, 0.330779, -0.101957, 92.543350, 148.752792, -521.722839, 13.726144, 100.771852
1759224748.945368, -7.502530, 1.717540, -1.384297, 1.339517, 0.818793, 0.110296, 92.104980, 149.820847, -522.228638, 13.726144, 100.771852
1759224748.965393, -5.335628, 3.188029, -0.131531, 1.283249, 1.610808, 0.830451, 90.873154, 151.173660, -522.677917, 13.726144, 100.771852
1759224748.984500, -4.984728, 7.099556, -2.441786, 1.381310, 1.950215, 1.782400, 89.822128, 152.480682, -522.826355, 13.726144, 100.771852
1759224749.005399, -5.405359, 9.851841, -0.103400, 0.477035, 1.929147, 2.768203, 88.718765, 153.702179, -523.879639, 13.726144, 100.771852
1759224749.025392, -7.032818, 11.473314, 3.107674, -0.069644, -0.077790, 2.765159, 89.232590, 154.531708, -524.344788, 13.726144, 100.771852
1759224749.045369, -10.811167, 13.349919, 0.040402, -1.471112, -1.109924, 2.187798, 90.865524, 154.230988, -523.424194, 13.726144, 100.771852
1759224749.065247, -7.495796, 7.916278, -3.831620, -1.792001, 0.397212, 2.088310, 90.963089, 153.091293, -523.967163, 13.726144, 100.771852
1759224749.084651, -5.794716, 4.875343, 0.464176, -1.459191, -0.020868, 1.790062, 90.913452, 152.253525, -523.299377, 13.726144, 100.771852
1759224749.105398, -6.064962, 3.801394, -2.772785, -0.852407, -1.446694, 1.177050, 92.696106, 152.080811, -522.279053, 13.726144, 100.771852
1759224749.125392, -6.798485, 10.571597, -3.463662, -0.646198, 0.223445, 1.858472, 93.265656, 151.849350, -521.965820, 13.726144, 100.771852
1759224749.145367, -6.911312, 9.906907, 1.888127, -0.713254, -0.702782, 2.742666, 94.127502, 151.619797, -522.147949, 13.726144, 100.771852
1759224749.164565, -5.739500, 6.650344, 3.437625, -0.617926, -2.639892, 2.930568, 96.226562, 151.724152, -522.739075, 13.726144, 100.771852
1759224749.185242, -3.634548, 2.600402, 2.649633, -0.371563, -3.995250, 2.684615, 100.044083, 151.534271, -522.021057, 13.726144, 100.771852
1759224749.205390, -3.342306, 3.438074, -0.668431, -0.012918, -3.236152, 2.434148, 103.179092, 151.626160, -522.158447, 13.726144, 100.771852
1759224749.225390, -3.195661, 5.430349, -2.293196, 0.666010, -1.284071, 2.454727, 105.662094, 152.183304, -522.037598, 13.726144, 100.771852
1759224749.245367, -2.893243, 6.227618, -0.416890, 1.205824, 0.316375, 2.581557, 105.937363, 152.864746, -522.567383, 13.726144, 100.771852
1759224749.265395, -2.082207, 5.868039, 0.512958, 1.349590, 1.323405, 2.676422, 105.517471, 153.809128, -523.275391, 13.726144, 100.771852
1759224749.285391, -0.640000, 5.734562, -1.953519, 1.527220, 2.661812, 3.065748, 104.345459, 154.822983, -522.962646, 13.726144, 100.771852
1759224749.305393, -0.253935, 5.724087, -1.155053, 0.836568, 3.639449, 3.595842, 102.265808, 155.637390, -523.794312, 13.726144, 100.771852
1759224749.325426, 0.224307, 4.707749, 0.967407, -0.695840, 2.988402, 3.901238, 100.781021, 155.337479, -523.500122, 13.726144, 100.771852
1759224749.345365, 1.537077, 14.256723, 0.549170, -1.501674, 1.662627, 4.807220, 100.998184, 154.479019, -522.129089, 13.726144, 100.771852
1759224749.365392, 7.398981, 38.855349, -0.382923, -0.779996, 1.276489, 8.003766, 99.441055, 153.683578, -523.080811, 13.726144, 100.771852
1759224749.385391, -5.880608, 29.499707, -3.186682, 3.462466, 4.816911, 2.981626, 95.851440, 155.704391, -526.091187, 13.726144, 100.771852
1759224749.404674, 1.403750, 4.450522, 3.232621, 0.498233, 1.331920, -1.396655, 96.607254, 156.974304, -525.220215, 13.726144, 100.771852
1759224749.425405, 3.457676, 5.927744, 2.434454, -0.556957, -1.082802, -0.947945, 97.143524, 156.588287, -524.247437, 13.726144, 100.771852
1759224749.445368, 2.331055, 8.251766, -0.156222, -0.400174, -0.820685, -0.335471, 97.517319, 155.865234, -524.221130, 13.726144, 100.771852
1759224749.465397, 1.556081, 9.502137, -0.605883, -0.020669, 0.059755, -0.170978, 97.567856, 156.036301, -524.107300, 13.726144, 100.771852
1759224749.485193, 1.589600, 10.413580, -0.339528, 0.027864, 0.147155, 0.015074, 97.286926, 155.893555, -523.782837, 13.726144, 100.771852
1759224749.505397, 1.170465, 8.860342, -0.619949, 0.054148, -0.142056, -0.091303, 97.066971, 156.063293, -524.498047, 13.726144, 100.771852
1759224749.525395, 2.212392, 9.604639, -0.182558, 0.028254, -0.241896, -0.221568, 97.162506, 156.006149, -524.731812, 13.726144, 100.771852
1759224749.545366, 2.375796, 9.647436, -0.124798, 0.081597, -0.222543, -0.424732, 97.265671, 155.937012, -524.333374, 13.726144, 100.771852
1759224749.565397, 3.132065, 9.365219, 0.283414, -0.125348, -0.354268, -0.294474, 97.429153, 156.054794, -524.758240, 13.726144, 100.771852
1759224749.585389, 3.449446, 9.653571, -0.130035, -0.253590, -0.421707, -0.129552, 97.712463, 155.540543, -523.992981, 13.726144, 100.771852
1759224749.605390, 3.203891, 9.794978, -0.842909, -0.244804, -0.329061, -0.006806, 97.989960, 155.407623, -524.161743, 13.726144, 100.771852
1759224749.625396, 2.419939, 9.958233, -1.142782, -0.157137, -0.503642, 0.092024, 98.354980, 155.503754, -524.153381, 13.726144, 100.771852
1759224749.645363, 1.674894, 9.859771, -1.103278, -0.035651, -0.611698, 0.124709, 98.965149, 155.377075, -524.088379, 13.726144, 100.771852
1759224749.665385, 1.033996, 9.617658, -0.749086, 0.004579, -0.325172, 0.085464, 99.540680, 155.336212, -524.214600, 13.726144, 100.771852
1759224749.685390, 0.523283, 9.579949, -0.395043, -0.068356, 0.060161, 0.040493, 99.498352, 154.994171, -523.072021, 13.726144, 100.771852
1759224749.705390, 0.171934, 9.878626, -0.376339, -0.135959, 0.119431, 0.013304, 99.515930, 155.063828, -523.499634, 13.726144, 100.771852
1759224749.725392, 0.068534, 9.954941, -0.401178, -0.157284, -0.071627, -0.014012, 99.516571, 154.917633, -523.587402, 13.726144, 100.771852
1759224749.745360, 0.082301, 9.840468, -0.581342, -0.118963, -0.243666, -0.044192, 99.586060, 154.901627, -523.537903, 13.726144, 100.771852
1759224749.765420, 0.330400, 9.843610, -0.761805, -0.078036, -0.169662, -0.073316, 99.617599, 154.732544, -523.273804, 13.726144, 100.771852
1759224749.785386, 0.739359, 9.976489, -0.803554, -0.055177, 0.074743, -0.077809, 100.069519, 154.395294, -522.617249, 13.726144, 100.771852
1759224749.805387, 1.174506, 9.791088, -0.756867, -0.050452, 0.338473, -0.055891, 99.677170, 154.568344, -523.444519, 13.726144, 100.771852
1759224749.825391, 1.352724, 9.606285, -0.700304, 0.015210, 0.541731, 0.008737, 99.301041, 154.545837, -523.664368, 13.726144, 100.771852
1759224749.845359, 1.233762, 9.851990, -0.488567, 0.102276, 0.637364, 0.100993, 98.988861, 154.638138, -524.076904, 13.726144, 100.771852
1759224749.865384, 0.755071, 9.692477, -0.137367, 0.175300, 0.693955, 0.122260, 98.493073, 154.627167, -524.086243, 13.726144, 100.771852
1759224749.885370, 0.689231, 9.829844, 0.147393, 0.155136, 0.809121, 0.096610, 97.710617, 154.745468, -523.365479, 13.726144, 100.771852
1759224749.905327, 1.009455, 9.374347, 0.582240, 0.046404, 0.801396, 0.030285, 96.958344, 154.885086, -523.858032, 13.726144, 100.771852
1759224749.925378, 1.518223, 9.269750, 0.571765, 0.006445, 0.657284, -0.063021, 96.473068, 154.854340, -523.712585, 13.726144, 100.771852
1759224749.944505, 1.875258, 9.368062, 0.663643, -0.013064, 0.499011, -0.079996, 95.971085, 154.927643, -524.326721, 13.726144, 100.771852
1759224749.965371, 2.159720, 9.526528, 0.149937, 0.076273, 0.337045, -0.055668, 95.585434, 155.066391, -524.556274, 13.726144, 100.771852
1759224749.985372, 1.851167, 10.075698, 0.078111, -0.017185, 0.617401, 0.138310, 95.176834, 154.913025, -523.708008, 13.726144, 100.771852
1759224750.005399, 1.469441, 10.127024, 0.144700, -0.084747, 0.670018, 0.167737, 94.580383, 154.898010, -524.439392, 13.726167, 100.771841
1759224750.025386, 1.035492, 9.842713, 0.341473, -0.118147, 0.399312, 0.154119, 94.060745, 154.836029, -524.404724, 13.726167, 100.771841
1759224750.044548, 1.028310, 9.792135, 0.776619, -0.086754, -0.032565, 0.101218, 94.235977, 154.917282, -524.746521, 13.726167, 100.771841
1759224750.065389, 0.671873, 9.527875, -0.332794, -0.021915, 0.204714, 0.051651, 94.086884, 155.015106, -524.553650, 13.726167, 100.771841
1759224750.085389, 0.508768, 9.732879, -0.418536, -0.001587, 0.781581, 0.077735, 93.434814, 154.829880, -523.362915, 13.726167, 100.771841
1759224750.105391, 0.501735, 9.913641, -0.001945, 0.052821, 0.939277, 0.042076, 92.748734, 155.088669, -524.640625, 13.726167, 100.771841
1759224750.125387, 0.899771, 9.803358, 0.131980, 0.145055, 0.931947, -0.004879, 91.854218, 155.064377, -524.992920, 13.726167, 100.771841
1759224750.145361, 1.360206, 9.609278, 0.565929, 0.138066, 0.900631, -0.065746, 91.029373, 155.423889, -525.454407, 13.726167, 100.771841
1759224750.165393, 1.807024, 9.431957, 0.685041, 0.129257, 0.826429, -0.126693, 90.086899, 155.423294, -525.917236, 13.726167, 100.771841
1759224750.185063, 2.291850, 9.404723, 0.962918, 0.094550, 0.651477, -0.170370, 89.591858, 155.285217, -525.200684, 13.726167, 100.771841
1759224750.205392, 2.778022, 9.281123, 1.211616, 0.023832, 0.432424, -0.159700, 89.277390, 155.034851, -525.692200, 13.726167, 100.771841
1759224750.225387, 3.124732, 9.162610, 0.833781, -0.030672, 0.416434, -0.074353, 88.631241, 155.197662, -525.705139, 13.726167, 100.771841
1759224750.245361, 3.229179, 9.283367, 0.514005, -0.038794, 0.560815, 0.017633, 88.261429, 155.090897, -526.755188, 13.726167, 100.771841
1759224750.265389, 2.774880, 9.614216, 0.521936, -0.032602, 0.516416, 0.122565, 88.074890, 155.049866, -526.500854, 13.726167, 100.771841
1759224750.285380, 1.943344, 9.717915, 0.474052, -0.019767, 0.426853, 0.173904, 87.906433, 155.087158, -525.854675, 13.726167, 100.771841
1759224750.305388, 1.464653, 9.693225, 0.365116, -0.048933, 0.429054, 0.160868, 87.563766, 155.139069, -526.328064, 13.726167, 100.771841
1759224750.325384, 1.184681, 9.537003, 0.160412, -0.069572, 0.475760, 0.130700, 87.157913, 155.142929, -526.199341, 13.726167, 100.771841
1759224750.344935, 1.041627, 9.765949, 0.214131, -0.046112, 0.472233, 0.098579, 86.882111, 155.223969, -526.649719, 13.726167, 100.771841
1759224750.365390, 0.963367, 9.896133, 0.182857, -0.015742, 0.478104, 0.067600, 86.551102, 155.271164, -526.933411, 13.726167, 100.771841
1759224750.385093, 1.159841, 9.775076, 0.180313, 0.014670, 0.455931, 0.035556, 86.378952, 155.247543, -526.499084, 13.726167, 100.771841
1759224750.405180, 1.422006, 9.709984, 0.364966, 0.041125, 0.365981, 0.012871, 86.002029, 155.091187, -527.124634, 13.726167, 100.771841
1759224750.425385, 1.726369, 9.797223, 0.511312, 0.025864, 0.337465, 0.021398, 85.557510, 155.120834, -526.742981, 13.726167, 100.771841
1759224750.445359, 1.866131, 9.724050, 0.467169, -0.015822, 0.365806, 0.045863, 85.137558, 155.321609, -527.317505, 13.726167, 100.771841
1759224750.465384, 1.763030, 9.743653, 0.512808, -0.013406, 0.323608, 0.062409, 85.226425, 155.406174, -527.923462, 13.726167, 100.771841
1759224750.484895, 1.566406, 9.627235, 0.608426, 0.021254, 0.271765, 0.058187, 84.863663, 155.261826, -527.332397, 13.726167, 100.771841
1759224750.505389, 1.544859, 9.701006, 0.627281, 0.013364, 0.264671, 0.056029, 84.694626, 155.442291, -527.696594, 13.726167, 100.771841
1759224750.525384, 1.706467, 9.669283, 0.551863, -0.012612, 0.275196, 0.060758, 84.497742, 155.286682, -527.503113, 13.726167, 100.771841
1759224750.545351, 1.886781, 9.611822, 0.656460, -0.005267, 0.209173, 0.043570, 84.051025, 155.418686, -527.855103, 13.726167, 100.771841
1759224750.565378, 1.934515, 9.520094, 0.807295, 0.006270, 0.118959, 0.042735, 84.174164, 155.774734, -527.878784, 13.726167, 100.771841
1759224750.585034, 1.874660, 9.482984, 0.827496, -0.024207, 0.085563, 0.036596, 84.096481, 155.519531, -527.276733, 13.726167, 100.771841
1759224750.605392, 1.821838, 9.507973, 0.796072, -0.044448, 0.057878, 0.028898, 84.120819, 155.481781, -527.579773, 13.726167, 100.771841
1759224750.625383, 1.879598, 9.462783, 0.830040, -0.054906, 0.026991, 0.032580, 84.010483, 155.424026, -527.297424, 13.726167, 100.771841
1759224750.644362, 1.930774, 9.614366, 0.675165, -0.061618, 0.025750, 0.052005, 83.986710, 155.703537, -528.036987, 13.726167, 100.771841
1759224750.665395, 1.768118, 9.764901, 0.518494, -0.061393, 0.046018, 0.048799, 83.862625, 155.717606, -527.863525, 13.726167, 100.771841
1759224750.685379, 1.469591, 9.720758, 0.426467, -0.043534, 0.065521, 0.040478, 84.223526, 155.376648, -527.514771, 13.726167, 100.771841
1759224750.705384, 1.353771, 9.616161, 0.362572, -0.023028, 0.092912, 0.011217, 83.823883, 155.508148, -527.331970, 13.726167, 100.771841
1759224750.725381, 1.549198, 9.607632, 0.366911, -0.029170, 0.125383, -0.019737, 83.474213, 155.485291, -527.353516, 13.726167, 100.771841
1759224750.744374, 1.907580, 9.639804, 0.396540, -0.034862, 0.119531, -0.028485, 83.348907, 155.647537, -527.861206, 13.726167, 100.771841
1759224750.765385, 2.252644, 9.634118, 0.535104, -0.029032, 0.103059, -0.009749, 83.295532, 155.511505, -528.140564, 13.726167, 100.771841
1759224750.785382, 2.316091, 9.642498, 0.512808, -0.028200, 0.070204, 0.005796, 83.350586, 155.394165, -527.811340, 13.726167, 100.771841
1759224750.805381, 2.106149, 9.582643, 0.576105, -0.015628, 0.030344, 0.006379, 83.257202, 155.397568, -527.475220, 13.726167, 100.771841
1759224750.825379, 2.074725, 9.588778, 0.680552, -0.029393, -0.001750, -0.003545, 83.253723, 155.407318, -527.031494, 13.726167, 100.771841
1759224750.844391, 2.193388, 9.476849, 0.695067, -0.022143, -0.055189, -0.013026, 83.299194, 155.535645, -528.141724, 13.726167, 100.771841
1759224750.865382, 2.306514, 9.487922, 0.670676, -0.003789, -0.083174, -0.012382, 83.377731, 155.446823, -528.171997, 13.726167, 100.771841
1759224750.885376, 2.411859, 9.492860, 0.667833, -0.016304, -0.123291, -0.007064, 83.365875, 155.528549, -527.657715, 13.726167, 100.771841
1759224750.905384, 2.310105, 9.462334, 0.809539, -0.029926, -0.188771, 0.006876, 83.481491, 155.155090, -527.275940, 13.726167, 100.771841
1759224750.925388, 2.045696, 9.586084, 0.727837, -0.028776, -0.174655, 0.019084, 83.668854, 155.226501, -526.625793, 13.726167, 100.771841
1759224750.944409, 1.736544, 9.645041, 0.590171, -0.005459, -0.088545, 0.022608, 83.650955, 155.460709, -527.666321, 13.726167, 100.771841
1759224750.965385, 1.438766, 9.500342, 0.600945, 0.002523, -0.025481, 0.013460, 83.521210, 155.397583, -527.617920, 13.726167, 100.771841
1759224750.985381, 1.314566, 9.492261, 0.655413, -0.024244, 0.015720, -0.008778, 83.586014, 155.536987, -527.287415, 13.726167, 100.771841
1759224751.005387, 1.714847, 9.602694, 0.502333, -0.018757, 0.052531, 0.000856, 83.554688, 155.386063, -527.317871, 13.726179, 100.771797
1759224751.025382, 1.804031, 9.508273, 0.370203, 0.003561, 0.147704, 0.029027, 83.393066, 155.558792, -526.872009, 13.726179, 100.771797
1759224751.044428, 1.501763, 9.489718, 0.376039, 0.021938, 0.222071, 0.054609, 83.475784, 155.502670, -528.087524, 13.726179, 100.771797
1759224751.065381, 1.134253, 9.554810, 0.286556, 0.080049, 0.269319, 0.071816, 83.199158, 155.656860, -528.055237, 13.726179, 100.771797
1759224751.085371, 0.794576, 9.718962, 0.472406, 0.122192, 0.376873, 0.085794, 83.179596, 155.794846, -527.768616, 13.726179, 100.771797
1759224751.105382, 0.662595, 10.055198, 0.471358, 0.139472, 0.543908, 0.091524, 82.815018, 155.775070, -528.238037, 13.726179, 100.771797
1759224751.125392, 0.569970, 9.849297, 0.268001, 0.197199, 0.669165, 0.095467, 82.219162, 155.830078, -527.862427, 13.726179, 100.771797
1759224751.144441, 0.705242, 9.802909, 0.480786, 0.200305, 0.762802, 0.106273, 81.989426, 156.242203, -529.491760, 13.726179, 100.771797
1759224751.165381, 1.102530, 10.030358, 0.846650, 0.150077, 0.851529, 0.089335, 81.074341, 156.262878, -529.578186, 13.726179, 100.771797
1759224751.185378, 1.296759, 10.406547, 0.903213, 0.119239, 0.783657, 0.101667, 80.772446, 156.276443, -529.596069, 13.726179, 100.771797
1759224751.205379, 1.126322, 10.162339, 0.729184, 0.173013, 0.613698, 0.082099, 80.172791, 156.370270, -530.470032, 13.726179, 100.771797
1759224751.225377, 1.212514, 9.973646, 0.534954, 0.212768, 0.575195, 0.059439, 79.824463, 156.605515, -529.972900, 13.726179, 100.771797
1759224751.244448, 1.287332, 9.800664, 0.664840, 0.285132, 0.589645, 0.080468, 79.455551, 156.750015, -531.067017, 13.726179, 100.771797
1759224751.265382, 1.413776, 9.845107, 0.967557, 0.329359, 0.643621, 0.144702, 78.933105, 157.248703, -531.817627, 13.726179, 100.771797
1759224751.284889, 1.104924, 9.741857, 0.956783, 0.346965, 0.690254, 0.194503, 78.681274, 157.371597, -531.444702, 13.726179, 100.771797
1759224751.305052, 0.313341, 9.699061, 1.143231, 0.385075, 0.722203, 0.176815, 78.269730, 157.704575, -531.986938, 13.726179, 100.771797
1759224751.325147, 0.054468, 10.098443, 0.824054, 0.435301, 0.835158, 0.101066, 78.134277, 157.852295, -532.009888, 13.726179, 100.771797
1759224751.345213, 0.817321, 9.963919, 0.888099, 0.471364, 0.882121, 0.032848, 77.152710, 158.485077, -533.074707, 13.726179, 100.771797
1759224751.365299, 1.876904, 9.501240, 1.094150, 0.458536, 0.999144, 0.033304, 76.649902, 158.876862, -534.018250, 13.726179, 100.771797
1759224751.385372, 2.356493, 9.664045, 1.213411, 0.415215, 1.044782, 0.106836, 76.056885, 158.928345, -534.038452, 13.726179, 100.771797
1759224751.405378, 2.594267, 9.797372, 1.278803, 0.393198, 0.894296, 0.180037, 75.467194, 159.259506, -534.645386, 13.726179, 100.771797
1759224751.425377, 2.678064, 9.660304, 0.986411, 0.340421, 0.853644, 0.211172, 74.935287, 159.560684, -534.930054, 13.726179, 100.771797
1759224751.445350, 2.173785, 9.633819, 0.334290, 0.271372, 0.888027, 0.234662, 74.499542, 159.817520, -536.283264, 13.726179, 100.771797
1759224751.465377, 1.687763, 9.800664, -0.360627, 0.278331, 0.747353, 0.220166, 74.394028, 160.347000, -537.127808, 13.726179, 100.771797
1759224751.485177, 1.573290, 9.986514, -0.528520, 0.332518, 0.653188, 0.197685, 73.948853, 160.495667, -537.044800, 13.726179, 100.771797
1759224751.505373, 1.289427, 10.214412, -0.375740, 0.424365, 0.807206, 0.243936, 73.770798, 160.742493, -538.119629, 13.726179, 100.771797
1759224751.525377, 0.767940, 10.027814, 0.036512, 0.533028, 0.951937, 0.289885, 73.448441, 161.001236, -537.774963, 13.726179, 100.771797
1759224751.544782, 0.301819, 9.408614, 0.270246, 0.593489, 1.044150, 0.301841, 73.192184, 161.464050, -539.443481, 13.726179, 100.771797
1759224751.565375, 0.186149, 9.003695, -0.103250, 0.611390, 1.235071, 0.245246, 72.815536, 162.221024, -540.610657, 13.726179, 100.771797
1759224751.585016, 0.285359, 8.938752, -0.437989, 0.565801, 1.542294, 0.094265, 72.093002, 162.498398, -541.266968, 13.726179, 100.771797
1759224751.605373, 1.321450, 9.445126, -0.656909, 0.535338, 1.590163, -0.030788, 71.325745, 162.897827, -543.047119, 13.726179, 100.771797
1759224751.625371, 2.165705, 9.568876, -0.732925, 0.599974, 1.456484, -0.069103, 70.596771, 162.755661, -543.615479, 13.726179, 100.771797
1759224751.644935, 2.808997, 9.444078, -0.734122, 0.664209, 1.339165, -0.084309, 69.976944, 163.011887, -545.174744, 13.726179, 100.771797
1759224751.665379, 2.982577, 9.430311, -0.844255, 0.733227, 1.320887, -0.097110, 69.243484, 163.174149, -546.596130, 13.726179, 100.771797
1759224751.685374, 2.904017, 9.469367, -0.734870, 0.776721, 1.350596, -0.074152, 68.803894, 163.423370, -547.541992, 13.726179, 100.771797
1759224751.704380, 2.511069, 9.385869, -0.797718, 0.871592, 1.393807, -0.078084, 68.205124, 163.742508, -549.104919, 13.726179, 100.771797
1759224751.725375, 2.488174, 9.429713, -0.953940, 0.920141, 1.326293, -0.131869, 67.623901, 163.751938, -549.991455, 13.726179, 100.771797
1759224751.745348, 2.527529, 9.861717, -1.300201, 0.892788, 1.173297, -0.205256, 67.138626, 164.098892, -552.305298, 13.726179, 100.771797
1759224751.765375, 2.443133, 10.259453, -1.537526, 0.805329, 1.132131, -0.272554, 66.803909, 164.006653, -553.170715, 13.726179, 100.771797
1759224751.785372, 2.224962, 9.923966, -0.904410, 0.657862, 1.267570, -0.385605, 66.441299, 164.064453, -554.072571, 13.726179, 100.771797
1759224751.804400, 1.768417, 9.514408, -0.463428, 0.589288, 1.388727, -0.478373, 65.829575, 163.874969, -555.302368, 13.726179, 100.771797
1759224751.825370, -0.042796, 9.457396, 1.307234, 0.305618, 1.512843, -0.713815, 65.578751, 163.341415, -555.782227, 13.726179, 100.771797
1759224751.844840, -0.839018, 9.689484, 1.966537, -0.012353, 1.340676, -0.939294, 65.056900, 162.887939, -557.632202, 13.726179, 100.771797
1759224751.865370, -0.301669, 10.093954, 2.088342, -0.287654, 1.150691, -1.076663, 64.468796, 161.971039, -558.637512, 13.726179, 100.771797
1759224751.885228, 2.059612, 10.172215, 1.325490, -0.288307, 0.965710, -0.840941, 63.962097, 161.099060, -558.852600, 13.726179, 100.771797
1759224751.904408, 3.130718, 9.991452, 0.652420, -0.155075, 0.737943, -0.628800, 63.316925, 160.679733, -560.284973, 13.726179, 100.771797
1759224751.925360, 4.929811, 8.743026, -2.658162, -0.138104, 1.488271, -0.484708, 62.775833, 159.995392, -560.333862, 13.726179, 100.771797
1759224751.944853, 6.069451, 8.651148, -2.922123, -0.068245, 1.819233, -0.484838, 62.628601, 159.906876, -562.410156, 13.726179, 100.771797
1759224751.965151, 6.013486, 8.802582, -1.296311, -0.031895, 2.120364, -0.277811, 62.208969, 159.583984, -563.952087, 13.726179, 100.771797
1759224751.985365, 1.170465, 8.825476, 1.478120, -0.088384, 2.050458, -0.159296, 62.347305, 159.597794, -565.031555, 13.726179, 100.771797
1759224752.004440, 0.632817, 9.036016, 1.756297, 0.011110, 1.667308, -0.236048, 62.522354, 159.483307, -566.909668, 13.726178, 100.771834
1759224752.025368, 0.435296, 9.218425, 1.059584, 0.095015, 1.028490, -0.362545, 62.242905, 158.897827, -567.108337, 13.726178, 100.771834
1759224752.044869, 1.841740, 8.944438, -0.540790, 0.215720, 0.411005, -0.390853, 62.111206, 158.740616, -568.296631, 13.726178, 100.771834
1759224752.065376, 3.119495, 8.791658, -2.589628, 0.233910, 0.399058, -0.461273, 62.192184, 158.336746, -568.562866, 13.726178, 100.771834
1759224752.085192, 3.434782, 9.747992, -2.182464, 0.284541, 0.389101, -0.378973, 61.700775, 157.943939, -568.809265, 13.726178, 100.771834
1759224752.104451, 2.856731, 10.155006, -0.104447, 0.212464, 0.664154, -0.247965, 61.958832, 157.627563, -569.904053, 13.726178, 100.771834
1759224752.125351, 2.180370, 10.001029, 0.647781, 0.299601, 0.784989, -0.107701, 62.073456, 157.564804, -570.904297, 13.726178, 100.771834
1759224752.144893, 2.195034, 9.464878, 0.933739, 0.343764, 1.042421, 0.091013, 62.314301, 157.559158, -571.423462, 13.726178, 100.771834
1759224752.165351, 2.819771, 9.265860, 1.816002, -0.094522, 1.686798, 0.232907, 62.272202, 157.862869, -573.391235, 13.726178, 100.771834
1759224752.185351, 4.637269, 11.058069, 0.854131, -0.641143, 1.722641, 0.284956, 62.433746, 158.107376, -573.953125, 13.726178, 100.771834
1759224752.204461, 5.508160, 9.935039, -1.312621, -0.661600, 1.063580, 0.467907, 62.833038, 158.449127, -574.821777, 13.726178, 100.771834
1759224752.225357, 3.028067, 9.009530, -1.353322, -0.328403, 0.278032, 0.446059, 63.277283, 159.074188, -574.950378, 13.726178, 100.771834
1759224752.245346, 0.232537, 8.587253, 0.157868, -0.173997, -0.043995, 0.390484, 63.328827, 159.332794, -574.371277, 13.726178, 100.771834
1759224752.265361, 0.832434, 8.547749, 2.292298, -0.405528, 0.465329, 0.052177, 63.591293, 159.405823, -574.580444, 13.726178, 100.771834
1759224752.285369, 0.575357, 9.433903, 1.052850, -0.388167, 0.423086, -0.058148, 63.572601, 159.427353, -574.276428, 13.726178, 100.771834
1759224752.304492, 0.172831, 10.812215, -1.506851, -0.325875, 0.478756, -0.113940, 63.623062, 159.449341, -575.251831, 13.726178, 100.771834
1759224752.325359, 0.459387, 10.808773, -2.875885, -0.074274, -0.016728, -0.296656, 63.129791, 159.125610, -575.175903, 13.726178, 100.771834
1759224752.344916, 1.556081, 10.465953, -1.164480, 0.297136, -0.395809, -0.394808, 63.069504, 158.811584, -574.550476, 13.726178, 100.771834
1759224752.365391, 2.119766, 9.749339, 0.987608, 0.231026, -0.163162, -0.350742, 62.963409, 158.722778, -574.857849, 13.726178, 100.771834
1759224752.385365, 2.423830, 9.408614, 1.774403, 0.033015, 0.009414, -0.219879, 63.071457, 158.273361, -574.502197, 13.726178, 100.771834
1759224752.404492, 2.384924, 9.442731, 0.822708, -0.090183, 0.120857, -0.098339, 63.105713, 158.383469, -575.490295, 13.726178, 100.771834
1759224752.425366, 2.282422, 9.450662, -0.287304, -0.139874, 0.243528, 0.033456, 63.070862, 158.333878, -575.479614, 13.726178, 100.771834
1759224752.444931, 1.428590, 9.431509, -0.213234, -0.127897, 0.153864, 0.076407, 63.037766, 158.529434, -574.856262, 13.726178, 100.771834
1759224752.465354, 1.025466, 9.615264, 0.196025, -0.135138, 0.086674, 0.042332, 63.243011, 158.425125, -575.391113, 13.726178, 100.771834
1759224752.485169, 0.982521, 9.703849, 0.656011, -0.176881, 0.133676, -0.002310, 63.295395, 158.268799, -574.706482, 13.726178, 100.771834
1759224752.504515, 1.033397, 9.710134, 0.468815, -0.210696, 0.196362, -0.033375, 63.269470, 158.524628, -575.745728, 13.726178, 100.771834
1759224752.525364, 1.012149, 9.671976, 0.051775, -0.181549, 0.030062, -0.046985, 63.268097, 158.466522, -575.649414, 13.726178, 100.771834
1759224752.544915, 0.977433, 9.858874, -0.258873, -0.115877, -0.142148, -0.078898, 63.099014, 158.414307, -574.940796, 13.726178, 100.771834
1759224752.565345, 1.470788, 10.086023, -0.096067, -0.070718, -0.134676, -0.118673, 63.067291, 158.394608, -574.415405, 13.726178, 100.771834
1759224752.585286, 1.945887, 10.060735, 0.150984, -0.073200, -0.127896, -0.082853, 63.192642, 158.366440, -574.375488, 13.726179, 100.771846
1759224752.604523, 1.380856, 9.890297, 0.210989, -0.031929, -0.191269, -0.014672, 63.058456, 158.592590, -574.682251, 13.726179, 100.771846
1759224752.625362, 0.676661, 9.760262, 0.185551, -0.029046, -0.149233, -0.005548, 62.895645, 158.420349, -574.463257, 13.726179, 100.771846
1759224752.644965, 0.389656, 9.889400, 0.043844, -0.085680, -0.023838, 0.018940, 63.084625, 158.425720, -573.677979, 13.726179, 100.771846
1759224752.665373, 0.032771, 9.674670, -0.066140, -0.086310, 0.074385, 0.029138, 63.156784, 158.706192, -574.377930, 13.726179, 100.771846
1759224752.685366, -0.005986, 9.516652, 0.178218, -0.035879, 0.082961, 0.030470, 62.731720, 158.610992, -573.348145, 13.726179, 100.771846
1759224752.704529, 0.271293, 9.691878, 0.436942, -0.022735, 0.051499, 0.005630, 62.774719, 158.610153, -574.424622, 13.726179, 100.771846
1759224752.725362, 0.761206, 9.836129, 0.438588, -0.086412, 0.029500, 0.001908, 63.216232, 158.586273, -574.608215, 13.726179, 100.771846
1759224752.744988, 0.570568, 9.996989, 0.183605, -0.103140, 0.084402, 0.056778, 62.935013, 158.504059, -574.054810, 13.726179, 100.771846
1759224752.765367, 0.096067, 10.333674, 0.351648, -0.014030, 0.147322, 0.047435, 63.170532, 158.644485, -574.900574, 13.726179, 100.771846
1759224752.785366, 0.594061, 10.077793, 0.709731, -0.030432, 0.081935, 0.035131, 63.133087, 158.561508, -574.551697, 13.726179, 100.771846
1759224752.804548, 1.245733, 9.284864, 0.211887, -0.101068, 0.061419, 0.012202, 63.163437, 158.824524, -575.429443, 13.726179, 100.771846
1759224752.825368, 1.550096, 9.437793, -0.160711, -0.096366, 0.088061, 0.006397, 63.239410, 158.947021, -575.595581, 13.726179, 100.771846
1759224752.844996, 1.370830, 9.755175, 0.041599, -0.039673, 0.200739, 0.029947, 63.179214, 159.106171, -575.113770, 13.726179, 100.771846
1759224752.865370, 0.963367, 9.595960, 0.579696, -0.020808, 0.281056, 0.026968, 63.340927, 159.031998, -575.945984, 13.726179, 100.771846
1759224752.885366, 0.966809, 9.433304, 1.048361, 0.019223, 0.225272, -0.020092, 63.334091, 158.830109, -575.043030, 13.726179, 100.771846
1759224752.904570, 1.506851, 9.379435, 1.095796, 0.018661, 0.174420, -0.075178, 63.331802, 158.870270, -576.297485, 13.726179, 100.771846
1759224752.925362, 2.048988, 9.831639, 0.750433, -0.020657, 0.105664, -0.093842, 63.257706, 158.873657, -575.973511, 13.726179, 100.771846
1759224752.945340, 2.141913, 9.978434, 0.342221, -0.018302, 0.067773, -0.053691, 63.336670, 158.629028, -575.697510, 13.726179, 100.771846
1759224752.965365, 2.135329, 9.864260, 0.355689, 0.008158, 0.068266, 0.006021, 63.170502, 158.826233, -576.125549, 13.726179, 100.771846
1759224752.985361, 1.927482, 9.709685, 0.560842, 0.012777, 0.052991, 0.081586, 63.358383, 158.752686, -575.451843, 13.726179, 100.771846
1759224753.004596, 1.330578, 9.651775, 0.813879, -0.014732, 0.089519, 0.127774, 63.454346, 158.962021, -576.207336, 13.726179, 100.771846
1759224753.025377, 0.593762, 9.711929, 0.886902, -0.066716, 0.127782, 0.102791, 63.433807, 159.186844, -576.399414, 13.726179, 100.771846
1759224753.045034, 0.357784, 9.742455, 0.506673, -0.087561, 0.059834, 0.021063, 63.337387, 159.011627, -575.590454, 13.726157, 100.771855
1759224753.065370, 0.750433, 9.584737, 0.215329, -0.065545, -0.085088, -0.057747, 63.363037, 158.961380, -576.524475, 13.726157, 100.771855
1759224753.085124, 1.307384, 9.350255, 0.092027, -0.080769, -0.156295, -0.082112, 63.475311, 158.702606, -575.088135, 13.726157, 100.771855
1759224753.104597, 1.168370, 9.650728, -0.208146, -0.054076, -0.092655, -0.028849, 63.358154, 158.854416, -576.244934, 13.726157, 100.771855
1759224753.125316, 0.563984, 9.838672, 0.164751, 0.014426, 0.042439, 0.001394, 63.585678, 158.704941, -576.088501, 13.726157, 100.771855
1759224753.145038, 0.626383, 9.633070, 0.707636, -0.024848, 0.177461, -0.002824, 63.536407, 158.620209, -575.759766, 13.726157, 100.771855
1759224753.165363, 0.767342, 9.691878, 0.421679, -0.085587, 0.224553, 0.012213, 63.700928, 158.864868, -576.516479, 13.726157, 100.771855
1759224753.185363, 0.640150, 9.660454, 0.028581, -0.061211, 0.332950, 0.004214, 63.713760, 158.536896, -575.597046, 13.726157, 100.771855
1759224753.204639, 0.673818, 9.458294, 0.172981, -0.081349, 0.410609, -0.000751, 63.948776, 158.584091, -576.969482, 13.726157, 100.771855
1759224753.225390, 0.626383, 9.217527, 0.210241, -0.052683, 0.441417, -0.020245, 63.889938, 158.829010, -577.455444, 13.726157, 100.771855
1759224753.245073, 0.758962, 9.635465, 0.655263, -0.017611, 0.307944, -0.046599, 63.974365, 158.578995, -577.378723, 13.726157, 100.771855
1759224753.265368, 1.118541, 9.693524, 0.945859, -0.017771, 0.222100, -0.067750, 64.168182, 158.562683, -578.143005, 13.726157, 100.771855
1759224753.285262, 1.681927, 9.671527, 0.955586, -0.071131, 0.110513, -0.061908, 63.994263, 158.564560, -577.447632, 13.726157, 100.771855
1759224753.304654, 1.857601, 9.810690, 0.669329, -0.070430, 0.094940, -0.021370, 63.870300, 158.579681, -578.427002, 13.726157, 100.771855
1759224753.325367, 1.890372, 10.169222, 0.490213, -0.063317, 0.038976, 0.052855, 63.819443, 158.789047, -578.169861, 13.726157, 100.771855
1759224753.345085, 1.362151, 10.140791, 0.261118, 0.002476, 0.061543, 0.127766, 64.062103, 158.810593, -577.306458, 13.726157, 100.771855
1759224753.364723, 0.859219, 10.030358, 0.563535, 0.025425, 0.222007, 0.139373, 64.238281, 159.071167, -578.391296, 13.726157, 100.771855
1759224753.385342, 0.540940, 10.037391, 0.913986, -0.026336, 0.303907, 0.148262, 64.267975, 159.025238, -577.958069, 13.726157, 100.771855
1759224753.404659, 0.371999, 9.752332, 0.737564, 0.010588, 0.370756, 0.097492, 64.123642, 159.214325, -578.648682, 13.726157, 100.771855
1759224753.425359, 0.268300, 9.702502, 1.086369, 0.006155, 0.156456, 0.032178, 64.276627, 159.296936, -578.919067, 13.726157, 100.771855
1759224753.445099, 0.165798, 9.602844, 0.949600, 0.076363, 0.066613, -0.009266, 64.207199, 159.236969, -578.659851, 13.726157, 100.771855
1759224753.465367, 1.223138, 9.342773, 1.060182, 0.126096, 0.047142, -0.080970, 64.068390, 159.243866, -578.784424, 13.726157, 100.771855
1759224753.485357, 2.150143, 9.220071, 1.005864, 0.086248, 0.088487, -0.019159, 64.419861, 158.856552, -578.354858, 13.726157, 100.771855
1759224753.504705, 1.665018, 9.351153, 1.009755, 0.016066, 0.212980, 0.193017, 64.596130, 159.254227, -579.279785, 13.726157, 100.771855
1759224753.525364, 0.752378, 9.648184, 0.935235, -0.002139, 0.128698, 0.230243, 64.395554, 159.509659, -578.937500, 13.726157, 100.771855
1759224753.545116, 0.283863, 10.123732, 0.865953, 0.017699, 0.014201, 0.238638, 64.679886, 159.571381, -578.933838, 13.726157, 100.771855
1759224753.565368, 0.389956, 10.080786, 0.705242, 0.036941, -0.054549, 0.204311, 64.705551, 159.591324, -579.159607, 13.726157, 100.771855
1759224753.585362, 0.590470, 9.933243, 0.653617, 0.070734, -0.171317, 0.229253, 64.750565, 159.892319, -578.328735, 13.726157, 100.771855
1759224753.604688, 0.893187, 9.884910, 0.398934, 0.100544, -0.269743, 0.194165, 64.563324, 160.101059, -579.077393, 13.726157, 100.771855
1759224753.624512, 1.167473, 9.907057, 0.246752, 0.075220, -0.215833, 0.164290, 64.711166, 160.114578, -578.463745, 13.726157, 100.771855
1759224753.644340, 1.299154, 9.986664, 0.294936, 0.058959, -0.107972, 0.197395, 64.636871, 160.253143, -578.196960, 13.726157, 100.771855
1759224753.665362, 1.318457, 9.804555, 0.606631, 0.050655, -0.081064, 0.272942, 64.748215, 160.354645, -578.808960, 13.726157, 100.771855
1759224753.685337, 1.322348, 9.554511, 0.792331, 0.018929, -0.070458, 0.362098, 65.140106, 160.439621, -577.830933, 13.726157, 100.771855
1759224753.704706, 1.288080, 9.638757, 0.774674, -0.055807, -0.023396, 0.439777, 65.254013, 160.917068, -578.658447, 13.726157, 100.771855
1759224753.725362, 1.138293, 9.720608, 0.710629, -0.108826, 0.013317, 0.486106, 65.267303, 161.244736, -578.775085, 13.726157, 100.771855
1759224753.744360, 0.961571, 9.655516, 0.620098, -0.121547, -0.025142, 0.512043, 65.698151, 161.721527, -578.181519, 13.726157, 100.771855
1759224753.765360, 0.949451, 9.803807, 0.460285, -0.172562, -0.149484, 0.495730, 65.801453, 161.926468, -578.747681, 13.726157, 100.771855
1759224753.785359, 1.163283, 9.981726, 0.181660, -0.195246, -0.254671, 0.502615, 66.019150, 162.404160, -577.632080, 13.726157, 100.771855
1759224753.804708, 1.022923, 9.752481, -0.264859, -0.194530, -0.232850, 0.532736, 65.923065, 163.040131, -578.106506, 13.726157, 100.771855
1759224753.825398, 0.389656, 9.707889, -0.526874, -0.147020, -0.101770, 0.550781, 66.254288, 163.436188, -577.671021, 13.726157, 100.771855
1759224753.844873, -0.059406, 9.950152, -0.504578, -0.041704, 0.036228, 0.490272, 66.686020, 163.561966, -577.501099, 13.726157, 100.771855
1759224753.865409, 0.255132, 10.118644, -0.410456, 0.075072, 0.036287, 0.408805, 66.640427, 164.083054, -577.955200, 13.726157, 100.771855
1759224753.885352, 0.726341, 10.270826, -0.800561, 0.210494, -0.170513, 0.349408, 66.965149, 163.948105, -576.866699, 13.726157, 100.771855
1759224753.904764, 0.791882, 10.389189, -1.074099, 0.293347, -0.344928, 0.332506, 67.052063, 164.223618, -577.440247, 13.726157, 100.771855
1759224753.924522, 0.563535, 10.452486, -1.164031, 0.438196, -0.702491, 0.246898, 66.714035, 164.558624, -577.210144, 13.726157, 100.771855
1759224753.944892, -0.307056, 10.243891, -0.414496, 0.465917, -1.093539, 0.055644, 66.680496, 164.216278, -576.277222, 13.726157, 100.771855
1759224753.965356, -1.838597, 9.150788, 0.758663, 0.318935, -1.763708, -0.378986, 66.287903, 163.941422, -575.690674, 13.726157, 100.771855
1759224753.985364, -2.480692, 8.483105, 1.152060, 0.204803, -1.950298, -0.547973, 65.604752, 163.250275, -573.182800, 13.726157, 100.771855
1759224754.004770, -3.171120, 9.299079, -0.171335, -0.196054, -2.241209, -0.886912, 65.009750, 162.723007, -571.929077, 13.726157, 100.771855
1759224754.025359, -3.128174, 10.613945, -3.750667, -0.481496, -1.468709, -1.191382, 64.178085, 162.130447, -570.866699, 13.726157, 100.771855
1759224754.044896, -1.707066, 11.552472, -5.043835, -0.208669, 0.275355, -1.436095, 63.806183, 160.866791, -571.145935, 13.726157, 100.771855
1759224754.065362, 0.411354, 11.904719, -3.575740, 0.375199, 1.601155, -1.302809, 63.323624, 159.929825, -572.629089, 13.726157, 100.771855
1759224754.085356, 1.511639, 12.491747, -1.654992, 0.721528, 2.118365, -1.011870, 63.176910, 159.001083, -574.042480, 13.726145, 100.771849
1759224754.104772, 2.559102, 11.306468, 3.633351, 0.301572, 1.967313, -0.711414, 63.277573, 158.360657, -576.486084, 13.726145, 100.771849
1759224754.125369, -0.303465, 10.466253, 3.610456, -0.029049, 1.367942, -0.932726, 63.516205, 157.569244, -576.414429, 13.726145, 100.771849
1759224754.144431, -2.895039, 11.562498, 0.676362, 0.035664, 1.160792, -1.149757, 63.539658, 156.702606, -577.562805, 13.726145, 100.771849
1759224754.165371, -1.950227, 11.578060, -0.966659, 0.042537, 1.556116, -1.340117, 63.603638, 155.707413, -579.890137, 13.726145, 100.771849
1759224754.185364, -0.723498, 10.774356, -1.924190, -0.017414, 2.203232, -1.530658, 64.167038, 154.312485, -580.579712, 13.726145, 100.771849
1759224754.204804, -1.570147, 11.251401, -2.280178, 0.200259, 2.652425, -1.605928, 64.715363, 153.152985, -583.075684, 13.726145, 100.771849
1759224754.225368, -1.833958, 11.558457, -2.382680, 0.294467, 2.643787, -1.527141, 65.478592, 152.098526, -585.125244, 13.726145, 100.771849
1759224754.244457, -1.064073, 11.603498, -2.398691, 0.341737, 2.454123, -1.225182, 66.121307, 150.854218, -586.557495, 13.726145, 100.771849
1759224754.265369, -0.586430, 11.896489, -2.025944, 0.393061, 2.194889, -0.743627, 67.013290, 150.218994, -588.627380, 13.726145, 100.771849
1759224754.285364, -0.506972, 10.666318, -1.768866, 0.357433, 1.801447, -0.321464, 67.749252, 149.731430, -589.555603, 13.726145, 100.771849
1759224754.304824, 0.171036, 8.248623, -1.563414, 0.302042, 1.502896, -0.038161, 68.329834, 149.769226, -591.867554, 13.726145, 100.771849
1759224754.325367, 0.697760, 6.344934, -1.065719, 0.130563, 1.323984, 0.141642, 69.122437, 149.649506, -592.381042, 13.726145, 100.771849
1759224754.344464, 0.108787, 5.499631, -0.471508, -0.136905, 1.074373, 0.263673, 69.902985, 149.941467, -592.736206, 13.726145, 100.771849
1759224754.365362, -0.116717, 5.053112, -0.673818, -0.347973, 0.601764, 0.362157, 70.190979, 150.278152, -593.365540, 13.726145, 100.771849
1759224754.385356, -0.016161, 4.327071, -0.264110, -0.563595, -0.180183, 0.325933, 70.291199, 150.543045, -592.504456, 13.726145, 100.771849
1759224754.404827, -0.434398, 2.495656, 0.608726, -0.706560, -1.020015, 0.288996, 69.974045, 151.235123, -592.679443, 13.726145, 100.771849
1759224754.425353, 0.242114, 0.483030, 0.830638, -0.660488, -2.125722, 0.345513, 68.897598, 151.794754, -591.208435, 13.726145, 100.771849
1759224754.444474, -0.222960, -0.908450, 0.032771, -0.677211, -2.795931, 0.309743, 67.836182, 152.293610, -588.055786, 13.726145, 100.771849
1759224754.465361, -0.870442, 6.707955, 0.928501, -0.318273, -3.285877, 0.479108, 66.207840, 152.735855, -585.257446, 13.726145, 100.771849
1759224754.485352, 5.222951, 31.484650, 4.051737, -0.227383, -5.431157, 1.649461, 63.700089, 153.745407, -581.771118, 13.726145, 100.771849
1759224754.504844, -3.252373, 15.201535, -12.361413, 0.582837, -0.515195, -0.614595, 64.897888, 153.589890, -580.999268, 13.726145, 100.771849
1759224754.525357, 5.248090, 4.887912, 0.443975, 1.187104, -0.750386, 0.108250, 64.698013, 153.132477, -581.179321, 13.726145, 100.771849
1759224754.544490, 8.566154, 1.180341, 3.797204, 0.313142, -2.053953, 1.767525, 63.886322, 154.313950, -579.872742, 13.726145, 100.771849
1759224754.565360, 8.619126, 4.639514, 4.533122, -0.238842, -3.959124, 2.538070, 63.607758, 156.217239, -577.115051, 13.726145, 100.771849
1759224754.585358, 9.077466, 12.076503, 2.912097, -0.747105, -2.723023, 3.068243, 64.187424, 158.729797, -573.088867, 13.726145, 100.771849
1759224754.604863, 4.700566, 20.201974, 4.283526, -1.720717, 0.247565, 3.507000, 65.417740, 161.558624, -572.964966, 13.726145, 100.771849
1759224754.625352, -2.873940, 24.648156, 4.077625, -1.305674, 2.735552, 2.550278, 67.196030, 163.446732, -572.598572, 13.726145, 100.771849
1759224754.644510, -7.749881, 25.238178, 5.483919, -0.250639, -0.029106, 1.514442, 68.558151, 164.973251, -572.559937, 13.726145, 100.771849
1759224754.665355, -9.703250, 22.826019, 0.640898, -1.723244, -2.854424, 1.361514, 69.431503, 166.279358, -569.694214, 13.726145, 100.771849
1759224754.685354, -11.240777, 15.568147, -11.087698, -2.620545, -0.984490, 1.359995, 70.118408, 167.295578, -567.948120, 13.726145, 100.771849
1759224754.704871, -4.494515, 10.881347, -11.398794, 0.007714, 1.984169, 1.196836, 70.111420, 168.232864, -570.592285, 13.726145, 100.771849
1759224754.725362, -0.211588, 9.861567, 1.529895, -0.026501, 0.041425, 0.589319, 70.342728, 168.436310, -570.541748, 13.726145, 100.771849
1759224754.744524, -1.823185, 8.223035, -3.718943, -0.035988, -0.045631, 0.178684, 70.977356, 168.740601, -570.783325, 13.726145, 100.771849
1759224754.765352, -4.060716, 4.320337, -2.607136, 0.225475, 1.422903, -0.144720, 71.342285, 168.747452, -571.574585, 13.726145, 100.771849
1759224754.785350, -6.957999, 1.084124, -0.445471, 0.338405, 2.715256, -0.694503, 71.418243, 168.241791, -572.822510, 13.726145, 100.771849
1759224754.804890, -8.140286, -2.759916, 0.808492, 0.056556, 2.555376, -1.620353, 71.106155, 167.435333, -575.185181, 13.726145, 100.771849
1759224754.825419, -7.221960, -3.287239, -2.804508, 0.208201, 0.300129, -2.152039, 70.663376, 166.153015, -575.294922, 13.726145, 100.771849
1759224754.844538, -4.164863, 0.770484, -5.865644, 1.598293, -0.469186, -1.879038, 69.575226, 164.653687, -575.738342, 13.726145, 100.771849
1759224754.865360, -2.010082, 7.602189, -2.841319, 2.535441, 0.937618, -1.847704, 68.435883, 162.866196, -577.643738, 13.726145, 100.771849
1759224754.885352, -0.199766, 15.507095, 0.573561, 2.660734, 1.878248, -1.887562, 68.432022, 160.875763, -578.388306, 13.726145, 100.771849
1759224754.904897, 5.235072, 29.489980, 5.430349, 2.582278, 1.678963, -0.401637, 68.970551, 159.478409, -580.374146, 13.726145, 100.771849
1759224754.924403, 5.814319, 41.384524, 14.518140, 0.221862, -0.527153, 1.059082, 67.402817, 159.733170, -582.021301, 13.726145, 100.771849
1759224754.944556, 7.826645, 26.061933, -1.946785, -0.402002, -2.733069, -2.385622, 66.497864, 159.093597, -581.506226, 13.726145, 100.771849
1759224754.965353, 4.820725, 16.416592, -4.099921, -0.608731, -0.654255, -3.170997, 66.639938, 157.324631, -579.504089, 13.726145, 100.771849
1759224754.985354, 0.351499, 16.616059, -0.975039, -0.377594, 1.346880, -2.392176, 66.466400, 155.480957, -579.258057, 13.726145, 100.771849
1759224755.004922, -0.095618, 16.722301, 0.638204, 0.150056, 2.091199, -1.588029, 66.758270, 154.265671, -581.310059, 13.726145, 100.771849
1759224755.025357, 2.147000, 10.287436, 2.200870, 0.656634, 1.766419, -0.776537, 66.845795, 153.343094, -583.501770, 13.726145, 100.771849
1759224755.044571, 5.707029, 4.150349, 0.804601, 0.878652, 1.924694, -0.199314, 67.221283, 152.971573, -585.740234, 13.726145, 100.771849
1759224755.065358, 9.228301, -1.490540, 0.231938, 0.523673, 1.605155, 0.565404, 67.450760, 153.093460, -587.664307, 13.726145, 100.771849
1759224755.085343, 10.532392, -6.293009, 1.830816, 0.036042, 0.420672, 1.066107, 68.177185, 153.432343, -587.944336, 13.726137, 100.771829
1759224755.104934, 7.733870, -8.819640, 2.163909, -0.629848, -0.488424, 1.302621, 68.638870, 154.779587, -588.259521, 13.726137, 100.771829
1759224755.125394, 0.722151, -8.131307, -0.445172, -0.823895, -0.648542, 1.231968, 69.090439, 155.981064, -586.768677, 13.726137, 100.771829
1759224755.144589, -1.483956, -1.450138, -2.383877, -0.543203, -0.441380, 0.913291, 69.169220, 156.989319, -586.100525, 13.726137, 100.771829
1759224755.165356, -6.034136, 5.123442, -0.615609, -0.265641, -0.234248, 0.103289, 69.397141, 157.403717, -585.420288, 13.726137, 100.771829
1759224755.185181, -8.791957, 10.753856, 2.047192, -0.293335, -4.313350, -1.247307, 67.879562, 156.513977, -582.675781, 13.726137, 100.771829
1759224755.204949, -10.352079, 23.977181, 9.586982, -0.690062, -9.477724, -2.793818, 65.333359, 155.225372, -574.992188, 13.726137, 100.771829
1759224755.225354, 14.142699, 43.958440, 9.969905, -1.293558, -2.441035, 0.691750, 63.001175, 154.815750, -572.562256, 13.726137, 100.771829
1759224755.244605, 5.490353, 2.795380, -49.766175, 5.896954, 7.237927, 0.663873, 63.546677, 154.880829, -578.464294, 13.726137, 100.771829
1759224755.264489, 8.529194, -2.029086, 10.882095, 3.659497, 2.751299, 1.518848, 65.686295, 154.589050, -582.564026, 13.726137, 100.771829
1759224755.285195, 5.666926, -0.039654, 28.516588, -2.019092, -4.755682, 1.509134, 65.428802, 155.490509, -580.262024, 13.726137, 100.771829
1759224755.304987, 3.207183, 2.053926, 1.988833, -3.843447, -6.536638, 1.473147, 64.056763, 157.674698, -574.676819, 13.726137, 100.771829
1759224755.325370, 10.958411, 20.538958, -8.592341, -2.268919, -0.641186, 1.231571, 64.036560, 158.887527, -570.087891, 13.726137, 100.771829
1759224755.344621, 15.633089, 41.161564, -5.113566, 1.258500, 5.364355, 4.478281, 66.745392, 161.524155, -572.764282, 13.726137, 100.771829
1759224755.364735, -9.694571, 30.267198, -9.087492, -0.042518, 7.361622, 4.759514, 69.645996, 164.577011, -578.640320, 13.726137, 100.771829
1759224755.385352, -15.554530, 14.146889, 1.644368, -1.893304, -0.544305, 0.948168, 72.001953, 166.437744, -578.432495, 13.726137, 100.771829
1759224755.404988, -8.347085, 12.937218, -4.564994, -1.515825, -0.977373, 0.356930, 72.387405, 167.372879, -576.973999, 13.726137, 100.771829
1759224755.425346, -6.878990, 9.174730, -5.080047, -0.670126, 0.144640, 1.022726, 72.742691, 167.783813, -576.497375, 13.726137, 100.771829
1759224755.444639, -4.916643, 4.239383, -2.480094, -0.650458, 0.477480, 0.984969, 72.695633, 168.736862, -577.436340, 13.726137, 100.771829
1759224755.465353, -6.403592, 2.641852, -1.391630, -0.231848, 1.751142, 0.101024, 73.235840, 169.001358, -577.837524, 13.726137, 100.771829
1759224755.485349, -7.113323, -0.576703, -0.230292, 0.003247, 3.167836, -0.538780, 73.886353, 168.590607, -578.914978, 13.726137, 100.771829
1759224755.505003, -6.296152, -3.366397, -0.537498, 0.229045, 2.493032, -1.308664, 74.103516, 168.170029, -581.269043, 13.726137, 100.771829
1759224755.524350, -3.345298, -3.296666, -4.655974, 0.748133, 0.974153, -1.646880, 73.841202, 166.810135, -582.375366, 13.726137, 100.771829
1759224755.544656, 0.019453, -0.142006, -7.668927, 1.608462, 0.524494, -1.569751, 72.923401, 165.411545, -584.048767, 13.726137, 100.771829
1759224755.565354, 1.574487, 2.494908, -3.288137, 2.830661, 0.248612, -1.650319, 72.131577, 163.589966, -585.271484, 13.726137, 100.771829
1759224755.584985, 0.481235, 5.310040, 0.157119, 3.609857, -0.644524, -1.667318, 71.317429, 161.075272, -585.724731, 13.726137, 100.771829
1759224755.605012, -0.285658, 18.685547, 3.589656, 3.231789, 1.137526, -1.691563, 70.822021, 158.269684, -586.682373, 13.726137, 100.771829
1759224755.625356, 2.613870, 49.981055, 9.962872, 1.175425, 1.765329, -1.185492, 70.597214, 156.060547, -586.793030, 13.726137, 100.771829
1759224755.644671, -1.082179, 40.399011, 6.780080, -0.578067, -4.927938, -2.169119, 68.840286, 155.075668, -586.993774, 13.726137, 100.771829
1759224755.665348, 8.129512, 25.515306, -8.395268, -0.233585, -1.734309, -2.743223, 67.097443, 153.466843, -584.613037, 13.726137, 100.771829
1759224755.685326, 7.157616, 16.054319, -1.236605, -0.171656, 0.636069, -1.670977, 66.728119, 151.800095, -584.617798, 13.726137, 100.771829
1759224755.705035, -1.640926, 13.719374, 0.661099, -0.628056, 3.259800, -1.262576, 67.703140, 151.006805, -585.924072, 13.726137, 100.771829
1759224755.725354, 1.006762, 14.033314, 3.623624, -0.256686, 2.451539, -0.684529, 68.733841, 150.551666, -587.734619, 13.726137, 100.771829
1759224755.744687, 5.516540, 7.735217, 1.185878, 0.683972, 1.273957, 0.024420, 69.479324, 150.233719, -590.344421, 13.726137, 100.771829
1759224755.765352, 10.474034, 0.589722, -1.926135, 0.617004, 1.097783, 0.594146, 69.518646, 150.008026, -591.883301, 13.726137, 100.771829
1759224755.785346, 11.505635, -4.970063, 1.842787, -0.241952, 0.209365, 0.803913, 69.740723, 150.389999, -592.202515, 13.726137, 100.771829
1759224755.805045, 8.490737, -6.173898, 3.068469, -0.638443, -0.615150, 0.780547, 69.889175, 151.098740, -592.328674, 13.726137, 100.771829
1759224755.825349, 4.525340, -6.607548, 2.058116, -0.609050, -1.150931, 1.032729, 70.503647, 151.946365, -590.290222, 13.726137, 100.771829
1759224755.844700, 0.997335, -6.557868, -1.151761, -0.443841, -1.683730, 1.436242, 70.165222, 152.974548, -589.498535, 13.726137, 100.771829
1759224755.865340, 0.488716, -2.876334, -2.083255, -0.680602, 0.765304, 1.061302, 69.898514, 154.049561, -589.430054, 13.726137, 100.771829
1759224755.885332, -5.698050, 6.133795, 1.143082, -0.513365, -1.150817, -0.487715, 70.240616, 154.514496, -588.644287, 13.726137, 100.771829
1759224755.905051, -10.918757, 10.128670, 3.171569, -1.090471, -7.005087, -2.655978, 68.673615, 153.582886, -584.741882, 13.726137, 100.771829
1759224755.924384, -6.570138, 14.420726, 3.760842, -1.379397, -7.213116, -2.515253, 65.994186, 152.218994, -578.314453, 13.726137, 100.771829
1759224755.944719, -0.662595, 10.812364, 0.051176, -0.203962, -3.841079, -0.902347, 64.523743, 151.558197, -575.809143, 13.726137, 100.771829
1759224755.965352, 8.700080, 31.937004, 13.446585, -1.246951, 2.440800, 3.065375, 63.758255, 152.934540, -575.734009, 13.726137, 100.771829
1759224755.985345, -10.682180, 18.435353, -15.502306, 2.328839, -2.197083, 0.552763, 63.492981, 153.630981, -577.284851, 13.726137, 100.771829
1759224756.005091, 4.541202, -0.450858, -8.666860, 2.679258, 0.563990, -1.573379, 63.991425, 151.614548, -577.604431, 13.726137, 100.771829
1759224756.025362, 7.907001, 5.491401, 4.820126, 0.405377, 0.476255, -0.001846, 64.257584, 151.265793, -576.241455, 13.726137, 100.771829
1759224756.044743, 12.214768, 13.097331, 11.244218, -1.239516, -2.232073, 2.777600, 63.770050, 153.177353, -575.099487, 13.726137, 100.771829
1759224756.065348, 15.300894, 32.902915, 4.062062, 0.445113, -2.200903, 5.138333, 63.920288, 157.551727, -574.113586, 13.726137, 100.771829
1759224756.085343, 4.501698, 32.592566, 4.753238, -1.407058, 7.722159, 4.241933, 68.363388, 160.722000, -576.725525, 13.726117, 100.771827
1759224756.105109, -4.287866, 24.672398, -1.725172, -4.477772, 8.813189, 3.886976, 72.400177, 164.275009, -581.303345, 13.726117, 100.771827
1759224756.125353, -11.173290, 13.729849, -19.846136, -2.140474, -3.106747, 2.201333, 73.127960, 166.747238, -578.635986, 13.726117, 100.771827
1759224756.144761, -4.076577, 7.582137, -12.164340, -0.148129, 1.111826, 1.563217, 73.707718, 167.740158, -579.859985, 13.726117, 100.771827
1759224756.165351, -0.944961, 6.716484, 3.469946, -0.569867, -0.640452, 1.214602, 74.903915, 168.630035, -579.624023, 13.726117, 100.771827
1759224756.185191, -5.008820, 3.175609, -3.248782, -0.022410, 0.450954, 0.787729, 75.418427, 168.941879, -579.208679, 13.726117, 100.771827
1759224756.205113, -7.523031, 1.702128, -0.457293, 0.415314, 1.364608, 0.122165, 75.935898, 169.116333, -580.176453, 13.726117, 100.771827
1759224756.225291, -8.119486, -1.643171, 1.861791, 0.498195, 1.538280, -0.794616, 75.980682, 168.429062, -580.810669, 13.726117, 100.771827
1759224756.244777, -6.068703, -2.942025, -0.817321, 0.425818, 0.904633, -1.575079, 75.572601, 167.465286, -582.174683, 13.726117, 100.771827
1759224756.265347, -4.504391, -2.653224, -3.446154, 0.836820, 0.764912, -1.950964, 75.176239, 166.126312, -583.046021, 13.726117, 100.771827
1759224756.285345, -1.754202, -1.360056, -4.979790, 1.590161, 0.837352, -1.849395, 74.059677, 164.399521, -584.145508, 13.726117, 100.771827
1759224756.305134, 1.591396, 2.302324, -4.334253, 2.352030, 0.384698, -1.582431, 73.374207, 162.499359, -585.940552, 13.726117, 100.771827
1759224756.325354, 0.922366, 3.305345, -0.369306, 3.062176, -0.730184, -1.607280, 72.718201, 160.020981, -585.921143, 13.726117, 100.771827
1759224756.344791, -1.176900, 10.110115, 2.317138, 3.100450, -1.082868, -1.899833, 71.612900, 157.830414, -586.597656, 13.726117, 100.771827
1759224756.365346, 0.078260, 31.220090, 4.911705, 1.903406, 1.935470, -2.089915, 71.432419, 155.326691, -585.786255, 13.726117, 100.771827
1759224756.385347, 9.823409, 67.082987, 9.229049, 0.247983, -1.698922, -0.868027, 70.056229, 154.344086, -586.104431, 13.726117, 100.771827
1759224756.405192, 1.997213, 24.976162, -1.250970, -0.734214, -3.607123, -2.307664, 68.031357, 153.747620, -586.106201, 13.726117, 100.771827
1759224756.425363, 11.680113, 18.640057, -1.785027, -0.729750, -1.142216, -2.907773, 68.430527, 151.804260, -583.224121, 13.726117, 100.771827
1759224756.444807, -4.097826, 16.008979, -6.079028, -0.419075, 0.894762, -2.076068, 68.756989, 151.059677, -583.505432, 13.726117, 100.771827
1759224756.465349, -1.994370, 16.677410, -2.106598, 0.348151, 3.050465, -0.852425, 69.311035, 150.093369, -585.868042, 13.726117, 100.771827
1759224756.485104, 4.092738, 7.577499, 3.427599, 0.641547, 2.242561, -0.031812, 69.540680, 149.543900, -588.218506, 13.726117, 100.771827
1759224756.505166, 8.844630, 1.367089, 1.713051, 0.850311, 1.812131, 0.414090, 70.662491, 149.449265, -590.320923, 13.726117, 100.771827
1759224756.525351, 9.907356, -3.005172, 1.624765, 0.336730, 1.918943, 1.147238, 71.569855, 149.677582, -591.381348, 13.726117, 100.771827
1759224756.544813, 8.303391, -7.083096, 3.871424, -0.225784, 0.413901, 1.243343, 72.393692, 150.689514, -592.839966, 13.726117, 100.771827
1759224756.565347, 4.955249, -8.606407, 4.444835, -1.229791, -0.915911, 1.315249, 72.786179, 151.875031, -591.833557, 13.726117, 100.771827
1759224756.585318, 0.430358, -8.056638, 3.029413, -1.589840, -1.493804, 1.362929, 72.638107, 153.585358, -590.086304, 13.726117, 100.771827
1759224756.605180, -1.710956, -2.904466, -1.662025, -1.243169, -2.144690, 0.817051, 71.383514, 154.956802, -588.591309, 13.726117, 100.771827
1759224756.625342, -6.300192, 9.267955, -7.726538, -0.093436, -0.221372, -0.860368, 70.842636, 154.636429, -586.070679, 13.726117, 100.771827
1759224756.644836, -4.832247, 17.807174, 1.740585, -1.345930, -4.346987, -2.237535, 69.715988, 154.005997, -583.886169, 13.726117, 100.771827
1759224756.665343, -5.638495, 10.961553, 2.254889, -1.033320, -6.823935, -2.137889, 67.382599, 152.972504, -579.622437, 13.726117, 100.771827
1759224756.685344, 8.997410, 20.400693, 6.679074, 0.424712, -5.878122, 0.137496, 65.042343, 152.369171, -572.949402, 13.726117, 100.771827
1759224756.705189, 2.438045, 20.917841, -12.195614, 0.446809, 0.714933, 0.607991, 62.656250, 153.239349, -575.357178, 13.726117, 100.771827
1759224756.725340, 4.746654, 6.717681, -2.828300, 2.314177, 0.385196, -1.316425, 64.557541, 151.936218, -574.418640, 13.726117, 100.771827
1759224756.744851, 5.343409, 2.842965, 5.267393, 0.205574, -0.704098, 0.526809, 64.809433, 151.812820, -575.379150, 13.726117, 100.771827
1759224756.765348, 7.630321, 7.227796, 8.147917, -1.238470, -2.351103, 2.557589, 64.936493, 153.325150, -573.542725, 13.726117, 100.771827
1759224756.785338, 15.389330, 29.564500, 7.445967, -0.564020, -2.889791, 6.585350, 64.819489, 157.080154, -570.383728, 13.726117, 100.771827
1759224756.805192, 2.243666, 40.378810, 2.711134, 1.672758, 6.415345, 4.828259, 67.186401, 161.402695, -573.330566, 13.726117, 100.771827
1759224756.825329, -4.442441, 30.041994, 0.218022, -4.759135, 11.736944, 4.174465, 73.456223, 164.820801, -578.130859, 13.726117, 100.771827
1759224756.844867, -12.774263, 13.990517, -19.330186, -1.803106, -3.272883, 1.888608, 73.799850, 167.653488, -577.823730, 13.726117, 100.771827
1759224756.865346, -2.681506, 8.544307, -0.882712, -0.940266, 0.464496, 1.572856, 74.473236, 168.478958, -577.268616, 13.726117, 100.771827
1759224756.885343, -1.133654, 3.728969, -5.028721, -1.081966, 0.363029, 1.318727, 75.233063, 169.484985, -576.444336, 13.726117, 100.771827
1759224756.905223, -2.903718, 2.970755, -4.773440, -0.597886, 0.867204, 1.053255, 76.268631, 170.280777, -576.823669, 13.726117, 100.771827
1759224756.925332, -7.930943, 2.589628, -0.230442, -0.017758, 1.923783, 0.277228, 77.089966, 170.693314, -576.678589, 13.726117, 100.771827
1759224756.944883, -9.034670, -1.566706, 1.253365, 0.195737, 2.058883, -0.699009, 77.502151, 170.659439, -578.927002, 13.726117, 100.771827
1759224756.965340, -7.069030, -3.191770, -3.046173, 0.600127, 0.777438, -1.457855, 77.134232, 170.090027, -579.992981, 13.726117, 100.771827
1759224756.985339, -4.115483, -1.994669, -5.593454, 1.122579, 0.440087, -1.750373, 75.872635, 168.899811, -580.232788, 13.726117, 100.771827
1759224757.005236, 1.635240, 1.522862, -4.114585, 1.839636, 0.833727, -1.633215, 74.942337, 167.378479, -582.455017, 13.726117, 100.771827
1759224757.025327, 2.778621, 2.252495, -2.697517, 2.413836, 0.442038, -1.231200, 74.169678, 165.591309, -582.805176, 13.726117, 100.771827
1759224757.044898, -0.239121, 4.189254, -0.472855, 3.053843, 0.296728, -1.385074, 73.469711, 163.940643, -585.576416, 13.726117, 100.771827
1759224757.065341, -2.854038, 12.362909, 1.550246, 3.480997, 0.116874, -1.907438, 72.467712, 161.551025, -586.602539, 13.726117, 100.771827
1759224757.085337, -2.619257, 27.543494, 6.770054, 1.925192, 0.731762, -3.070566, 71.409576, 158.493362, -586.783752, 13.726093, 100.771833
1759224757.105254, 6.025457, 57.695621, 6.493673, 0.614073, -2.860485, -2.536647, 70.252304, 156.005066, -585.806824, 13.726093, 100.771833
1759224757.125322, 3.186383, 33.750911, 0.817171, -0.245464, -2.765603, -2.589337, 66.572449, 153.321381, -585.360596, 13.726093, 100.771833
1759224757.144917, 15.754296, 23.696761, 1.709610, -0.319283, -1.420501, -2.213158, 65.842728, 152.318008, -585.570557, 13.726093, 100.771833
1759224757.165318, 5.000141, 9.232491, -3.906140, -0.417313, -0.038909, -1.593805, 66.448181, 150.841690, -584.210693, 13.726093, 100.771833
1759224757.185326, -1.067964, 11.358991, -1.848024, -0.186724, 2.916065, -0.910747, 67.503220, 149.963745, -585.199707, 13.726093, 100.771833
1759224757.205257, 0.192584, 11.090391, 1.697489, 0.080319, 2.101019, -0.336746, 67.891083, 149.431961, -587.921265, 13.726093, 100.771833
1759224757.225325, 4.747253, 4.605397, 0.665887, 0.735265, 0.858330, -0.088001, 67.794983, 149.063232, -589.362732, 13.726093, 100.771833
1759224757.244939, 10.459519, -2.092383, 0.048632, 0.354750, 0.253680, 0.527790, 67.823288, 149.096024, -590.016296, 13.726093, 100.771833
1759224757.265325, 10.525509, -6.952013, 2.386421, -0.069998, -0.182259, 1.013662, 68.016754, 149.487656, -590.258545, 13.726093, 100.771833
1759224757.285322, 8.224831, -8.626159, 3.023278, -0.351535, -0.378619, 1.264927, 68.678711, 150.322586, -588.574036, 13.726093, 100.771833
1759224757.305291, 1.683573, -8.540566, 3.007117, -0.362708, -0.749255, 1.573417, 68.635956, 151.743423, -588.509888, 13.726093, 100.771833
1759224757.325324, 0.019154, -4.088399, 0.233734, -0.396859, -0.123786, 1.189887, 68.249741, 152.737061, -588.296570, 13.726093, 100.771833
1759224757.344948, 0.197222, 3.700688, 0.062698, -0.951910, 1.327497, 0.491916, 68.495514, 153.230774, -587.983765, 13.726093, 100.771833
1759224757.365065, -12.372336, 14.030022, 1.747468, -0.891478, -5.001925, -1.995389, 66.978348, 152.698364, -583.537354, 13.726093, 100.771833
1759224757.384676, -9.131784, 16.486323, 4.328567, -2.472430, -8.158235, -2.774685, 64.695740, 151.262039, -576.203674, 13.726093, 100.771833
1759224757.405310, -1.568651, 12.413936, 0.553509, -0.817353, -3.744092, -1.241267, 63.073532, 150.135880, -573.241333, 13.726093, 100.771833
1759224757.425360, 9.806351, 35.121592, 5.616049, 0.349672, 0.027963, 2.022573, 61.773788, 151.198685, -574.904907, 13.726093, 100.771833
1759224757.444966, -2.435053, 7.191434, -21.369447, 4.147162, 2.381931, -0.462758, 62.852570, 150.281815, -577.230103, 13.726093, 100.771833
1759224757.465341, 6.510433, 1.721730, 4.547487, 1.240458, 1.824198, -0.307942, 64.225418, 149.650055, -578.726440, 13.726093, 100.771833
1759224757.485337, 7.658453, 7.656058, 8.145373, -0.890786, -0.181393, 1.682445, 64.690918, 150.817322, -576.932373, 13.726093, 100.771833
1759224757.505328, 13.646201, 23.506422, 8.857050, -2.150825, -4.339559, 5.658741, 62.913895, 154.881531, -575.662476, 13.726093, 100.771833
1759224757.525357, 7.840113, 37.238664, 0.710629, 0.900677, 0.662944, 4.505570, 65.506012, 159.599579, -573.759216, 13.726093, 100.771833
1759224757.544978, 1.246481, 31.057434, -2.086996, -3.129711, 10.481202, 3.965854, 70.270142, 162.721207, -578.974548, 13.726093, 100.771833
1759224757.565334, -14.478935, 16.461034, -17.806127, -2.740715, 0.122185, 2.464783, 72.933197, 165.599228, -580.320679, 13.726093, 100.771833
1759224757.585337, -6.519561, 8.266879, -11.590181, -0.556550, 0.074717, 1.735848, 73.255127, 166.771179, -579.441772, 13.726093, 100.771833
1759224757.605339, -0.186897, 5.902006, 0.026785, -0.683100, -0.398301, 1.483073, 73.725647, 167.809570, -580.166199, 13.726093, 100.771833
1759224757.625340, -2.517204, 3.036147, -3.319561, 0.038682, 0.144728, 0.973231, 74.719482, 168.722794, -580.193115, 13.726093, 100.771833
1759224757.644996, -6.819285, 0.525228, 0.192434, 0.576193, 1.006645, 0.452979, 75.333755, 168.617645, -579.745178, 13.726093, 100.771833
1759224757.665338, -7.932289, -3.132663, 1.993771, 0.732564, 1.185403, -0.489886, 75.385925, 168.420883, -581.980774, 13.726093, 100.771833
1759224757.685313, -6.401946, -3.197606, -1.654094, 0.693451, 0.554305, -1.344855, 75.104034, 167.246567, -581.930298, 13.726093, 100.771833
1759224757.705338, -5.238813, -1.774552, -3.742736, 0.962647, 0.568600, -1.796742, 74.452423, 166.252487, -583.529297, 13.726093, 100.771833
1759224757.725332, -1.141436, 0.031274, -4.400842, 1.602259, 0.780929, -1.562094, 73.566040, 164.537094, -585.091064, 13.726093, 100.771833
1759224757.745015, 0.909797, 1.714248, -3.388843, 2.302545, 0.225376, -1.444350, 72.707932, 162.758774, -585.880676, 13.726093, 100.771833
1759224757.765338, 0.353444, 5.114164, 0.525976, 3.041292, -0.814470, -1.742197, 71.887970, 160.651764, -586.473633, 13.726093, 100.771833
1759224757.785334, -1.144728, 17.229872, 1.073650, 2.603541, -0.152832, -2.096761, 70.616623, 157.767624, -585.643433, 13.726093, 100.771833
1759224757.805338, 3.397372, 37.433343, 3.739294, 1.401331, 0.545006, -2.124755, 69.956512, 155.801590, -586.453918, 13.726093, 100.771833
1759224757.825354, 6.872406, 52.700718, 4.270208, 0.595708, -2.030718, -2.154110, 68.445206, 154.012314, -586.424683, 13.726093, 100.771833
1759224757.845031, 3.558981, 35.511398, 0.108637, -0.025259, -2.176705, -3.014274, 66.954102, 151.835571, -585.178650, 13.726093, 100.771833
1759224757.865320, 6.644359, 16.081853, -3.409642, 0.102405, -1.062981, -2.193673, 66.602676, 150.723404, -584.873657, 13.726093, 100.771833
1759224757.885318, -0.445770, 12.426206, -1.707066, 0.137420, 2.946473, -1.362608, 67.574326, 149.122589, -585.342529, 13.726093, 100.771833
1759224757.905318, -0.958728, 12.675951, 2.439841, 0.583779, 2.571769, -0.907427, 68.473083, 148.386154, -588.248962, 13.726093, 100.771833
1759224757.925315, 3.181295, 6.691494, 0.884209, 1.243700, 1.608504, -0.348098, 68.887909, 147.376297, -590.849670, 13.726093, 100.771833
1759224757.945046, 4.493168, 2.745102, 0.807893, 1.312941, 1.286990, -0.263075, 69.216431, 146.585464, -591.935486, 13.726093, 100.771833
1759224757.965338, 9.053075, -3.728371, -0.024092, 0.417499, 1.548919, 0.049555, 70.014297, 146.247086, -593.691040, 13.726093, 100.771833
1759224757.985350, 9.837326, -8.934263, 4.802020, -0.184643, 0.762791, 0.477888, 70.696991, 146.950806, -592.937988, 13.726093, 100.771833
1759224758.005339, 6.050297, -12.663381, 6.934356, -1.625376, -0.970976, 0.883617, 70.634872, 148.170715, -592.430115, 13.726093, 100.771833
1759224758.025357, 0.565929, -10.784232, 0.810288, -0.713510, -0.848120, 0.838734, 70.009308, 148.980652, -591.712280, 13.726093, 100.771833
1759224758.045063, 1.915062, -2.340931, -0.859369, -0.281867, 0.039427, 0.981819, 70.135651, 149.599426, -590.875244, 13.726093, 100.771833
1759224758.065336, 1.441908, 4.717176, -3.711162, -0.220573, 1.437510, 0.653161, 69.952026, 149.983566, -590.837524, 13.726093, 100.771833
1759224758.085098, -9.853487, 12.439673, 4.161422, -0.755044, -5.834836, -1.484971, 67.033737, 149.115936, -583.866272, 13.726074, 100.771836
1759224758.105334, -8.495076, 16.010027, 6.190358, -2.587723, -9.842845, -2.290402, 64.291702, 148.655411, -577.471680, 13.726074, 100.771836
1759224758.125341, 3.181744, 19.490896, -4.177283, -1.085494, -4.305388, -0.150112, 62.115280, 148.984909, -574.872742, 13.726074, 100.771836
1759224758.145078, 5.559336, 36.146011, -3.959112, 1.832728, 2.099616, 2.028688, 62.309021, 148.962112, -577.711914, 13.726074, 100.771836
1759224758.165333, 3.083732, 4.603152, -1.244237, 2.066928, 1.529652, -0.798788, 63.924210, 148.287277, -579.528381, 13.726074, 100.771836
1759224758.185331, 3.043629, 0.779911, 3.763386, 0.489634, 0.818012, 0.046840, 64.063293, 148.312408, -578.405029, 13.726074, 100.771836
1759224758.205336, 5.931784, 4.475661, 10.966341, -1.885700, -2.218968, 1.543818, 63.916306, 150.811691, -575.771729, 13.726074, 100.771836
1759224758.225342, 17.019931, 21.885098, 9.528773, -3.032715, -4.089335, 5.873866, 62.768402, 155.955627, -574.675720, 13.726074, 100.771836
1759224758.245104, 7.263260, 37.363313, -2.847903, 1.377342, 3.803764, 6.706491, 67.218613, 161.038788, -577.134399, 13.726074, 100.771836
1759224758.264777, -2.411410, 34.860624, 0.681599, -2.821520, 14.135879, 5.095588, 73.321716, 165.140564, -584.391479, 13.726074, 100.771836
1759224758.285331, -11.638214, 18.180670, -17.182138, -2.642028, -0.149492, 2.260080, 74.550583, 167.173553, -583.329224, 13.726074, 100.771836
1759224758.305334, -0.104746, 8.790162, -6.039374, -0.787459, -1.596950, 1.783036, 75.179413, 168.603058, -583.038147, 13.726074, 100.771836
1759224758.325340, -1.828272, 4.861277, -3.964648, -0.672513, 0.255392, 1.338728, 76.131210, 169.579147, -583.141113, 13.726074, 100.771836
1759224758.345110, -5.071218, 2.100014, -4.509030, 0.195583, -0.167306, 0.665895, 76.893967, 169.724426, -582.334351, 13.726074, 100.771836
1759224758.365325, -6.730400, 1.179294, -2.526032, 0.798549, 0.573103, 0.194930, 77.281326, 169.721420, -583.615112, 13.726074, 100.771836
1759224758.385332, -8.765172, -0.736965, 0.159813, 0.849595, 1.667827, -0.561365, 77.173538, 168.828979, -584.215393, 13.726074, 100.771836
1759224758.405336, -8.465149, -0.907253, 0.091279, 0.730358, 1.629607, -1.622253, 76.871445, 167.879517, -586.519714, 13.726074, 100.771836
1759224758.425328, -5.888689, -1.078438, -2.961179, 0.929427, 1.388245, -2.305986, 76.421585, 165.935822, -587.518066, 13.726074, 100.771836
1759224758.445125, -3.150620, -1.331775, -5.840206, 1.794358, 0.442568, -2.318051, 75.798218, 164.020142, -588.190186, 13.726074, 100.771836
1759224758.465332, -0.452953, 1.158494, -5.083489, 2.717684, 1.005768, -1.690390, 74.498535, 161.490677, -590.524719, 13.726074, 100.771836
1759224758.485329, 0.138116, 4.236241, 4.791845, 3.220952, -0.159011, -2.065731, 73.980591, 158.454086, -590.285217, 13.726074, 100.771836
1759224758.505359, -3.044377, 15.402049, 3.235913, 3.401051, -0.641509, -2.560113, 72.462036, 155.308197, -590.893982, 13.726074, 100.771836
1759224758.525077, -3.288137, 40.627358, 8.409783, 0.633164, -0.140955, -3.683024, 71.024643, 152.503616, -589.146118, 13.726074, 100.771836
1759224758.545138, 6.310367, 60.422617, 0.278326, -0.084183, -3.874736, -3.276553, 68.452301, 150.191010, -588.216492, 13.726074, 100.771836
1759224758.565324, 12.405107, 42.055499, -2.329857, 0.440292, -0.826212, -3.070240, 66.952148, 147.711075, -589.779907, 13.726074, 100.771836
1759224758.585232, 12.209680, 11.639860, 0.915782, 0.577108, -1.348415, -1.838669, 67.471497, 146.435532, -588.234131, 13.726074, 100.771836
1759224758.605131, 0.116268, 8.068759, -0.166098, -0.485390, 3.990207, -1.610457, 69.493073, 145.569031, -590.448792, 13.726074, 100.771836
1759224758.625350, -2.135628, 14.232182, 3.064877, 0.136814, 3.505854, -1.254173, 71.717361, 144.843048, -592.600830, 13.726074, 100.771836
1759224758.645156, 1.494730, 7.841010, -0.320524, 1.684374, 0.875282, -0.238882, 71.631943, 143.654892, -594.022461, 13.726074, 100.771836
1759224758.665318, 8.605808, -1.017985, -3.545364, 1.279607, 0.587212, 0.306438, 71.598969, 143.152557, -595.797363, 13.726074, 100.771836
1759224758.685327, 13.854646, -7.075464, 3.188478, 0.120925, 0.550391, 1.042102, 71.879532, 143.556290, -595.998291, 13.726074, 100.771836
1759224758.704641, 15.222484, -13.122919, 15.392023, -2.046671, -2.018769, 1.937817, 71.612823, 145.784851, -595.821594, 13.726074, 100.771836
1759224758.725327, 0.606930, -13.804967, -0.258574, -1.633048, -1.119373, 1.549598, 71.841232, 147.875458, -593.386414, 13.726074, 100.771836
1759224758.745172, 0.143054, -3.410690, 0.086790, -0.299533, -1.500835, 1.574981, 70.799866, 149.028580, -592.316650, 13.726074, 100.771836
1759224758.765326, 1.023970, 1.217601, -5.588815, -0.063391, 1.064613, 1.310167, 71.316696, 149.897079, -592.653870, 13.726074, 100.771836
1759224758.785334, -13.012037, 12.218359, 2.683451, -0.055783, -0.261519, -0.842908, 71.069839, 149.432571, -590.204590, 13.726074, 100.771836
1759224758.805323, -12.672958, 22.366183, 5.702988, -2.087299, -7.207661, -3.511992, 68.442871, 148.179260, -585.776062, 13.726074, 100.771836
1759224758.825325, -9.644592, 16.960824, 5.064634, -2.054885, -7.704867, -3.354902, 65.964096, 146.527222, -578.071167, 13.726074, 100.771836
1759224758.845189, 13.389573, 42.306441, 0.935235, 1.508070, -3.228519, 1.178607, 62.944229, 146.890503, -578.239258, 13.726074, 100.771836
1759224758.865305, 0.614711, 2.662203, -24.785823, 4.208287, 6.183825, 0.107587, 64.858200, 145.798737, -582.974976, 13.726074, 100.771836
1759224758.885299, 7.286304, -0.079308, 12.889035, 0.621456, 2.206564, 0.539710, 66.225555, 145.805786, -583.970459, 13.726074, 100.771836
1759224758.905324, 5.417480, 2.323273, 14.669872, -3.595674, -4.209307, 1.983711, 65.367294, 148.749557, -581.435669, 13.726074, 100.771836
1759224758.925378, 9.337237, 10.043975, 1.092504, -3.682314, -4.485413, 4.188836, 65.263031, 152.665100, -576.029602, 13.726074, 100.771836
1759224758.945206, 15.997756, 41.000853, -7.914034, 1.400183, -1.157281, 7.965056, 64.524429, 157.846619, -576.536011, 13.726074, 100.771836
1759224758.965311, 1.546954, 43.957243, -1.993622, 1.652878, 13.139420, 6.661989, 71.398438, 162.304428, -584.413452, 13.726074, 100.771836
1759224758.985319, -13.201478, 21.067329, 3.548955, -5.057981, 6.197623, 3.035043, 77.854691, 165.895050, -586.656799, 13.726074, 100.771836
1759224759.005321, -7.471406, 7.139210, -14.458883, -1.759184, -2.092833, 0.886336, 77.696518, 167.883240, -585.548340, 13.726074, 100.771836
1759224759.025324, 1.841141, 6.045359, -6.080973, -1.141919, -0.439638, 1.283269, 77.847443, 168.988861, -584.492065, 13.726074, 100.771836
1759224759.045213, -2.309058, 2.627187, -7.054216, -0.109465, 0.229076, 1.066455, 79.131226, 169.735336, -583.811401, 13.726074, 100.771836
1759224759.065320, -8.493131, 2.386271, -2.403479, 1.074551, -0.354406, 0.490668, 79.452911, 169.873856, -584.672852, 13.726074, 100.771836
1759224759.085317, -9.001001, 0.153977, 0.999430, 0.875291, 0.862709, -0.251404, 79.471252, 169.307510, -584.600281, 13.726047, 100.771838
1759224759.105120, -7.642292, -0.293439, 1.045518, 0.722612, 1.377612, -1.221531, 79.387741, 168.925156, -586.751160, 13.726047, 100.771838
1759224759.125344, -5.862352, -1.096245, -2.648586, 0.589490, 1.317413, -1.784955, 79.241257, 167.521072, -587.402161, 13.726047, 100.771838
1759224759.145232, -1.194856, -0.751181, -8.423699, 1.550559, 0.422300, -1.452713, 78.626434, 166.196014, -588.493042, 13.726047, 100.771838
1759224759.165316, 3.428497, 1.547851, -3.947739, 2.282373, 0.826497, -0.947123, 78.195801, 164.686752, -590.685791, 13.726047, 100.771838
1759224759.185298, 1.181987, 2.180220, 1.006313, 2.420786, 0.662291, -0.904902, 78.361526, 162.840790, -591.567627, 13.726047, 100.771838
1759224759.205325, -0.004938, 7.583783, 0.484676, 3.676357, -1.402550, -1.340062, 76.914459, 160.476028, -593.306396, 13.726047, 100.771838
1759224759.225329, -0.426018, 28.031463, 3.505411, 3.919605, -0.034761, -2.420652, 75.960800, 157.306702, -591.403442, 13.726047, 100.771838
1759224759.245256, 9.009530, 72.888327, 4.377199, 1.275253, 0.615723, -1.307830, 74.542755, 155.119797, -594.099182, 13.726047, 100.771838
1759224759.265325, 5.896769, 25.533562, 5.124489, 0.724927, -3.659951, -4.318096, 72.755646, 152.823257, -594.108337, 13.726047, 100.771838
1759224759.285326, 11.550377, 24.835952, 4.073136, -1.601892, -4.856428, -4.541417, 70.292664, 150.565399, -589.711182, 13.726047, 100.771838
1759224759.305329, 3.830274, 11.099968, -8.021922, -0.882286, -1.397200, -2.401457, 69.474289, 149.434921, -588.139526, 13.726047, 100.771838
1759224759.325303, -3.073706, 7.984663, -2.677316, 0.509864, 3.062598, -1.082067, 70.285324, 148.275558, -589.163452, 13.726047, 100.771838
1759224759.345272, -1.959504, 6.183774, 5.462221, 0.208544, 4.058480, -0.340482, 71.942291, 147.594315, -592.964783, 13.726047, 100.771838
1759224759.365312, 5.740697, 1.505205, 5.788431, 0.635550, 1.535110, 0.134009, 72.240402, 147.643814, -595.278931, 13.726047, 100.771838
1759224759.385312, 10.267983, -3.717148, 2.302025, 1.058098, 0.983261, 0.478591, 72.832550, 147.335083, -596.094238, 13.726047, 100.771838
1759224759.405317, 12.617443, -7.702296, 7.214927, -0.472101, 0.021876, 0.684799, 73.176468, 147.555115, -597.615845, 13.726047, 100.771838
1759224759.425320, 6.584204, -11.956793, -5.529109, -0.924227, -1.077134, 0.661447, 73.570206, 148.380112, -595.578735, 13.726047, 100.771838
1759224759.445281, 3.812317, -8.730307, 1.561169, -0.048998, -1.834090, 0.900939, 72.637085, 149.043869, -594.309570, 13.726047, 100.771838
1759224759.465321, 4.936245, -0.698808, -7.643788, 0.001402, 1.384017, 1.007103, 72.383698, 149.730850, -594.379089, 13.726047, 100.771838
1759224759.485309, -5.972635, 8.893112, 1.357961, -0.339843, -0.608945, -0.681662, 72.561432, 149.292343, -594.215759, 13.726047, 100.771838
1759224759.504341, -13.431172, 14.665682, 11.006295, -2.175183, -12.618466, -3.496840, 68.525772, 148.669159, -586.898193, 13.726047, 100.771838
1759224759.525354, 2.038812, 23.809438, 4.475212, -3.342434, -5.782638, -1.321509, 65.238739, 148.213486, -578.632935, 13.726047, 100.771838
1759224759.545286, 8.846276, 26.340408, 7.240964, 0.056043, 3.038833, 2.019184, 64.270813, 149.243103, -581.870056, 13.726047, 100.771838
1759224759.565310, -0.069282, 7.671471, -13.423541, 4.261305, -0.864621, 1.144814, 64.711548, 149.617630, -583.062012, 13.726047, 100.771838
1759224759.584420, 5.855469, 5.651962, 1.483806, 0.733156, 4.335223, 1.751251, 66.652237, 149.584000, -584.653564, 13.726047, 100.771838
1759224759.605366, 14.609119, 15.328278, 10.969633, -2.186172, 1.611598, 4.751036, 68.762878, 152.563080, -586.731628, 13.726047, 100.771838
1759224759.625327, 8.076540, 22.648848, 6.870461, -1.609276, -3.273695, 5.578043, 67.551056, 157.349716, -586.588745, 13.726047, 100.771838
1759224759.645285, 10.330531, 39.099408, 4.481347, -2.324635, 3.441469, 4.100230, 71.567123, 161.379013, -582.950439, 13.726047, 100.771838
1759224759.665296, -12.706327, 29.781175, -13.050943, -4.104264, 2.634063, 2.739484, 75.428543, 165.183746, -584.677856, 13.726047, 100.771838
1759224759.685308, -8.349778, 14.968399, -10.102484, -1.861214, -0.601969, 1.847445, 76.636215, 167.359863, -582.483704, 13.726047, 100.771838
1759224759.705317, -2.769193, 7.698107, -3.998167, -1.244260, -0.081745, 2.225322, 76.899963, 169.388382, -582.763733, 13.726047, 100.771838
1759224759.725312, -5.283105, 2.540697, -6.934955, -0.558465, 0.457791, 1.250726, 78.114914, 170.643234, -582.587036, 13.726047, 100.771838
1759224759.745284, -7.118410, 4.853196, -2.858078, 0.482978, 0.505196, 0.599199, 78.828262, 171.128967, -582.390747, 13.726047, 100.771838
1759224759.765315, -7.929147, 2.394950, -0.115371, 0.592053, 0.820115, 0.055081, 79.311066, 171.332077, -582.997437, 13.726047, 100.771838
1759224759.785362, -9.014319, -0.461482, -1.079186, 0.716586, 1.482026, -0.828965, 79.192322, 170.787827, -583.980896, 13.726047, 100.771838
1759224759.805161, -7.103896, -1.533785, -1.774552, 0.928967, 1.820075, -1.914581, 79.133957, 169.838806, -585.755554, 13.726047, 100.771838
1759224759.825325, -3.137302, -2.074725, -3.777601, 1.627439, 1.136665, -2.207767, 78.663971, 168.333176, -587.231262, 13.726047, 100.771838
1759224759.845281, 2.627337, -1.642123, -7.176470, 2.270410, 0.339130, -1.418708, 77.737335, 166.696426, -588.652771, 13.726047, 100.771838
1759224759.865291, 2.281674, 2.222118, -0.516699, 2.720317, 0.298124, -1.206115, 77.071930, 164.774933, -590.188721, 13.726047, 100.771838
1759224759.885287, 0.065990, 5.666776, 1.557578, 3.483425, -1.174899, -1.520238, 76.304474, 162.327042, -590.408325, 13.726047, 100.771838
1759224759.905104, -1.911620, 11.325921, 0.871639, 3.716900, -1.435893, -1.919286, 75.149750, 159.587387, -590.596130, 13.726047, 100.771838
1759224759.925286, -0.530316, 38.856546, 5.022287, 2.489701, 1.135108, -2.540192, 74.067856, 156.832886, -589.808533, 13.726047, 100.771838
1759224759.945283, 6.702418, 69.761500, 4.962133, 1.157530, -2.996185, -2.304610, 71.196426, 155.029465, -591.073914, 13.726047, 100.771838
1759224759.965307, -1.591097, 30.208241, -0.106243, -0.501868, -4.124044, -4.037624, 68.366135, 152.736816, -589.016968, 13.726047, 100.771838
1759224759.985306, 13.351415, 18.506431, -1.655291, -0.691153, -1.768142, -3.307527, 68.025620, 150.874557, -587.269897, 13.726047, 100.771838
1759224760.005301, -0.115371, 8.302642, -2.732233, -0.152290, 2.285470, -2.545202, 69.360291, 149.502579, -588.936646, 13.726047, 100.771838
1759224760.025319, -3.613299, 7.809886, -0.222810, 0.617220, 4.569066, -1.350984, 71.205826, 148.061218, -591.680115, 13.726047, 100.771838
1759224760.045276, 1.774403, 2.870648, 5.348796, 0.617081, 2.914222, 0.057719, 72.048279, 147.735031, -595.279541, 13.726047, 100.771838
1759224760.065302, 7.306804, -2.383278, 5.149628, 0.610281, 0.923338, 0.554161, 72.213608, 147.685944, -596.600830, 13.726047, 100.771838
1759224760.085304, 12.736405, -7.047781, 1.148020, 0.204050, 1.374940, 0.693393, 72.938248, 147.746964, -597.538818, 13.726020, 100.771836
1759224760.105299, 13.365182, -10.765827, 7.251738, -1.040213, 0.091145, 0.698184, 73.364624, 148.689758, -597.750061, 13.726020, 100.771836
1759224760.125300, 7.454197, -14.946851, -3.246986, -1.554948, -1.509914, 1.256493, 72.460098, 150.306290, -596.097168, 13.726020, 100.771836
1759224760.144852, 3.749021, -7.208193, -0.171036, -0.467825, -1.594956, 1.044799, 71.138962, 151.270401, -594.135376, 13.726020, 100.771836
1759224760.165299, 1.073949, 2.060809, -7.428011, -0.188678, 0.624030, 0.357303, 71.185532, 151.712814, -593.630371, 13.726020, 100.771836
1759224760.185311, -10.002975, 16.004789, 0.122254, -0.268410, 0.280321, -1.491061, 70.919662, 150.699097, -591.746765, 13.726020, 100.771836
1759224760.205308, -16.270396, 15.234604, 5.937321, -1.705962, -10.268737, -4.502634, 66.826385, 149.130600, -583.993164, 13.726020, 100.771836
1759224760.225300, -3.657891, 19.746328, 6.077232, -2.552304, -6.900868, -3.247874, 65.532623, 147.385010, -574.746948, 13.726020, 100.771836
1759224760.245277, 4.121020, 66.146106, 15.061923, 0.661004, 0.383380, 2.813785, 62.584518, 148.600922, -580.304626, 13.726020, 100.771836
1759224760.265305, 0.457143, 1.374870, -21.838561, 4.738467, 5.517950, -0.989923, 64.394043, 146.250885, -584.814209, 13.726020, 100.771836
1759224760.285302, 11.020510, -0.326360, 22.236148, -0.241591, 1.038752, 0.400613, 65.735931, 145.966751, -585.105103, 13.726020, 100.771836
1759224760.305302, 8.426243, 1.393575, 9.678411, -4.622383, -4.594497, 2.628981, 64.060883, 150.253113, -582.665771, 13.726020, 100.771836
1759224760.325295, 26.645968, 9.430162, -19.069816, -1.578767, -0.862473, 5.525225, 64.193314, 154.951904, -580.303833, 13.726020, 100.771836
1759224760.345273, 9.321525, 23.899370, -0.282217, 0.854597, 0.428757, 6.421609, 66.271866, 159.834122, -580.192566, 13.726020, 100.771836
1759224760.365298, 1.989282, 45.064412, 2.706346, 0.873244, 9.903322, 5.873539, 72.396301, 163.934097, -585.532288, 13.726020, 100.771836
1759224760.385302, -16.316784, 29.242480, -0.338181, -4.158270, 3.369504, 2.643675, 77.105820, 167.511108, -587.206543, 13.726020, 100.771836
1759224760.405304, -11.118373, 8.377012, -9.538499, -2.572207, -3.450460, 0.677393, 76.835678, 169.258148, -584.820435, 13.726020, 100.771836
1759224760.425310, -4.103512, 4.918738, -7.866898, -0.741571, -0.578074, 0.777728, 76.359360, 169.963120, -583.554565, 13.726020, 100.771836
1759224760.444852, -3.977966, 0.619649, -7.767838, -0.207484, -0.403977, 0.359085, 76.910843, 170.490768, -583.703064, 13.726020, 100.771836
1759224760.465308, -8.043769, 1.966687, -2.278233, 0.484701, 0.029832, 0.243568, 76.923828, 170.660156, -584.051025, 13.726020, 100.771836
1759224760.485294, -6.714389, -0.894983, 0.741604, 0.695787, 0.833623, -0.158761, 76.975388, 170.168701, -584.713745, 13.726020, 100.771836
1759224760.504849, -6.116287, -2.090587, -1.174206, 0.706205, 0.780775, -0.688693, 76.672150, 169.837738, -586.233154, 13.726020, 100.771836
1759224760.525309, -5.937470, -0.875829, -2.147300, 0.745817, 0.702571, -1.435677, 76.142899, 168.813461, -586.692932, 13.726020, 100.771836
1759224760.545267, -3.821894, 0.064045, -5.859509, 1.398839, -0.098631, -1.743108, 75.398270, 167.239441, -587.933716, 13.726020, 100.771836
1759224760.565312, 1.393425, 1.660528, -7.032818, 2.416916, 0.156787, -1.409104, 74.119873, 165.579391, -589.247131, 13.726020, 100.771836
1759224760.585296, 0.253785, 3.584868, 2.817975, 3.231686, -0.587690, -1.532126, 73.039886, 162.939606, -589.870117, 13.726020, 100.771836
1759224760.604855, -3.113061, 12.870929, 2.133832, 3.965930, -0.256788, -2.426192, 71.920975, 159.715256, -591.042969, 13.726020, 100.771836
1759224760.625295, 1.088913, 49.196205, 8.436418, 1.960985, 1.048230, -2.838687, 70.463455, 156.511459, -588.962280, 13.726020, 100.771836
1759224760.645274, 6.889615, 61.701719, 3.245939, -0.167411, -3.228469, -2.507168, 68.037781, 154.528915, -591.405396, 13.726020, 100.771836
1759224760.665317, -4.607791, 25.541643, -0.753725, -0.888035, -2.030519, -5.155548, 66.636292, 151.594025, -588.907959, 13.726020, 100.771836
1759224760.685300, 8.902989, 19.147628, -2.664298, -0.318845, -0.266237, -3.224958, 66.315247, 149.060211, -587.398987, 13.726020, 100.771836
1759224760.704555, 0.689530, 10.198850, -0.886304, 0.960532, 3.402072, -1.563791, 67.443542, 147.131729, -590.076050, 13.726020, 100.771836
1759224760.725290, -1.431882, 8.298453, 2.715025, 0.489449, 4.426432, -0.530425, 69.423172, 145.766876, -592.885010, 13.726020, 100.771836
1759224760.745270, 5.187636, 4.056975, 4.162170, 0.605871, 2.908199, 0.349761, 70.558838, 145.494141, -597.159119, 13.726020, 100.771836
1759224760.765293, 9.013870, -2.537704, 1.013346, 1.193732, 1.954485, 0.503937, 71.624695, 145.011765, -599.167664, 13.726020, 100.771836
1759224760.785290, 13.259238, -8.713996, 1.190816, 0.596352, 1.688102, 0.755626, 72.978958, 144.491272, -599.921021, 13.726020, 100.771836
1759224760.804851, 13.386580, -13.514520, 6.048502, -1.334609, -1.295443, 1.648660, 72.959061, 145.778076, -599.450012, 13.726020, 100.771836
1759224760.825299, 2.032528, -13.281834, 1.303942, -1.239528, -1.338485, 1.014913, 72.578705, 147.055771, -596.971191, 13.726020, 100.771836
1759224760.845270, -0.632967, -7.394043, 1.694496, -0.900416, -1.517478, 0.845423, 71.590118, 148.510696, -595.911255, 13.726020, 100.771836
1759224760.865292, 2.770690, 3.491644, -3.707571, -0.890987, 1.267888, 0.888322, 71.642593, 149.534790, -596.089478, 13.726020, 100.771836
1759224760.885345, -10.361955, 12.478729, 0.845901, -0.431801, -1.126305, -1.069495, 71.598618, 149.359909, -595.432983, 13.726020, 100.771836
1759224760.904873, -10.431686, 14.154071, 5.039645, -1.825906, -8.183153, -3.483396, 68.620270, 148.375366, -590.723999, 13.726020, 100.771836
1759224760.925298, -3.639785, 12.654852, 1.898153, -2.405885, -7.506212, -2.544197, 65.225342, 147.113220, -582.744751, 13.726020, 100.771836
1759224760.945267, 7.634959, 56.474429, 16.181810, -1.422431, -0.139014, 1.898154, 63.476395, 147.705978, -579.639954, 13.726020, 100.771836
1759224760.965282, -9.169343, 16.479290, -27.552173, 4.965598, 0.845156, -0.751722, 63.169800, 147.461868, -583.708374, 13.726020, 100.771836
1759224760.985292, 3.714454, -0.216226, 3.698443, 1.490571, 4.171154, -0.604932, 64.648743, 145.322952, -587.366333, 13.726020, 100.771836
1759224761.004317, 13.745261, 2.824859, 25.226805, -3.361296, -2.349135, 1.485779, 64.565659, 146.736099, -587.612244, 13.726020, 100.771836
1759224761.025289, 39.347657, 11.459547, -29.251308, -0.856367, -0.178100, 6.639841, 63.543396, 150.885849, -585.495667, 13.726020, 100.771836
1759224761.045266, 5.692214, 16.531065, 7.477690, 0.535675, -1.514549, 6.698298, 64.190979, 156.373337, -585.405640, 13.726020, 100.771836
1759224761.065287, 1.715894, 44.721742, 2.826056, -1.076836, 10.040339, 4.507689, 69.674423, 160.307892, -587.359314, 13.726020, 100.771836
1759224761.085296, -17.448343, 34.118122, 3.389591, -4.102977, -0.091673, 1.784848, 74.307190, 163.701920, -589.194580, 13.725992, 100.771833
1759224761.104841, -13.230957, 12.560431, -7.928548, -2.889076, -5.600268, -0.107052, 73.225937, 165.927979, -585.287231, 13.725992, 100.771833
1759224761.125313, -6.711396, 4.848258, -15.064317, -1.146715, -0.512624, 0.208500, 72.365036, 166.348618, -582.146118, 13.725992, 100.771833
1759224761.145263, 1.082179, 1.998859, -4.356549, -0.616807, -0.121221, 1.319506, 72.178284, 167.248001, -583.585754, 13.725992, 100.771833
1759224761.165285, -7.200561, 1.119589, -2.197877, 0.288264, -0.381942, 1.054734, 73.000137, 168.106552, -583.259155, 13.725992, 100.771833
1759224761.185286, -9.070433, -2.948759, 1.502212, 0.213482, 0.563582, 0.083302, 73.048035, 168.126633, -583.298584, 13.725992, 100.771833
1759224761.204835, -7.142352, -2.908805, -2.656666, 0.549846, 0.896574, -0.724975, 73.164871, 167.911011, -584.234680, 13.725992, 100.771833
1759224761.225318, -7.146842, -1.249175, -2.464382, 0.717511, 0.779447, -1.561360, 72.804810, 166.597412, -584.084778, 13.725992, 100.771833
1759224761.244834, -4.932654, 0.542586, -3.899706, 1.146640, 0.746945, -1.929983, 72.242722, 165.352081, -585.620056, 13.725992, 100.771833
1759224761.265287, 1.436970, 1.989432, -6.208763, 2.063220, 0.286437, -1.240541, 71.139450, 163.580521, -587.255005, 13.725992, 100.771833
1759224761.285289, 0.354940, 2.499696, -0.459537, 2.939130, 0.348084, -1.347984, 70.571777, 161.477661, -588.060059, 13.725992, 100.771833
1759224761.304852, -1.236904, 6.977751, 2.294393, 3.330602, -0.483308, -1.635164, 70.334381, 158.851578, -589.363525, 13.725992, 100.771833
1759224761.325348, -2.946963, 24.341998, 6.346430, 3.079128, 0.304392, -1.969622, 69.443527, 155.822891, -588.174011, 13.725992, 100.771833
1759224761.345263, 1.571943, 75.496211, 4.467131, 0.718817, -1.925699, -2.047231, 68.184601, 153.577133, -587.688049, 13.725992, 100.771833
1759224761.365292, 4.694581, 32.605136, -4.615871, 0.445703, -2.658329, -2.540349, 65.652695, 151.864105, -588.388611, 13.725992, 100.771833
1759224761.385296, 12.046725, 22.046258, 4.731242, -0.099208, -2.073857, -3.156085, 64.917145, 149.335663, -586.962891, 13.725992, 100.771833
1759224761.404844, 0.270246, 11.563096, -4.810400, -0.226687, 0.387560, -2.491082, 65.317337, 147.414154, -586.113831, 13.725992, 100.771833
1759224761.425299, -2.886060, 11.564593, 0.127940, 0.459159, 3.266284, -1.481192, 66.244308, 145.644608, -586.373535, 13.725992, 100.771833
1759224761.445265, 1.287482, 8.251766, 3.001281, 0.604976, 3.078489, -0.246699, 67.494598, 144.726837, -590.527588, 13.725992, 100.771833
1759224761.465296, 6.308123, 1.946187, 3.548207, 1.072350, 1.910949, 0.317973, 68.161957, 144.295532, -593.467468, 13.725992, 100.771833
1759224761.485295, 11.497555, -3.393631, 2.454206, 1.035484, 1.433330, 1.225780, 68.983810, 143.842209, -594.388123, 13.725992, 100.771833
1759224761.504837, 12.736554, -10.997765, 6.147861, -0.333385, 0.072737, 1.593289, 68.808762, 144.719696, -596.350647, 13.725992, 100.771833
1759224761.525280, 4.417452, -12.227936, -2.093580, -1.374071, -0.455042, 1.351118, 69.734818, 146.237274, -594.620483, 13.725992, 100.771833
1759224761.545257, -1.498321, -9.000403, 3.290381, -1.222623, -1.763343, 1.015290, 69.760345, 147.668564, -593.857483, 13.725992, 100.771833
1759224761.565289, -0.589722, -5.556344, -1.803283, -0.567302, -1.441681, 0.930097, 68.854630, 148.894104, -592.250732, 13.725992, 100.771833
1759224761.585269, 0.120907, 2.918981, -4.882675, -0.261097, 1.499719, 0.680411, 68.470535, 149.362640, -591.577454, 13.725992, 100.771833
1759224761.604835, -7.102250, 10.280702, 1.556381, -0.377446, -4.593264, -1.265063, 68.021881, 149.140091, -591.354614, 13.725992, 100.771833
1759224761.625277, -5.378275, 16.105196, 7.273884, -3.278162, -8.446065, -2.223281, 65.291718, 148.284241, -583.443787, 13.725992, 100.771833
1759224761.645255, 6.448932, 31.349826, 0.710779, -0.999972, -5.421213, 0.171223, 62.305283, 147.947678, -577.647339, 13.725992, 100.771833
1759224761.664275, -3.421464, 39.864505, 0.996287, -0.200567, 1.048224, 1.155532, 60.315994, 149.198975, -577.306030, 13.725992, 100.771833
1759224761.685280, 3.035997, 2.626888, -12.720543, 2.978405, 2.875672, -1.761730, 62.000229, 147.851654, -578.286621, 13.725992, 100.771833
1759224761.704877, 5.739350, 1.599925, 11.855338, 0.873584, 0.860597, -0.616606, 62.809753, 146.065689, -580.609497, 13.725992, 100.771833
1759224761.725279, 8.762479, 6.900538, 10.672154, -2.916534, -2.719064, 1.900557, 62.662308, 146.515961, -578.468628, 13.725992, 100.771833
1759224761.745254, 17.597831, 24.122779, 1.959804, -1.808370, -3.413409, 5.321113, 61.582047, 150.208878, -575.542114, 13.725992, 100.771833
1759224761.765266, 10.509498, 38.353913, -8.343045, 0.598425, 7.070023, 5.654169, 62.171432, 155.283920, -575.427979, 13.725992, 100.771833
1759224761.785256, -8.553734, 27.488577, -4.573823, -2.735136, 9.251711, 4.962153, 68.025406, 159.889893, -581.590271, 13.725992, 100.771833
1759224761.804828, -16.839767, 18.775928, -5.171924, -2.164263, 0.425864, 2.945874, 70.816116, 163.273148, -583.344543, 13.725992, 100.771833
1759224761.825265, -3.507505, 8.391228, -5.233426, -1.896569, -1.447055, 1.565342, 71.078888, 165.173721, -580.335999, 13.725992, 100.771833
1759224761.845252, -3.145682, 2.062006, -7.553557, -0.784345, 0.024865, 1.170561, 71.231750, 166.774277, -580.646729, 13.725992, 100.771833
1759224761.865254, -5.942409, 3.148226, -3.223793, 0.002103, 0.755486, 0.807254, 72.276276, 167.676605, -580.026733, 13.725992, 100.771833
1759224761.885257, -9.319729, -0.116867, 0.651821, 0.533763, 1.175811, 0.183554, 72.826218, 167.881470, -580.668579, 13.725992, 100.771833
1759224761.904822, -9.860071, -1.065869, 1.265036, 0.764821, 0.620118, -0.522061, 72.671753, 167.444031, -581.851074, 13.725992, 100.771833
1759224761.925273, -7.838467, -1.732055, -1.246631, 0.715910, -0.257614, -1.786322, 71.842392, 166.235062, -581.271057, 13.725992, 100.771833
1759224761.945250, -2.628235, -0.441132, -6.462250, 1.270607, -0.094676, -1.863408, 71.177429, 164.656296, -582.450073, 13.725992, 100.771833
1759224761.965286, 0.395642, 2.077419, -6.008249, 2.145442, 1.026445, -1.275843, 70.203995, 163.039185, -583.994141, 13.725992, 100.771833
1759224761.985275, 0.648679, 1.660080, -1.146374, 2.542022, 1.065854, -1.385799, 69.949844, 160.952209, -585.197510, 13.725992, 100.771833
1759224762.004438, -0.373196, 3.747375, 1.292570, 3.158354, -0.175542, -1.639179, 69.326462, 158.692993, -586.790833, 13.725992, 100.771833
1759224762.025280, -2.289755, 11.726650, 0.481085, 3.914938, -1.654302, -2.180954, 68.090088, 155.588181, -585.582397, 13.725992, 100.771833
1759224762.045244, -3.056498, 29.705010, 8.445247, 1.633536, 0.744283, -2.686235, 67.318085, 152.834671, -585.164307, 13.725992, 100.771833
1759224762.065270, 4.267664, 56.496725, 2.600253, 0.102256, -3.304163, -2.101277, 64.523132, 150.121307, -583.895325, 13.725992, 100.771833
1759224762.085247, -4.653281, 30.027179, -0.422277, -0.178910, -2.627711, -2.945215, 63.297333, 147.709396, -582.276917, 13.725976, 100.771841
1759224762.104826, 8.466196, 24.144925, 1.250073, -0.362446, -1.001725, -3.128441, 63.285431, 146.700058, -581.978943, 13.725976, 100.771841
1759224762.125256, -0.222960, 12.901156, -3.221398, -0.555476, 2.174906, -2.679612, 65.404663, 143.853256, -584.053345, 13.725976, 100.771841
1759224762.145247, -3.623026, 12.824990, -0.150835, -0.203917, 4.048046, -1.735862, 67.208481, 142.291931, -587.222534, 13.725976, 100.771841
1759224762.164370, -1.064522, 7.655161, 3.051709, 0.050187, 2.799741, -0.385442, 67.204025, 142.008301, -588.855408, 13.725976, 100.771841
1759224762.185251, 6.857143, 1.803432, 2.226159, 0.514625, 1.291794, 0.584493, 67.773453, 142.013351, -591.066040, 13.725976, 100.771841
1759224762.204826, 10.472088, -3.373729, 0.386514, 0.507673, 0.967089, 1.360456, 67.710464, 142.253403, -592.425659, 13.725976, 100.771841
1759224762.225255, 10.378116, -8.948179, 3.257461, -0.192163, 0.292892, 1.097748, 67.791626, 143.447372, -592.873230, 13.725976, 100.771841
1759224762.245245, 8.689905, -11.444434, 3.493290, -1.308526, -0.855731, 1.095800, 67.181900, 144.359360, -590.434814, 13.725976, 100.771841
1759224762.265258, 2.017414, -7.990199, 0.754174, -0.662760, -1.077999, 1.156570, 66.009705, 145.273178, -589.583374, 13.725976, 100.771841
1759224762.285255, 0.299574, 1.017835, -3.727024, -0.513142, 0.555712, 0.534743, 65.979675, 145.718246, -589.008057, 13.725976, 100.771841
1759224762.304813, -2.338985, 9.395745, -5.848586, 0.076333, 1.837452, -0.240925, 66.281906, 145.210693, -589.171936, 13.725976, 100.771841
1759224762.325272, -7.411551, 13.140426, 0.343718, -0.207802, -5.607172, -1.884984, 64.334473, 143.972275, -583.465698, 13.725976, 100.771841
1759224762.345244, -9.397092, 10.090513, 7.099706, -1.969786, -10.074564, -2.749193, 62.771896, 142.573761, -574.594910, 13.725976, 100.771841
1759224762.365265, 8.740781, 28.066628, 12.257415, -2.506758, -3.413096, 0.443218, 60.214203, 143.544388, -573.360229, 13.725976, 100.771841
1759224762.385328, -15.499313, 35.362658, -19.670611, 2.950179, -1.721225, -0.028753, 61.427872, 142.879440, -574.098633, 13.725976, 100.771841
1759224762.404809, 7.059753, 1.704223, -2.282572, 3.201902, 3.468662, -0.529368, 62.223724, 142.131577, -576.518188, 13.725976, 100.771841
1759224762.425269, 9.379884, 0.826000, 20.028844, -1.661892, -0.113324, 1.472241, 61.876846, 144.230545, -575.663025, 13.725976, 100.771841
1759224762.444394, 5.459678, 4.310910, 4.143465, -3.776866, -2.989858, 3.127523, 61.598282, 147.783661, -572.739990, 13.725976, 100.771841
1759224762.465273, 16.061053, 16.945411, -0.340725, -1.911472, -2.982962, 5.598716, 61.863892, 153.253448, -570.614197, 13.725976, 100.771841
1759224762.485264, 9.572168, 37.544524, -7.113921, 2.906705, 3.059060, 6.510104, 65.690170, 158.198792, -574.332642, 13.725976, 100.771841
1759224762.504811, -7.549367, 33.921648, -5.955128, -0.948480, 13.675954, 5.661823, 70.299820, 161.796066, -582.532104, 13.725976, 100.771841
1759224762.525263, -11.938537, 15.598673, 2.059313, -2.219419, -2.016907, 1.548053, 71.710358, 164.042892, -579.610657, 13.725976, 100.771841
1759224762.544990, -6.551733, 9.212888, -5.127033, -2.003287, -2.236336, 0.612687, 72.005127, 164.963440, -577.570374, 13.725976, 100.771841
1759224762.565270, -3.429694, 3.181445, -6.954108, -1.253877, 0.010070, 0.974023, 72.505844, 166.308014, -577.828735, 13.725976, 100.771841
1759224762.585265, -4.569633, 0.009577, -5.271733, -0.594095, 0.741626, 1.010380, 73.509293, 166.753281, -577.380737, 13.725976, 100.771841
1759224762.604822, -7.806594, 1.160290, -0.265158, -0.011516, 0.758414, 0.616622, 73.981766, 167.210007, -578.925415, 13.725976, 100.771841
1759224762.625262, -8.835951, -1.549797, 1.368286, 0.041043, 1.727253, -0.420578, 74.182358, 166.956863, -579.807617, 13.725976, 100.771841
1759224762.645235, -7.697059, -1.830218, -1.006762, 0.202847, 1.119266, -1.531161, 74.034576, 166.031418, -579.774658, 13.725976, 100.771841
1759224762.664434, -6.442946, 0.177321, -4.446032, 0.655049, 0.632792, -2.163549, 73.903473, 164.595337, -580.931519, 13.725976, 100.771841
1759224762.685073, 0.709282, 4.086304, -7.617601, 1.502669, 0.502887, -1.445318, 72.650223, 162.999115, -581.421509, 13.725976, 100.771841
1759224762.704812, 3.618985, 3.755305, -5.370643, 2.835474, 0.098287, -1.004522, 72.560196, 161.775116, -583.529541, 13.725976, 100.771841
1759224762.725263, 0.650175, 5.466860, 1.956661, 3.574050, 0.126070, -1.061259, 72.508896, 159.666702, -584.590515, 13.725976, 100.771841
1759224762.744409, -1.124527, 15.366884, 3.274071, 3.617616, 1.143036, -1.410700, 72.528198, 157.409515, -584.838989, 13.725976, 100.771841
1759224762.765262, 1.924040, 37.830481, 4.080318, 2.316870, 1.459341, -1.354292, 72.264862, 155.664688, -586.143799, 13.725976, 100.771841
1759224762.785255, 6.946626, 54.905628, 2.653823, 1.028166, -2.532415, -1.757933, 70.061462, 154.098190, -586.023987, 13.725976, 100.771841
1759224762.804307, 3.734356, 28.822148, 2.513912, 0.063311, -3.261204, -3.895649, 69.530579, 152.310608, -584.444824, 13.725976, 100.771841
1759224762.825260, 4.749647, 19.659089, -0.556802, -0.676549, -1.682660, -3.217096, 68.750717, 150.544479, -583.797913, 13.725976, 100.771841
1759224762.845237, 0.578050, 14.052018, -1.194108, -0.485178, 1.728971, -2.456721, 69.307922, 149.063660, -584.496338, 13.725976, 100.771841
1759224762.865256, 0.465223, 12.224943, 0.770783, 0.510036, 2.886239, -1.205326, 69.954086, 148.322495, -587.791626, 13.725976, 100.771841
1759224762.885274, 2.917185, 7.036409, 2.098667, 1.376249, 2.325148, -0.324526, 70.447189, 147.215378, -589.846313, 13.725976, 100.771841
1759224762.904811, 8.055890, 0.261866, 3.081487, 1.553545, 1.854708, 0.175715, 70.896515, 146.782074, -592.776489, 13.725976, 100.771841
1759224762.924756, 12.667122, -6.515820, 2.824110, 0.869844, 0.972763, 0.698282, 70.776840, 146.525146, -594.384521, 13.725976, 100.771841
1759224762.945243, 14.813973, -12.333580, 9.354894, -0.882946, -1.636317, 1.110085, 70.357483, 147.391724, -592.740967, 13.725976, 100.771841
1759224762.965256, 3.002329, -14.858565, -1.096993, -1.832463, -1.841732, 0.906779, 69.291489, 149.030304, -589.746094, 13.725976, 100.771841
1759224762.985091, -0.516998, -10.130017, 1.515679, -1.754785, -2.068300, 0.756356, 68.595978, 150.371521, -586.486023, 13.725976, 100.771841
1759224763.004834, 2.210147, 1.631050, -1.221641, -1.490683, 0.218971, 0.948472, 69.045456, 151.813339, -587.580933, 13.725976, 100.771841
1759224763.025262, -2.828001, 7.525425, -4.322731, -0.842420, 1.082349, 0.482718, 69.288712, 152.549805, -588.132507, 13.725976, 100.771841
1759224763.045233, -10.509199, 16.671275, 2.407669, 0.085826, -6.589158, -1.762963, 67.477905, 151.836258, -582.270020, 13.725976, 100.771841
1759224763.065268, -10.774207, 28.564472, 10.934020, -1.806610, -13.194256, -2.370717, 65.069016, 151.256165, -571.577087, 13.725976, 100.771841
1759224763.085253, 15.674240, 49.487999, 7.702147, -1.877275, -0.328859, 2.844287, 62.506409, 152.435181, -572.416504, 13.725976, 100.771841
1759224763.104866, -7.105392, 1.732205, -35.630958, 5.908895, 5.782535, 0.567991, 64.186188, 152.895691, -579.026367, 13.725954, 100.771840
1759224763.125272, 6.071845, -0.287454, 10.908132, 2.136297, 3.945373, 0.726424, 65.695251, 152.659668, -582.318542, 13.725954, 100.771840
1759224763.145230, 7.704541, 3.043479, 18.983775, -2.117233, -1.969163, 1.685195, 65.629456, 154.521820, -579.936035, 13.725954, 100.771840
1759224763.164522, 14.065486, 15.102325, 4.682759, -3.627930, -5.073926, 4.079755, 63.351425, 158.136215, -576.481873, 13.725954, 100.771840
1759224763.185258, 14.685883, 36.067152, -9.894338, -0.005232, 0.665257, 3.647896, 66.919144, 162.045837, -573.067749, 13.725954, 100.771840
1759224763.204815, 1.323994, 29.601460, -4.031836, -1.461470, 8.897328, 5.146919, 70.736313, 165.494080, -580.143005, 13.725954, 100.771840
1759224763.225311, -15.061324, 18.730139, 1.653944, -2.088315, 2.112237, 2.535546, 73.918915, 168.044815, -581.734863, 13.725954, 100.771840
1759224763.245231, -11.208156, 10.046369, -5.546767, -2.303164, -1.959768, 0.524054, 74.093750, 169.432785, -578.975586, 13.725954, 100.771840
1759224763.265253, -4.263624, 7.310844, -8.639626, -1.168235, -0.262724, 0.640840, 74.055801, 170.102036, -578.721436, 13.725954, 100.771840
1759224763.285254, -1.271171, 3.037344, -6.875998, -0.632087, 0.588508, 0.830228, 74.242996, 170.544067, -577.858398, 13.725954, 100.771840
1759224763.304817, -4.137480, 3.250578, -2.714127, 0.313178, 0.077816, 0.572987, 74.945297, 171.059372, -579.285278, 13.725954, 100.771840
1759224763.325296, -7.204302, 0.631770, 1.336713, 0.436235, 0.559806, 0.011525, 75.042633, 171.024872, -579.880859, 13.725954, 100.771840
1759224763.345051, -7.662343, -2.382231, 0.427215, 0.572655, 1.491635, -0.871002, 74.867203, 170.308685, -580.497192, 13.725954, 100.771840
1759224763.365228, -6.443096, -2.145953, -1.582567, 0.486034, 1.150701, -1.754460, 74.435135, 169.282410, -581.369507, 13.725954, 100.771840
1759224763.385247, -4.859481, -0.820613, -4.929960, 1.053251, 0.746212, -2.155771, 73.547562, 167.555527, -581.816040, 13.725954, 100.771840
1759224763.404775, 0.944213, 1.723526, -6.500706, 2.350175, 0.558537, -1.483522, 72.364456, 165.745529, -584.016052, 13.725954, 100.771840
1759224763.425246, 0.716465, 2.914941, 0.575506, 3.306132, 0.460412, -1.415195, 71.774323, 163.527893, -586.175659, 13.725954, 100.771840
1759224763.445225, -0.985663, 10.155904, 3.677643, 3.298418, 0.224651, -1.607736, 71.058975, 161.092636, -586.067078, 13.725954, 100.771840
1759224763.465248, -0.113575, 27.818828, 8.156895, 1.552274, 0.789382, -1.630044, 70.338013, 159.331558, -586.474609, 13.725954, 100.771840
1759224763.485250, 5.500080, 65.820195, 2.459893, 0.623147, -3.510247, -1.601941, 68.114471, 157.602524, -585.191284, 13.725954, 100.771840
1759224763.504810, 0.005537, 30.947451, -6.317550, 0.552389, -3.012650, -3.648935, 66.046341, 155.654724, -584.496460, 13.725954, 100.771840
1759224763.524451, 9.631275, 29.258042, 3.250877, 0.171034, -0.814297, -3.308174, 65.516098, 152.372971, -583.276855, 13.725954, 100.771840
1759224763.545225, 0.493954, 13.848362, -2.261772, 0.203463, 1.773460, -2.308116, 65.865677, 150.430099, -583.856018, 13.725954, 100.771840
1759224763.565260, -1.494281, 12.198757, 1.755548, 0.564565, 3.429901, -1.457266, 66.761520, 148.983383, -587.219666, 13.725954, 100.771840
1759224763.585136, 0.820912, 9.167548, 2.268656, 0.954057, 2.654333, -0.658651, 67.541534, 147.665802, -588.854431, 13.725954, 100.771840
1759224763.604783, 4.787805, 3.366996, 3.104831, 1.559262, 1.732608, 0.008201, 68.307159, 147.025787, -592.053650, 13.725954, 100.771840
1759224763.624806, 8.513482, -2.619706, 2.379088, 1.572035, 1.628348, 0.637522, 68.818130, 146.032516, -593.666931, 13.725954, 100.771840
