SamplingTime,AccelerationX,AccelerationY,AccelerationZ,GyroX,GyroY,GyroZ,Duration,Subject,Activity
1759224930.41284,-6.707506,26.043377,4.085107,-5.170726,5.577529,1.910387,5.760,5,RUN
1759224930.43228,-8.508843,17.588703,2.615665,-5.936129,4.292756,0.637518,5.780,5,RUN
1759224930.45239,-8.553136,16.24376,1.203685,-5.248565,1.633088,0.04545,5.800,5,RUN
1759224930.47280,-0.756418,17.840843,-26.554839,1.177843,-10.033626,0.967356,5.820,5,RUN
1759224930.49284,3.649212,20.310162,-9.355642,1.856943,-2.483114,-0.015022,5.840,5,RUN
1759224930.51196,-3.590704,11.00001,-2.799869,0.169406,1.761039,-0.010937,5.859,5,RUN
1759224930.53225,-4.058022,2.941127,-5.314978,0.230903,1.678678,0.550779,5.880,5,RUN
1759224930.55242,-1.9405,0.558298,-1.387141,0.399078,1.86818,0.283342,5.900,5,RUN
1759224930.57282,-0.440383,-0.31798,2.639458,0.177515,2.457495,0.035549,5.920,5,RUN
1759224930.59284,-0.578349,-0.991349,1.641225,0.360097,2.471586,0.164028,5.940,5,RUN
1759224930.61196,-0.596904,-1.164779,1.49877,0.31613,2.383103,0.458586,5.959,5,RUN
1759224930.63236,-1.650802,-2.684798,-9.150639,2.598531,-3.709795,0.647945,5.980,5,RUN
1759224930.65236,-0.07003,-0.921169,-0.357035,2.990107,-4.604486,0.460166,6.000,5,RUN
1759224930.67283,-0.066289,-0.071377,0.484227,3.14062,-4.24144,-0.083947,6.020,5,RUN
1759224930.69285,-0.222361,1.72203,2.899378,2.796576,-2.138374,-1.168808,6.040,5,RUN
1759224930.71196,-5.709572,15.630097,3.491345,3.907458,-1.063344,-4.276808,6.059,5,RUN
1759224930.73225,-9.231593,33.493235,-0.654814,5.979403,-1.880027,-7.14927,6.080,5,RUN
1759224930.75236,-10.579379,40.217201,-21.072416,3.023753,-4.854242,-6.676511,6.100,5,RUN
1759224930.77282,-10.877457,33.287783,-8.552238,-0.006115,-0.187366,-2.932347,6.120,5,RUN
1759224930.79279,-14.829236,21.832276,-2.482338,-1.521175,2.792455,0.065575,6.140,5,RUN
1759224930.81196,-9.460389,14.307001,-1.356914,-1.9225,3.7387,-0.451271,6.159,5,RUN
1759224930.83224,-9.053823,12.0777,1.979107,-2.194607,3.641169,-1.790955,6.180,5,RUN
1759224930.85239,-7.13113,6.593482,4.477756,-1.856966,1.843123,-1.258199,6.200,5,RUN
1759224930.87284,-1.391031,-0.475249,5.296124,-1.445872,-0.157763,0.349971,6.220,5,RUN
1759224930.89290,2.109292,-3.47279,4.827459,-1.720346,-0.68816,1.809515,6.240,5,RUN
1759224930.91196,2.997989,-4.252401,3.212869,-1.675934,0.398748,3.300403,6.259,5,RUN
1759224930.93225,5.640739,-4.75668,2.705897,-0.839292,3.038286,3.690798,6.280,5,RUN
1759224930.95237,9.850643,-4.949862,1.32968,-0.131679,5.749296,2.086027,6.300,5,RUN
1759224930.97284,10.133459,-3.681384,-3.686622,-0.054946,4.341036,-0.348686,6.320,5,RUN
1759224930.99250,4.583549,-0.820762,-8.554483,-0.280869,1.767939,-1.502369,6.340,5,RUN
1759224931.01230,-1.398663,3.508852,-12.634202,0.440957,-0.49409,-1.925765,6.360,5,RUN
1759224931.03231,-1.192163,1.502511,-6.681768,-0.024061,-3.491795,-1.965517,6.380,5,RUN
1759224931.05236,0.7847,0.758214,0.166996,-1.608643,-4.193799,-1.636246,6.400,5,RUN
1759224931.07256,2.510021,6.329521,6.968324,-4.88203,-2.720332,-1.214315,6.420,5,RUN
1759224931.09257,-1.022025,11.411663,18.084153,-3.393834,-1.899789,0.540623,6.440,5,RUN
1759224931.11196,-4.843021,28.327296,34.40812,2.132466,2.032374,2.773562,6.459,5,RUN
1759224931.13223,-2.516456,37.919964,15.542708,-0.468516,4.683361,2.097553,6.480,5,RUN
1759224931.15236,-4.929362,29.656228,4.796633,-3.744027,4.868319,-0.360878,6.500,5,RUN
1759224931.17282,-8.115595,21.181801,-0.559495,-5.13203,0.683931,-1.909941,6.520,5,RUN
1759224931.21196,-6.174646,19.023429,17.764976,6.509518,-2.964509,-2.759442,6.559,5,RUN
1759224931.23283,-13.048998,10.831219,-20.160525,2.876148,-4.057527,-3.877097,6.580,5,RUN
1759224931.25233,-13.307571,1.309329,-0.817171,0.713718,-0.804348,-1.189086,6.600,5,RUN
1759224931.27282,-4.012383,-2.598008,-5.172373,0.971874,0.04894,0.953363,6.620,5,RUN
1759224931.29283,-2.432509,-1.868076,1.305139,0.183333,1.60087,0.890802,6.640,5,RUN
1759224931.31201,-1.291373,-3.404555,1.340304,-0.520084,2.310072,0.301449,6.659,5,RUN
1759224931.33228,-2.407669,-6.80911,-7.24261,-0.505873,-1.183684,-0.064691,6.680,5,RUN
1759224931.35235,-3.45214,-7.29618,-1.944092,2.20453,-0.071341,-1.831958,6.700,5,RUN
1759224931.37284,-2.552369,-2.187702,0.804452,3.107521,2.277485,-2.294304,6.720,5,RUN
1759224931.39288,-2.795979,2.917335,-3.462614,2.964204,2.422868,-2.124851,6.740,5,RUN
1759224931.41196,-5.63221,10.819397,-2.195034,1.821958,3.211195,-3.288333,6.759,5,RUN
1759224931.43260,-13.32478,23.547123,-7.238121,0.986276,2.8326,-6.173359,6.780,5,RUN
1759224931.45236,-28.724434,30.820109,-1.698686,3.70926,-0.014885,-2.868283,6.800,5,RUN
1759224931.47280,-24.571692,39.397037,0.192733,6.170185,-1.147093,0.473368,6.820,5,RUN
1759224931.49284,-3.442413,26.848129,-12.044929,1.651632,-0.554802,-0.459124,6.840,5,RUN
1759224931.51196,-8.776994,9.943718,-4.16621,-1.397852,1.086684,-0.734118,6.859,5,RUN
1759224931.53194,-13.225869,7.672668,-2.309956,-1.789345,2.372674,-1.574905,6.879,5,RUN
1759224931.55233,-17.110013,6.126313,1.037138,-1.954433,2.788365,-0.496062,6.900,5,RUN
1759224931.57291,-7.327753,2.637812,3.651457,-1.774482,1.43881,1.095462,6.920,5,RUN
1759224931.59284,0.660949,2.861221,5.549161,-1.788632,-0.107876,2.27054,6.940,5,RUN
1759224931.61196,4.926519,1.144877,7.871836,-1.937018,-0.071145,2.503925,6.959,5,RUN
1759224931.63288,6.336853,-2.251298,3.057994,-1.185971,-0.908184,3.021284,6.980,5,RUN
1759224931.65235,11.181221,-5.929839,-0.371251,-0.069642,0.384034,2.804295,7.000,5,RUN
1759224931.67280,12.568661,-5.374235,-7.153575,-0.871277,1.280158,0.989187,7.020,5,RUN
1759224931.69298,4.409521,-5.989694,-5.591209,-0.242624,0.795522,0.109532,7.040,5,RUN
1759224931.71283,-2.019509,-0.741454,-4.599411,0.641566,-0.319303,0.052241,7.060,5,RUN
1759224931.73286,-1.668759,0.218172,-1.515081,0.663138,-1.597471,0.191237,7.080,5,RUN
1759224931.75233,-1.237653,0.443975,1.546205,-0.19867,-1.957267,0.424972,7.100,5,RUN
1759224931.77284,-0.724845,1.501314,0.373495,-1.808292,-2.927261,0.939771,7.120,5,RUN
1759224931.79284,-5.688773,22.998402,8.009203,-3.169426,-1.502671,2.42442,7.140,5,RUN
1759224931.81196,-8.951621,50.709042,28.038196,-1.342376,2.953296,1.600753,7.159,5,RUN
1759224931.83284,-8.685266,25.94731,9.024345,-2.84893,2.177765,1.115487,7.180,5,RUN
1759224931.85236,-6.266972,10.868478,2.490868,-4.355648,0.435716,1.743381,7.200,5,RUN
1759224931.87280,-5.514445,18.248755,2.46109,-4.979356,0.031404,0.395218,7.220,5,RUN
1759224931.89282,-9.218724,21.570111,-0.113276,-5.628818,-4.183636,-0.663907,7.240,5,RUN
1759224931.91193,-1.952172,19.446304,-24.308778,3.636461,-4.758593,0.650779,7.259,5,RUN
1759224931.93291,-5.510255,18.373104,-10.61589,3.400125,-2.284673,-1.313024,7.280,5,RUN
1759224931.95233,-8.843133,8.63813,3.317166,1.223218,-0.01681,-1.826236,7.300,5,RUN
1759224931.97282,-8.495525,-0.568773,-0.997634,0.37244,-0.338178,-0.733523,7.320,5,RUN
1759224931.99290,-5.252579,-5.885995,-3.712659,0.576321,-1.964153,0.226598,7.340,5,RUN
1759224932.01283,-2.910152,-3.800197,1.429488,0.72153,-0.683988,0.416925,7.360,5,RUN
1759224932.03291,-1.50715,-4.040664,0.453701,0.683221,0.550883,0.549191,7.380,5,RUN
1759224932.05234,-4.492271,-7.216273,-5.678897,2.422617,-0.361901,0.693873,7.400,5,RUN
1759224932.07280,-2.792088,-3.04333,-1.575235,2.886219,0.13072,0.278833,7.420,5,RUN
1759224932.09288,-2.149095,0.405668,0.722001,2.757008,2.159165,-0.643149,7.440,5,RUN
1759224932.11196,-5.550358,6.810157,0.480486,2.720843,3.790417,-2.067115,7.459,5,RUN
1759224932.13290,-12.869582,22.514324,-6.368128,2.259592,2.691504,-4.287596,7.480,5,RUN
1759224932.15234,-16.712725,25.796775,-4.590133,1.688585,1.478898,-2.779706,7.500,5,RUN
1759224932.17288,-15.829713,31.110556,0.980426,3.837773,-0.023407,-0.060301,7.520,5,RUN
1759224932.19285,-7.012617,33.207427,-2.429815,2.903312,0.460427,1.699952,7.540,5,RUN
1759224932.21196,-0.240617,25.141811,-4.181174,0.397766,2.677361,0.377488,7.559,5,RUN
1759224932.23287,-2.906411,17.436671,-6.666206,-0.407671,2.99866,-2.021541,7.580,5,RUN
1759224932.25230,-7.165097,15.982194,-3.697844,-1.060614,3.245139,-3.106038,7.600,5,RUN
1759224932.27280,-8.619874,9.863812,0.787243,-0.921467,2.628377,-1.927709,7.620,5,RUN
1759224932.29290,-3.513192,0.158167,2.359186,-0.672699,0.833308,0.107038,7.640,5,RUN
1759224932.31203,2.339734,-3.383007,0.895731,-1.542314,-1.320235,1.316548,7.659,5,RUN
1759224932.33287,4.731541,-5.046678,5.4299,-1.669688,-2.320383,1.916393,7.680,5,RUN
1759224932.35230,7.225701,-6.064962,2.573168,-1.078754,-2.917911,2.002978,7.700,5,RUN
1759224932.37288,8.063222,-7.135619,-0.400131,-0.262329,0.611539,2.149047,7.720,5,RUN
1759224932.39282,8.416367,-5.27682,-2.072032,-0.14511,3.803747,1.378651,7.740,5,RUN
1759224932.41195,2.529474,-2.627936,-5.571307,-0.255507,2.580965,0.683182,7.759,5,RUN
1759224932.43294,-1.627459,0.958878,-4.893898,0.018642,-0.163005,0.460781,7.780,5,RUN
1759224932.45230,-2.356942,1.949778,-4.55871,-0.444528,-3.594554,-0.038906,7.800,5,RUN
1759224932.47279,-1.114651,2.012326,-0.370503,-1.944143,-5.061159,-0.34092,7.820,5,RUN
1759224932.49296,-2.122909,8.573038,2.230199,-3.514479,-6.041893,0.176637,7.840,5,RUN
1759224932.51194,-7.203255,39.630771,28.861203,0.096991,-0.600576,3.533502,7.859,5,RUN
1759224932.53286,0.04938,33.142634,17.60247,-0.069884,4.360471,2.097078,7.880,5,RUN
1759224932.55228,-4.230405,26.75685,3.884143,-4.020285,4.805928,0.631664,7.900,5,RUN
1759224932.57282,-7.414693,19.782839,0.860416,-5.170617,2.934594,1.059134,7.920,5,RUN
1759224932.59239,-8.217499,20.625898,-5.820903,-3.754166,-3.761302,1.199801,7.940,5,RUN
1759224932.61200,-2.100164,20.14182,-13.792397,-0.40818,-7.073893,0.4855,7.959,5,RUN
1759224932.63292,0.701651,13.127408,-5.93343,-0.272057,-1.656277,0.087235,7.980,5,RUN
1759224932.65227,-4.916792,8.82787,1.266084,-0.706143,1.679925,0.839991,8.000,5,RUN
1759224932.67278,-3.438223,2.311901,-3.897611,-0.275377,1.610527,1.387358,8.020,5,RUN
1759224932.69283,-2.185756,-0.830788,-4.235193,0.260724,0.43776,1.39295,8.040,5,RUN
1759224932.71193,-1.276708,-0.845901,0.471508,0.281085,0.648612,1.167578,8.059,5,RUN
1759224932.73288,-0.745345,-0.877774,2.172888,0.208663,1.283808,1.016856,8.080,5,RUN
1759224932.75229,-2.562843,-1.896956,-6.262034,1.673852,-3.240871,0.532958,8.100,5,RUN
1759224932.77278,-1.072153,-0.269647,0.390554,2.35282,-4.04459,-0.436779,8.120,5,RUN
1759224932.79282,-0.773327,-0.340575,0.448763,2.57642,-3.364412,-1.399738,8.140,5,RUN
1759224932.81193,-0.984017,-1.410484,-1.371129,3.513195,-3.615027,-2.096946,8.159,5,RUN
1759224932.83285,-1.036091,1.656638,2.836979,2.778092,-0.737399,-3.269093,8.180,5,RUN
1759224932.85226,-3.944597,11.824812,1.316512,3.131748,1.548188,-5.531973,8.200,5,RUN
1759224932.87279,-13.050644,33.132758,-2.495806,3.440619,2.346822,-7.884298,8.220,5,RUN
1759224932.89279,-21.451748,40.947133,-15.377808,2.073839,-0.963441,-4.731359,8.240,5,RUN
1759224932.91193,-13.070396,31.989826,-3.164087,2.616878,-0.914291,-1.198467,8.259,5,RUN
1759224932.93278,-8.227524,26.200497,-5.44651,0.364377,0.17923,0.743046,8.280,5,RUN
1759224932.95225,-6.260837,17.600375,-2.429366,-1.280993,1.958741,-0.451296,8.300,5,RUN
1759224932.97287,-8.06023,13.18846,0.18585,-2.122746,2.813727,-1.873471,8.320,5,RUN
1759224932.99257,-8.182932,6.462698,4.902726,-1.80388,2.091457,-1.758428,8.340,5,RUN
1759224933.01192,-2.907908,-0.415993,6.975656,-1.071752,-0.062685,0.023091,8.359,5,RUN
1759224933.03291,1.810465,-2.826205,5.406107,-1.067401,-1.267947,1.536288,8.380,5,RUN
1759224933.05227,4.563348,-4.297592,2.857929,-1.49278,-0.780059,2.484588,8.400,5,RUN
1759224933.07278,8.012196,-6.398205,-2.269554,-1.339594,1.129705,2.893734,8.420,5,RUN
1759224933.09284,7.430554,-5.249138,-2.527828,-1.184404,3.821125,2.542,8.440,5,RUN
1759224933.11191,6.626402,-4.281281,-2.853739,-0.798958,5.430249,1.540777,8.459,5,RUN
1759224933.13290,2.734029,-0.126144,-3.238607,0.377527,4.697669,0.495363,8.480,5,RUN
1759224933.15223,-1.191415,3.141492,-9.77792,1.496934,0.939157,-0.050311,8.500,5,RUN
1759224933.17279,-2.103905,2.472612,-7.463175,0.578307,-3.491172,-0.503258,8.520,5,RUN
1759224933.19294,-0.373944,1.721132,0.995539,-1.329058,-4.148358,-1.154916,8.540,5,RUN
1759224933.21191,-0.263362,4.269759,5.577442,-2.977158,-4.079542,-1.386543,8.559,5,RUN
1759224933.23283,-2.906112,12.321908,18.323274,-2.137915,-0.704507,-0.800968,8.580,5,RUN
1759224933.25225,-7.507468,34.633324,27.572524,0.970625,3.061047,2.080405,8.600,5,RUN
1759224933.27249,-6.4,38.525099,7.141904,-2.040979,1.510115,3.605451,8.620,5,RUN
1759224933.29277,-0.977134,22.475568,2.367267,-4.889517,0.810758,2.938838,8.640,5,RUN
1759224933.31279,-0.283114,21.860408,3.068469,-5.664734,0.213762,0.959424,8.660,5,RUN
1759224933.33276,-5.509058,19.794362,-15.530737,1.298629,-3.773342,-0.442171,8.680,5,RUN
1759224933.35223,-6.765116,15.933262,-24.534582,-1.039333,-7.933604,-0.393941,8.700,5,RUN
1759224933.37282,-2.034922,13.21315,6.616526,-0.610025,-1.733426,-1.249018,8.720,5,RUN
1759224933.39277,-5.225345,8.114548,4.644602,0.419277,2.008451,-1.401967,8.740,5,RUN
1759224933.41190,-5.987001,1.978957,-7.483676,0.640102,-0.31596,-0.941127,8.759,5,RUN
1759224933.43288,-4.58759,-2.079364,-8.391228,-0.003609,-2.081178,-0.143639,8.780,5,RUN
1759224933.45221,-4.815637,-1.450886,4.965425,-0.144688,0.295741,-0.057765,8.800,5,RUN
1759224933.47273,-3.676147,-3.573645,3.968389,-0.640326,2.598812,0.509476,8.820,5,RUN
1759224933.49276,-6.367529,-6.245724,-9.035717,2.422398,-1.492043,0.699275,8.840,5,RUN
1759224933.51278,-2.766799,-2.153135,-0.407314,2.858374,-1.27117,0.23497,8.860,5,RUN
1759224933.53202,-1.096095,-1.044321,-2.720711,3.607929,-1.275285,-0.54542,8.879,5,RUN
1759224933.55220,0.292691,3.482965,-0.228197,3.76368,0.362673,-1.838299,8.900,5,RUN
1759224933.57275,-4.940734,11.902474,-2.141314,3.028822,1.1126,-3.188069,8.920,5,RUN
1759224933.59277,-18.060361,33.346291,-7.935581,1.879758,2.139522,-3.63332,8.940,5,RUN
1759224933.61189,-19.640534,40.566605,-4.963928,2.002161,2.751844,-1.007539,8.959,5,RUN
1759224933.63275,-9.643994,29.84507,-3.275866,2.026092,0.581317,0.99476,8.980,5,RUN
1759224933.65218,-4.871153,25.591622,-3.394978,0.868617,0.126819,1.912382,9.000,5,RUN
1759224933.67197,-2.024447,20.143616,-3.110667,-0.48967,1.276452,-0.347759,9.019,5,RUN
1759224933.69275,-3.348441,16.844256,0.022895,-1.458257,2.828996,-2.27723,9.040,5,RUN
1759224933.71188,-5.191228,10.475231,3.487005,-1.681175,2.660628,-1.845975,9.059,5,RUN
1759224933.73274,-2.592172,1.42874,6.481553,-1.028963,0.701963,-0.120708,9.080,5,RUN
1759224933.75216,2.033425,-2.337788,7.633613,-0.88559,-0.450948,1.247486,9.100,5,RUN
1759224933.77272,4.103662,-4.832846,7.0813,-1.033752,-0.790703,2.031925,9.120,5,RUN
1759224933.79279,7.748085,-7.377732,-0.228497,-0.91351,0.003494,1.721683,9.140,5,RUN
1759224933.81187,11.73099,-8.289175,-2.562544,-0.917313,2.545306,-0.174868,9.159,5,RUN
1759224933.83275,8.892065,-7.886201,-3.75321,-0.729317,4.32779,-1.179398,9.180,5,RUN
1759224933.85222,0.751929,-2.269853,-9.440936,-0.760344,3.550829,-0.534335,9.200,5,RUN
1759224933.87271,-1.898901,3.302502,-12.395231,-0.00207,1.578172,-0.293881,9.220,5,RUN
1759224933.89277,-3.537882,3.308637,-11.11134,1.12971,-1.461707,-0.274194,9.240,5,RUN
1759224933.91274,-1.136647,1.626561,-1.415422,-0.057442,-4.176143,-0.469823,9.260,5,RUN
1759224933.93229,0.764798,4.918887,2.961927,-3.595707,-5.059215,-0.567223,9.280,5,RUN
1759224933.95216,-1.534683,20.473417,22.274754,-1.093998,-4.660942,0.887856,9.300,5,RUN
1759224933.97270,-0.864307,38.307675,33.475728,2.254037,1.234563,2.067816,9.320,5,RUN
1759224933.99272,-1.335965,23.062297,6.786065,-1.44148,2.001709,1.515184,9.340,5,RUN
1759224934.01186,-4.696825,18.468572,4.206612,-4.09519,1.815002,1.930289,9.359,5,RUN
1759224934.03272,-4.272752,24.142681,6.026654,-4.307843,1.59298,1.417051,9.380,5,RUN
1759224934.05215,-6.003461,25.790939,-1.280599,-1.480422,-3.920033,-0.168218,9.400,5,RUN
1759224934.07273,-6.827216,19.310284,-20.779276,0.009717,-9.66217,-0.763342,9.420,5,RUN
1759224934.09272,-3.152715,13.354707,1.459116,0.223006,-3.735511,-1.632189,9.440,5,RUN
1759224934.11184,-6.12347,7.711724,1.460762,-0.099103,1.114499,-2.144733,9.459,5,RUN
1759224934.13272,-9.628731,2.933795,-5.657947,-0.867349,1.111775,-1.277771,9.480,5,RUN
1759224934.15213,-9.693524,-4.44304,-9.864859,0.056997,-0.649327,1.113546,9.500,5,RUN
1759224934.17271,-6.516568,-1.984943,2.494309,0.16259,1.405827,1.12524,9.520,5,RUN
1759224934.19176,-3.395427,-2.367117,3.55524,0.039859,2.696265,0.799965,9.539,5,RUN
1759224934.21272,-0.953341,-3.214964,0.51206,-0.567279,2.559869,0.86381,9.560,5,RUN
1759224934.23270,-2.077269,-4.633678,-11.545888,-0.43622,-2.864873,1.026075,9.580,5,RUN
1759224934.25214,-0.424971,-1.309928,-1.504905,1.72254,-3.619599,0.492082,9.600,5,RUN
1759224934.27287,0.307206,1.2387,3.183839,2.25798,-0.87264,-0.500465,9.620,5,RUN
1759224934.29278,-1.909077,6.186318,4.571578,2.169608,2.712224,-2.485932,9.640,5,RUN
1759224934.31185,-10.001329,23.580642,5.4917,4.347006,6.151453,-5.443601,9.659,5,RUN
1759224934.33289,-14.788684,31.361348,-7.982717,4.973031,2.11761,-4.681083,9.680,5,RUN
1759224934.35211,-17.989283,41.046493,-13.501352,2.91412,-5.385107,-1.179492,9.700,5,RUN
1759224934.37285,-9.434501,39.232137,-0.504877,2.920543,-1.401249,2.244242,9.720,5,RUN
1759224934.39276,0.154725,24.694544,-1.066916,0.26137,3.786661,0.912277,9.740,5,RUN
1759224934.41197,-2.196381,16.3925,-4.687398,-0.324185,3.477794,-1.916196,9.759,5,RUN
1759224934.43288,-5.303905,15.675437,-2.063503,-1.0563,2.057777,-3.46044,9.780,5,RUN
1759224934.45212,-6.308572,7.175273,4.600458,-0.99908,2.179539,-2.81702,9.800,5,RUN
1759224934.47286,-4.011186,-2.21329,7.733122,-0.546377,2.112277,-0.273477,9.820,5,RUN
1759224934.49277,0.236577,-4.831349,7.68853,-0.529122,2.050168,1.907884,9.840,5,RUN
1759224934.51201,4.034379,-5.011962,3.982754,-0.756661,0.324307,2.594852,9.859,5,RUN
1759224934.53288,6.568941,-7.091176,-1.416769,-1.037114,-3.258501,2.472956,9.880,5,RUN
1759224934.55211,11.505785,-8.43567,-2.467973,-0.480836,-0.396433,0.871914,9.900,5,RUN
1759224934.57284,9.813084,-8.665663,-1.368436,-0.502179,3.717862,-0.555539,9.920,5,RUN
1759224934.59280,0.162058,-3.503465,-6.831705,-0.886489,2.158575,-0.682198,9.940,5,RUN
1759224934.61187,-1.492785,0.762703,-5.820005,-1.336619,0.258065,-0.500759,9.959,5,RUN
1759224934.63286,-2.817826,1.221043,-8.368333,-1.566414,-2.520882,-0.328959,9.980,5,RUN
1759224934.65207,-1.313818,0.574908,0.551863,-1.629476,-3.597207,-0.146901,10.000,5,RUN
1759224934.67271,-0.372897,1.535132,0.801758,-2.999799,-4.2369,0.003717,10.020,5,RUN
1759224934.69272,-0.581492,15.169362,11.940931,-2.944847,-3.454818,1.52299,10.040,5,RUN
1759224934.71187,-2.904616,43.975499,39.997832,2.661764,1.442382,4.627694,10.059,5,RUN
1759224934.73266,1.016339,32.359431,10.004471,0.178108,3.164504,4.57648,10.080,5,RUN
1759224934.75203,3.060388,22.499809,4.646397,-4.332489,4.296427,1.674456,10.099,5,RUN
1759224934.77270,-1.508048,22.252907,4.51322,-5.541079,4.081028,-0.160886,10.120,5,RUN
1759224934.79273,-6.55278,21.42616,3.008763,-4.949348,1.63157,-0.476868,10.140,5,RUN
1759224934.81190,-4.040515,22.164023,-36.704907,1.283422,-14.286812,-0.422093,10.159,5,RUN
1759224934.83287,2.897732,19.888783,-6.605004,1.5097,-6.89078,-2.163258,10.180,5,RUN
1759224934.85206,-4.422539,11.504289,6.296301,0.271254,2.109241,-2.344115,10.200,5,RUN
1759224934.87276,-5.372738,2.716371,-4.129549,0.0084,2.206038,-1.977097,10.220,5,RUN
1759224934.89275,-4.043208,-1.658134,-9.969755,0.542142,-1.535643,-1.165486,10.240,5,RUN
1759224934.91186,-3.46441,-1.598878,4.449175,0.769076,-0.522955,-0.61913,10.259,5,RUN
1759224934.93284,-5.37603,-3.880702,4.040814,0.738037,1.403748,0.396823,10.280,5,RUN
1759224934.95207,-3.805733,-3.693954,2.158074,0.179664,2.579272,1.197782,10.300,5,RUN
1759224934.97284,-6.834249,-4.773589,-11.791742,2.695507,-4.572649,1.189672,10.320,5,RUN
1759224934.99286,-2.120215,0.125546,0.774375,2.783592,-4.641146,-0.258534,10.340,5,RUN
1759224935.01197,-2.247258,-0.414795,-1.096993,3.429252,-4.495677,-1.566892,10.359,5,RUN
1759224935.03285,-1.615488,2.205509,2.473061,3.275808,-2.412431,-3.04156,10.380,5,RUN
1759224935.05203,-5.734861,10.95886,3.955969,4.650512,1.45075,-4.483506,10.399,5,RUN
1759224935.07262,-16.767791,32.583588,-2.197877,4.621965,2.376123,-5.756078,10.420,5,RUN
1759224935.09270,-19.483863,46.429705,-18.40767,0.581539,0.366608,-4.014707,10.440,5,RUN
1759224935.11178,-13.172149,35.637243,-3.648015,0.023846,1.758849,-0.665769,10.459,5,RUN
1759224935.13263,-7.213131,22.403892,0.033818,-0.522821,3.030213,-0.407111,10.480,5,RUN
1759224935.15199,-7.442376,15.819089,0.121057,-0.936011,3.986697,-2.490003,10.499,5,RUN
1759224935.17263,-10.599879,13.351714,0.101903,-1.189781,3.245583,-1.984969,10.520,5,RUN
1759224935.19262,-7.439383,7.150433,3.272425,-1.427238,2.270483,-0.630501,10.540,5,RUN
1759224935.21264,-1.615039,1.549797,5.118504,-1.212656,0.353263,0.900105,10.560,5,RUN
1759224935.23263,4.309413,-2.058864,5.567566,-1.666036,-1.441781,1.523417,10.580,5,RUN
1759224935.25201,6.909067,-5.232977,4.899883,-1.624393,-1.107032,2.20097,10.599,5,RUN
1759224935.27260,9.425673,-8.375666,-0.339228,-1.476899,1.504681,2.515428,10.620,5,RUN
1759224935.29239,14.196419,-8.405743,-3.708319,-1.381202,2.561306,0.648777,10.640,5,RUN
1759224935.31175,11.219079,-9.425822,-4.034679,-1.357759,4.091315,-0.129076,10.659,5,RUN
1759224935.33263,1.435324,-1.483358,-8.246079,-1.266003,3.658555,0.202535,10.680,5,RUN
1759224935.35200,-1.414824,1.807323,-7.912836,-1.088521,2.436836,0.30004,10.699,5,RUN
1759224935.37259,-3.822044,3.533243,-13.95625,0.208462,-1.552972,-0.03346,10.720,5,RUN
1759224935.39266,-0.934038,0.50787,-0.638953,-1.28015,-4.063573,0.120566,10.740,5,RUN
1759224935.41174,0.73083,0.696264,4.039916,-4.204438,-2.884013,0.737022,10.759,5,RUN
1759224935.43265,-0.178817,8.143877,21.54976,-2.521081,-2.796902,1.087507,10.780,5,RUN
1759224935.45195,-4.452766,31.181634,33.861493,0.829522,2.61395,1.973289,10.799,5,RUN
1759224935.47258,-7.401525,47.067012,13.140875,-1.12257,3.091392,1.732584,10.820,5,RUN
1759224935.49260,-7.313388,33.261746,0.451906,-4.020703,0.52563,0.795638,10.840,5,RUN
1759224935.51173,-6.732645,23.054067,0.254534,-4.895756,-0.765735,0.150101,10.859,5,RUN
1759224935.53263,-9.229198,17.369933,-42.006867,-1.27754,-14.51866,0.466477,10.880,5,RUN
1759224935.55203,-1.142184,19.284247,1.995268,3.428975,-5.4797,-1.654378,10.899,5,RUN
1759224935.57257,-5.668572,10.60781,0.679205,-0.367781,1.822255,-1.605256,10.920,5,RUN
1759224935.59262,-6.261286,5.311686,-0.948403,-1.052859,2.587469,-1.108448,10.940,5,RUN
1759224935.61176,-5.059846,-0.822558,-7.738808,-0.177552,-0.456945,-0.095208,10.959,5,RUN
1759224935.63261,-3.109619,-1.181239,-0.493654,0.161886,-0.408145,0.076275,10.980,5,RUN
1759224935.65197,-3.111714,-1.764826,2.343774,0.246478,0.903206,0.060441,10.999,5,RUN
1759224935.67257,-3.119944,-3.3031,-0.183605,0.904877,0.187485,0.395615,11.020,5,RUN
1759224935.69260,-3.733009,-3.450194,-3.972729,3.309118,-2.613255,0.133886,11.040,5,RUN
1759224935.71177,-1.166425,-1.088913,0.186598,4.283018,-2.361766,-0.664912,11.059,5,RUN
1759224935.73176,-0.322918,-0.308253,-1.105373,5.091495,-1.946766,-1.588952,11.079,5,RUN
1759224935.75194,0.358382,2.966565,-1.180641,4.526895,-0.858009,-3.024574,11.099,5,RUN
1759224935.77168,-3.175909,9.699509,-2.715474,3.754354,-0.364655,-4.653998,11.119,5,RUN
1759224935.79259,-19.360412,32.558748,-9.084649,2.367771,0.237921,-5.605085,11.140,5,RUN
1759224935.81175,-27.411813,43.296444,-7.239767,1.492539,0.818832,-3.098451,11.159,5,RUN
1759224935.83257,-14.992042,29.013834,-3.228431,0.939605,0.920354,-1.148872,11.180,5,RUN
1759224935.85193,-9.068488,19.1177,-2.252944,-0.303243,1.829286,-1.922348,11.199,5,RUN
1759224935.87260,-12.74658,13.765762,-0.486472,-1.210616,3.790041,-3.036764,11.220,5,RUN
1759224935.89259,-15.172355,10.470293,0.796671,-1.608968,5.048037,-1.483088,11.240,5,RUN
1759224935.91258,-11.807005,6.60231,0.203507,-2.366755,4.198718,0.607271,11.260,5,RUN
1759224935.93258,-4.130746,2.387618,4.182371,-2.259916,0.97557,2.233764,11.280,5,RUN
1759224935.95192,3.458275,-1.105972,6.265177,-2.01526,-2.406264,2.427106,11.299,5,RUN
1759224935.97257,7.020847,-4.461296,1.878401,-3.007436,-2.647329,2.739737,11.320,5,RUN
1759224935.99258,9.574712,-8.672098,2.849699,-1.603879,1.375446,3.011225,11.340,5,RUN
1759224936.01169,13.813197,-6.934207,-1.027711,-1.027894,4.028879,1.013961,11.359,5,RUN
1759224936.03260,12.922554,-7.376086,-3.074903,-0.868789,5.147715,-0.813577,11.380,5,RUN
1759224936.05189,2.314146,-0.66873,-7.552958,-0.838622,4.673783,-0.871068,11.399,5,RUN
1759224936.07262,-1.469741,1.716792,-8.639327,-0.14003,3.050062,-0.691264,11.420,5,RUN
1759224936.09261,-4.09199,2.394651,-13.089998,-0.001766,-1.828655,-0.663147,11.440,5,RUN
1759224936.11166,-0.100856,0.150685,-1.10253,-2.940287,-4.704213,-0.017307,11.459,5,RUN
1759224936.13261,2.484433,4.33141,5.544821,-5.206485,-5.108059,0.5167,11.480,5,RUN
1759224936.15187,0.545429,8.611794,21.126735,-2.686661,-5.398597,1.021784,11.499,5,RUN
1759224936.17254,-0.878373,27.702858,35.862896,1.56677,0.453262,1.346819,11.520,5,RUN
1759224936.19262,-5.807884,42.632501,18.862718,-0.024086,2.893929,2.191502,11.540,5,RUN
1759224936.21163,-7.273435,38.781578,3.008913,-3.997171,2.096339,0.939732,11.559,5,RUN
1759224936.23254,-8.767566,26.440067,1.719037,-4.763277,0.926874,-0.698106,11.580,5,RUN
1759224936.27257,-4.040066,21.337424,22.766912,6.552157,-3.827272,-2.853957,11.620,5,RUN
1759224936.29256,-13.315652,9.460239,-16.033071,0.433594,-0.542569,-2.59675,11.640,5,RUN
1759224936.31168,-15.761628,-0.11552,-0.861613,-0.079438,1.796485,0.350261,11.659,5,RUN
1759224936.33274,-4.986524,-4.651635,-6.568492,0.992476,0.031425,1.566579,11.680,5,RUN
1759224936.35187,-3.357718,-3.197307,3.888632,0.433877,1.798308,1.60173,11.699,5,RUN
1759224936.37255,-1.427094,-2.812888,2.031031,-0.774813,3.010993,1.386734,11.720,5,RUN
1759224936.39256,-1.537526,-4.016124,-4.974253,-2.650535,0.522039,1.52665,11.740,5,RUN
1759224936.41183,-2.113482,-3.784185,-9.986065,0.96437,-6.051924,1.208226,11.759,5,RUN
1759224936.43254,0.134973,-0.792032,3.55913,3.001046,-3.320747,0.4308,11.780,5,RUN
1759224936.45187,0.626533,0.080056,4.080917,4.158061,0.397612,-0.53627,11.799,5,RUN
1759224936.47254,0.476895,2.273145,1.545158,3.653795,1.769794,-1.462546,11.820,5,RUN
1759224936.49258,-2.518401,12.162096,3.620482,3.929595,4.20355,-4.136452,11.840,5,RUN
1759224936.51259,-14.948048,42.295667,-0.2273,5.825744,3.322145,-7.889811,11.860,5,RUN
1759224936.53186,-18.223017,42.547956,-22.036531,2.949972,-5.07773,-5.934319,11.879,5,RUN
1759224936.55182,-11.862521,35.718646,-4.922928,2.161875,-2.081291,-0.229229,11.899,5,RUN
1759224936.57257,-4.526687,24.224083,-4.859332,-0.811698,2.630194,0.895142,11.920,5,RUN
1759224936.59258,-5.320814,15.696236,-4.495862,-1.618832,3.800281,-1.593738,11.940,5,RUN
1759224936.61178,-7.952939,11.314398,2.175132,-1.625162,4.748718,-2.996381,11.959,5,RUN
1759224936.63257,-9.635315,4.324377,7.239916,-0.626825,3.296357,-1.362172,11.980,5,RUN
1759224936.65180,-4.330512,-2.347664,6.241983,-0.31181,0.150963,1.14191,11.999,5,RUN
1759224936.67253,2.87798,-2.752135,4.29026,-0.897374,-2.660371,3.374871,12.020,5,RUN
1759224936.69258,5.053112,-3.239205,3.574244,-1.148175,-2.904349,3.568101,12.040,5,RUN
1759224936.71171,8.44824,-4.041263,-1.116745,-1.291987,0.06429,3.351208,12.059,5,RUN
1759224936.73254,13.10167,-4.424634,1.115249,-0.7354,5.219096,1.416857,12.080,5,RUN
1759224936.75181,11.680113,-5.118055,-2.262072,0.22156,6.945345,-1.026965,12.099,5,RUN
1759224936.77256,1.05704,-1.9821,-9.560047,0.042354,2.403795,-1.358727,12.120,5,RUN
1759224936.79255,-2.441188,-0.001047,-6.508338,-0.439754,-1.394185,-0.880377,12.140,5,RUN
1759224936.81181,-1.476774,0.467618,-0.869394,-1.034829,-2.993874,-0.693086,12.159,5,RUN
1759224936.83218,-0.343867,0.892289,0.201113,-1.641037,-3.67018,-0.487974,12.180,5,RUN
1759224936.85179,0.559944,1.799093,2.111387,-2.352351,-3.313063,-0.11458,12.199,5,RUN
1759224936.87247,-5.350592,26.647315,32.035765,0.835915,4.24,1.364718,12.220,5,RUN
1759224936.89252,-9.963919,44.204744,34.241423,0.363413,5.71681,1.562914,12.240,5,RUN
1759224936.91163,-15.415816,47.87715,5.493795,-3.775854,1.156802,1.952119,12.259,5,RUN
1759224936.93181,-8.239795,25.435998,1.178246,-5.898493,-0.990553,1.211982,12.279,5,RUN
1759224936.95179,-7.254581,17.561619,1.066318,-6.256958,-2.037248,0.22037,12.299,5,RUN
1759224936.97225,-6.591237,14.842105,-55.031922,0.741924,-10.884686,0.757687,12.320,5,RUN
1759224936.99220,-5.939416,18.40767,0.06599,3.441643,-1.863358,-0.771223,12.340,5,RUN
1759224937.01161,-8.088062,7.641992,-3.18369,-0.303839,0.375572,-0.977622,12.359,5,RUN
1759224937.03249,-4.102016,-3.18758,-6.77993,0.439726,-0.520295,-0.37492,12.380,5,RUN
1759224937.05180,-4.790199,-3.453337,-2.274791,0.450074,0.071862,-0.079711,12.399,5,RUN
1759224937.07245,-3.326893,-3.192518,1.834407,0.133397,2.07314,0.808544,12.420,5,RUN
1759224937.09247,-4.029591,-4.202722,-0.632219,-0.074277,1.010431,1.584933,12.440,5,RUN
1759224937.11160,-6.271761,-5.609914,-10.338911,0.803839,-2.475401,1.811665,12.459,5,RUN
1759224937.13252,-3.298611,-0.558597,-0.631171,2.411958,-3.583421,0.064636,12.480,5,RUN
1759224937.15178,-2.095824,0.760758,0.646135,2.762659,-2.587861,-0.926324,12.499,5,RUN
1759224937.17248,-1.294365,7.392846,3.592799,3.703656,2.066783,-3.407572,12.520,5,RUN
1759224937.19247,-8.280646,23.524977,4.584597,5.613007,5.270798,-4.967817,12.540,5,RUN
1759224937.21159,-12.407651,34.808699,-7.039103,4.563488,1.988226,-5.354224,12.559,5,RUN
1759224937.23245,-15.050251,44.641985,-2.503587,1.808156,-0.09261,-0.050499,12.580,5,RUN
1759224937.25176,-10.728717,40.805277,-1.449091,2.161357,-0.197181,1.89893,12.599,5,RUN
1759224937.27243,-1.880795,19.678991,-1.608006,0.589031,2.926104,-0.379827,12.620,5,RUN
1759224937.29247,-3.707721,14.702942,-0.288202,0.183375,3.384027,-2.401617,12.640,5,RUN
1759224937.31248,-4.537461,8.165574,2.352004,0.093566,2.449429,-1.576388,12.660,5,RUN
1759224937.33246,-2.049886,1.041627,3.565266,-0.04044,0.551457,-0.278939,12.680,5,RUN
1759224937.35174,-0.293888,-1.701679,3.700538,-0.286046,-0.138996,0.316129,12.699,5,RUN
1759224937.37246,4.147057,-6.066907,3.939659,-1.212374,-2.068156,1.717608,12.720,5,RUN
1759224937.39244,4.819528,-7.369502,1.422305,-1.240957,-3.046559,2.329494,12.740,5,RUN
1759224937.41158,4.499004,-7.38716,0.016909,-1.26718,-3.12362,2.578296,12.759,5,RUN
1759224937.43245,7.189488,-9.19149,1.051055,-0.035744,2.138899,1.426515,12.780,5,RUN
1759224937.45173,4.401889,-8.034492,-0.621894,-0.218284,3.42283,0.764256,12.799,5,RUN
1759224937.47241,-0.605883,0.102801,-5.837513,-0.992698,2.05587,0.378711,12.820,5,RUN
1759224937.49245,-1.197849,1.374122,-3.705626,-1.727847,-0.196124,-0.058636,12.840,5,RUN
1759224937.51156,-1.20578,1.378013,-2.798971,-2.270749,-1.476303,-0.30422,12.859,5,RUN
1759224937.53244,-1.248127,1.898602,0.225055,-3.27132,-4.009825,-0.591668,12.880,5,RUN
1759224937.55172,1.277755,6.914903,5.088876,-3.339201,-4.438844,-0.938008,12.899,5,RUN
1759224937.57243,-1.580772,33.027563,17.0533,-1.13231,-3.461154,4.141167,12.920,5,RUN
1759224937.59217,2.618508,47.265132,34.042704,2.361758,3.288573,7.669683,12.940,5,RUN
1759224937.61153,8.605359,30.258968,11.099818,-1.163311,7.305285,4.436567,12.959,5,RUN
1759224937.63241,3.244592,22.602311,1.639878,-4.050097,7.558392,1.314285,12.980,5,RUN
1759224937.65170,-8.013992,18.170943,-46.469958,-4.370077,-8.109718,0.058853,12.999,5,RUN
1759224937.67239,0.533159,19.916466,5.320365,-0.893915,-6.384766,-1.597156,13.020,5,RUN
1759224937.69243,-4.562002,12.273426,-6.984934,-0.328164,-1.643901,-1.567347,13.040,5,RUN
1759224937.71154,-4.927566,7.523479,-2.736124,-0.570994,1.950893,-0.754853,13.059,5,RUN
1759224937.73223,-3.718943,3.328389,-3.441515,0.584243,2.238892,-0.292927,13.080,5,RUN
1759224937.75167,-2.507178,0.113126,-6.145467,0.881747,0.159892,0.13336,13.099,5,RUN
1759224937.77240,-1.273865,-0.496198,1.623867,0.924798,-0.26022,0.165984,13.120,5,RUN
1759224937.79244,-0.866402,-0.972794,1.95307,1.121177,0.185809,0.442258,13.140,5,RUN
1759224937.81154,-0.35509,-1.008109,2.784756,0.314159,1.935698,0.842927,13.159,5,RUN
1759224937.83240,-0.909198,-0.85488,-3.355025,1.562927,-1.83665,0.765596,13.180,5,RUN
1759224937.85168,-0.493056,-0.192135,-3.067571,2.591283,-5.124678,0.130083,13.199,5,RUN
1759224937.87241,-0.270395,1.09834,2.207903,2.262964,-3.710104,-1.038249,13.220,5,RUN
1759224937.89241,-1.799243,5.469703,4.227861,1.811419,-0.730024,-3.197708,13.240,5,RUN
1759224937.91153,-7.335834,22.033239,5.623381,4.7643,-0.209618,-6.534007,13.259,5,RUN
1759224937.93239,-10.851569,33.460913,-0.911742,6.118756,-1.802577,-8.476201,13.280,5,RUN
1759224937.95167,-13.284527,38.867619,-23.16031,1.692843,-5.217578,-6.836635,13.299,5,RUN
1759224937.97239,-15.342044,36.285922,-2.224962,-0.165891,2.240278,-0.870533,13.320,5,RUN
1759224937.99240,-8.387038,24.563312,-1.673846,-1.045994,4.517559,0.319704,13.340,5,RUN
1759224938.01152,-6.022914,16.621745,-0.471957,-0.966594,3.139468,-1.367633,13.359,5,RUN
1759224938.03239,-5.072266,10.566809,2.155081,-1.118592,1.654681,-1.595344,13.380,5,RUN
1759224938.05167,-2.598307,4.359542,3.66268,-1.007494,0.820586,-0.599785,13.399,5,RUN
1759224938.07213,1.114351,-0.929399,3.455581,-1.197338,0.120977,0.807829,13.420,5,RUN
1759224938.09240,5.669918,-4.089895,0.916979,-1.738911,-1.011107,1.587147,13.440,5,RUN
1759224938.11151,5.247491,-5.947047,1.361253,-1.907709,-0.469954,2.397307,13.459,5,RUN
1759224938.13237,8.003816,-7.793426,1.226729,-0.198647,0.923793,2.063943,13.480,5,RUN
1759224938.15163,11.579407,-8.148815,1.816152,1.131067,4.764866,0.756989,13.499,5,RUN
1759224938.17239,6.097134,-6.380996,-4.234595,0.362298,5.448707,0.212129,13.520,5,RUN
1759224938.19162,-0.622642,-0.129736,-8.769063,-0.708636,2.402384,0.124675,13.539,5,RUN
1759224938.21150,-1.834557,1.456273,-6.331915,-1.015646,-1.219306,-0.068113,13.559,5,RUN
1759224938.23169,-1.612794,1.082778,-2.313248,-1.509095,-3.595937,-0.262094,13.579,5,RUN
1759224938.25165,-0.412701,0.665438,0.558747,-1.954129,-4.203514,-0.214349,13.599,5,RUN
1759224938.27238,1.185579,2.633173,1.740734,-3.46854,-4.577168,-0.163806,13.620,5,RUN
1759224938.29238,-2.501193,22.853403,17.203536,-2.510661,-1.943654,2.674218,13.640,5,RUN
1759224938.31149,-2.404826,50.601602,38.40479,0.416785,4.100965,5.116506,13.659,5,RUN
1759224938.33235,-0.621445,37.355382,8.839841,-3.338629,4.816512,3.623249,13.680,5,RUN
1759224938.35164,-0.906505,24.96045,4.974403,-4.954907,4.947908,0.980906,13.699,5,RUN
1759224938.37233,-6.430676,20.76536,-0.166397,-4.369942,-4.060348,0.184901,13.720,5,RUN
1759224938.39237,0.217423,18.089989,-24.684668,1.415369,-13.022681,0.48012,13.740,5,RUN
1759224938.41148,1.248427,14.550012,-4.110844,1.088853,-1.024902,-0.959629,13.759,5,RUN
1759224938.43237,-4.68665,8.924536,2.897134,-0.215763,3.452798,-1.122877,13.780,5,RUN
1759224938.45162,-3.969287,1.239598,-4.255095,-0.458273,2.362725,-0.923042,13.799,5,RUN
1759224938.47178,-3.237559,-1.706018,-6.567594,0.010844,-0.551323,-0.660794,13.819,5,RUN
1759224938.49237,-1.353322,-0.344166,2.178424,0.058052,-0.161772,-0.767706,13.840,5,RUN
1759224938.51147,-0.733673,-1.060033,1.846528,-0.077912,0.466237,-0.70858,13.859,5,RUN
1759224938.53248,-2.29574,-2.738219,-2.491316,1.6685,-2.94197,-0.487001,13.880,5,RUN
1759224938.55166,-1.611148,-1.643619,-0.994342,2.693002,-4.368042,-0.618814,13.899,5,RUN
1759224938.57152,-2.709338,-2.523189,-0.330849,3.95148,-3.347205,-0.968731,13.919,5,RUN
1759224938.59238,-2.091485,-1.403152,1.813608,3.543591,-0.45353,-1.722625,13.940,5,RUN
1759224938.61154,-3.170821,3.886837,0.666037,3.581679,0.786432,-2.397736,13.959,5,RUN
1759224938.63196,-10.753257,19.79092,-5.539434,3.733408,0.089475,-4.44169,13.979,5,RUN
1759224938.65159,-18.827254,46.684538,-11.861922,2.18268,1.135336,-5.497015,13.999,5,RUN
1759224938.67213,-15.751303,35.106179,-4.919336,1.762906,1.447016,-2.88648,14.020,5,RUN
1759224938.69213,-9.093627,29.629143,-4.078822,0.86143,-0.297124,-1.024917,14.040,5,RUN
1759224938.71146,-7.306056,26.821343,-1.580772,0.042624,0.492527,-1.322789,14.059,5,RUN
1759224938.73209,-9.142109,17.417518,0.954538,-0.24686,3.234787,-2.533748,14.080,5,RUN
1759224938.75155,-9.615413,12.277915,-0.006734,-0.511288,3.732936,-1.963933,14.099,5,RUN
1759224938.77232,-5.65675,4.676175,1.272069,-1.04758,2.833315,-0.498409,14.120,5,RUN
1759224938.79241,-1.051055,0.114323,4.398148,-1.301558,1.140038,0.903813,14.140,5,RUN
1759224938.81233,4.982184,-2.37011,6.514922,-1.108992,-0.980519,1.144742,14.160,5,RUN
1759224938.83232,5.345953,-4.898686,4.878336,-1.669658,-2.411234,1.952589,14.180,5,RUN
1759224938.85156,8.997859,-9.231144,0.836474,-1.052048,-0.103775,2.949969,14.199,5,RUN
1759224938.87229,14.144644,-8.411429,1.031003,-0.616446,3.568155,1.300636,14.220,5,RUN
1759224938.89237,8.796297,-7.017854,-4.717475,-0.650286,4.635469,-0.416236,14.240,5,RUN
1759224938.91144,-0.876876,-2.474557,-10.698041,-1.551875,2.156552,-0.672982,14.259,5,RUN
1759224938.93234,-2.058415,0.733972,-6.461352,-1.601562,-0.138554,-0.647757,14.280,5,RUN
1759224938.95156,-2.871546,1.577779,-5.555296,-0.51228,-2.825387,-0.709952,14.299,5,RUN
1759224938.97219,-1.390283,0.895731,1.086519,-0.397296,-3.817813,-0.591276,14.320,5,RUN
1759224938.99232,-0.248847,2.735675,1.239748,-1.582957,-4.591249,-0.765597,14.340,5,RUN
1759224939.01144,-0.5366,11.409867,8.656236,-3.021769,-2.894504,-0.250738,14.359,5,RUN
1759224939.03193,-7.752724,35.074456,28.894722,1.281684,0.985442,3.391278,14.379,5,RUN
1759224939.05154,-4.990414,41.359834,16.508619,-0.192535,3.27124,4.071371,14.399,5,RUN
1759224939.07228,-3.606416,31.203032,3.455282,-4.192591,2.330438,1.977697,14.420,5,RUN
1759224939.09231,-5.836914,21.630415,2.548927,-5.310944,0.87819,1.258721,14.440,5,RUN
1759224939.11142,-6.976853,18.766351,2.161964,-2.189674,-1.870843,1.465469,14.459,5,RUN
1759224939.13191,-1.994969,19.73705,-31.02631,1.664275,-9.631557,0.620182,14.479,5,RUN
1759224939.15152,1.785326,15.866524,-2.452261,-0.591448,-2.381966,0.125973,14.499,5,RUN
1759224939.17229,-5.01256,9.666589,3.6748,0.231243,3.519105,0.140783,14.520,5,RUN
1759224939.19230,-5.57415,2.820818,-6.23076,0.48622,1.552011,0.363759,14.540,5,RUN
1759224939.21142,-2.769343,-0.849642,-1.329979,0.510093,0.580285,0.532221,14.559,5,RUN
1759224939.23231,-1.713949,-1.750161,3.843292,0.8451,0.608642,0.597457,14.580,5,RUN
1759224939.25152,-2.679561,-3.03076,0.679055,2.06811,-2.004537,0.677419,14.599,5,RUN
1759224939.27226,-2.689287,-1.439214,0.021398,2.898073,-3.907287,-0.253562,14.620,5,RUN
1759224939.29219,-4.704906,-1.970578,1.871368,2.443136,-2.735437,-1.605454,14.640,5,RUN
1759224939.31141,-4.008193,-0.959027,-0.908899,2.585106,-2.635342,-3.250352,14.659,5,RUN
1759224939.33230,-9.025242,-2.286463,1.978059,2.042793,-0.376353,-2.914231,14.680,5,RUN
1759224939.35151,-11.81763,8.130858,-0.669628,3.515579,-0.741598,-2.620234,14.699,5,RUN
1759224939.37225,-11.959187,22.261137,-10.99986,2.687088,-2.769465,-3.927447,14.720,5,RUN
1759224939.39229,-13.120075,31.619772,-10.419865,1.620201,-1.037762,-3.761899,14.740,5,RUN
1759224939.41140,-12.781146,31.309574,-2.953248,-0.405497,3.397677,-2.896371,14.759,5,RUN
1759224939.43227,-15.219192,33.148919,-0.463577,-2.288398,5.36016,-1.393451,14.780,5,RUN
1759224939.45149,-12.428002,23.567174,-0.23538,-1.610263,3.912119,-0.737323,14.799,5,RUN
1759224939.47224,-8.597578,15.495572,2.029086,-1.055278,2.755322,-0.512288,14.820,5,RUN
1759224939.49232,-4.714931,10.155904,4.308216,-0.891672,2.434895,0.354305,14.840,5,RUN
1759224939.51227,0.017059,3.834763,4.394856,-0.652441,0.818697,1.51683,14.860,5,RUN
1759224939.53239,5.743091,-1.99856,4.597615,-0.44669,-0.596505,2.296629,14.880,5,RUN
1759224939.55148,7.443274,-4.815039,2.803012,-0.63886,0.419501,2.959684,14.899,5,RUN
1759224939.57225,9.194034,-6.768857,0.583138,-0.547671,1.150727,2.587101,14.920,5,RUN
1759224939.59227,14.651317,-7.226898,0.245406,-0.153543,1.667798,0.078872,14.940,5,RUN
1759224939.61143,9.396643,-8.841637,-1.099836,-0.477837,5.142799,-0.872147,14.959,5,RUN
1759224939.63233,-0.107589,-1.99841,-8.109161,-0.736945,4.934558,-0.745437,14.980,5,RUN
1759224939.65147,-2.658462,1.47423,-8.202984,-0.157461,2.347952,-0.561074,14.999,5,RUN
1759224939.67223,-4.670938,2.743007,-12.76289,0.394515,-3.238348,-0.95284,15.020,5,RUN
1759224939.69231,-2.023549,1.654693,-0.200065,-1.545724,-5.559154,-1.567941,15.040,5,RUN
1759224939.71207,-0.001197,3.480271,3.708469,-4.193742,-4.815708,-1.670931,15.060,5,RUN
1759224939.73196,-1.398513,8.75365,14.910489,-3.53215,-2.965375,-0.844742,15.079,5,RUN
1759224939.75147,-6.767959,21.225346,22.744168,1.01798,-2.039553,2.483303,15.099,5,RUN
1759224939.77223,-4.93849,39.536499,23.545926,0.60534,2.136115,3.423299,15.120,5,RUN
1759224939.79232,-5.109376,37.009719,3.271527,-4.078542,1.688112,2.639662,15.140,5,RUN
1759224939.81137,-4.612878,23.479187,0.870292,-5.610307,0.547744,2.509509,15.159,5,RUN
1759224939.83223,-3.376273,18.772187,-7.948899,1.309807,-2.475848,1.389481,15.180,5,RUN
1759224939.85145,-3.820847,17.785177,-31.464598,-1.957474,-5.412833,0.681288,15.199,5,RUN
1759224939.87223,-2.245911,14.358327,7.043592,-1.211252,1.574054,0.485599,15.220,5,RUN
1759224939.89226,-6.232855,9.917382,-3.264195,-0.409903,2.349751,0.619478,15.240,5,RUN
1759224939.91224,-4.854394,4.082712,-4.170699,-0.482775,0.577868,0.182163,15.260,5,RUN
1759224939.93235,-2.797774,-1.655142,-4.598812,0.191877,-1.755928,0.07916,15.280,5,RUN
1759224939.95142,-1.479317,-0.889596,3.6751,0.284267,-0.904084,-0.062571,15.299,5,RUN
1759224939.97156,-1.780687,-1.958158,4.924873,0.03575,0.968437,0.058763,15.319,5,RUN
1759224939.99225,-4.307767,-3.01834,-6.022016,3.166122,-4.499746,-0.560992,15.340,5,RUN
1759224940.01135,-4.254796,-1.575684,2.786103,3.119843,-3.739706,-1.551896,15.359,5,RUN
1759224940.03230,-6.846369,-3.878607,-2.14281,4.465052,-4.228361,-2.101515,15.380,5,RUN
1759224940.05141,-5.121048,-2.8286,2.562843,4.539804,-1.506455,-2.049994,15.399,5,RUN
1759224940.07221,-5.395034,6.629095,-1.671153,4.767855,-0.686128,-2.466572,15.420,5,RUN
1759224940.09189,-8.661922,25.459192,-15.404892,2.26361,-0.928281,-4.800243,15.439,5,RUN
1759224940.11134,-12.446557,36.46429,-4.115633,1.452909,4.866347,-5.016654,15.459,5,RUN
1759224940.13224,-12.32535,30.853778,-6.831854,0.693211,4.638803,-3.543096,15.480,5,RUN
1759224940.15139,-12.196213,31.939249,-4.094534,-0.726038,1.346285,-1.705888,15.499,5,RUN
1759224940.17218,-10.318261,28.943654,-1.311873,-0.679001,0.515576,-0.744522,15.520,5,RUN
1759224940.19224,-8.284686,17.398813,2.846107,-0.823559,3.44114,-1.636728,15.540,5,RUN
1759224940.21222,-7.809886,10.700136,4.676774,-0.424118,4.204662,-1.288535,15.560,5,RUN
1759224940.23232,-3.887136,3.730017,4.455609,-0.070797,1.282876,0.074263,15.580,5,RUN
1759224940.25140,2.2296,-2.061108,4.397999,-0.40961,-1.435972,1.059132,15.599,5,RUN
1759224940.27189,6.970419,-5.630115,-0.921019,-1.86456,-2.137245,1.937104,15.619,5,RUN
1759224940.29222,6.542006,-7.091925,0.446818,-1.670896,-1.194957,2.822535,15.640,5,RUN
1759224940.31132,6.935853,-7.134871,1.161786,-0.627774,0.819181,2.89057,15.659,5,RUN
1759224940.33231,8.851064,-7.160309,-1.772158,-0.152046,5.165918,1.704387,15.680,5,RUN
1759224940.35141,5.018845,-5.400122,-8.519916,-0.109131,5.392851,0.017666,15.699,5,RUN
1759224940.37223,-1.282843,0.052822,-8.854057,-0.296429,1.720816,-0.461961,15.720,5,RUN
1759224940.39220,-1.851466,1.417966,-4.903175,-0.866418,-2.039246,-1.014658,15.740,5,RUN
1759224940.41131,-1.716044,1.01978,-0.2683,-2.636566,-3.38518,-1.470689,15.759,5,RUN
1759224940.43223,-0.565181,0.830638,3.145233,-3.188344,-3.379992,-1.001427,15.780,5,RUN
1759224940.45139,-3.011457,5.017498,11.390115,-1.634157,-4.234008,-0.194919,15.799,5,RUN
1759224940.47216,-5.399224,20.055928,22.637925,0.947917,-1.466524,1.474945,15.820,5,RUN
1759224940.49220,-5.804592,52.657922,24.024766,-0.275714,2.763513,2.242975,15.840,5,RUN
1759224940.51133,-6.67668,40.309677,0.927304,-4.350605,-0.432428,1.946817,15.859,5,RUN
1759224940.53219,-4.840627,21.078402,2.285714,-5.6666,-1.098234,1.399653,15.880,5,RUN
1759224940.55135,-5.194669,16.95843,2.662053,-4.794391,-2.505145,0.246141,15.899,5,RUN
1759224940.57222,-10.088717,15.741277,-32.03786,2.459173,-8.497314,-1.299854,15.920,5,RUN
1759224940.59216,-6.774244,12.036849,0.025289,0.749485,-1.479054,-1.533306,15.940,5,RUN
1759224940.61130,-7.455993,8.50166,2.864662,0.494066,1.591063,-1.745005,15.959,5,RUN
1759224940.63229,-8.748114,0.575955,-6.124667,0.348412,0.622019,-0.16581,15.980,5,RUN
1759224940.65135,-5.607968,-3.072659,-3.649212,0.443203,-0.028959,0.977495,15.999,5,RUN
1759224940.67216,-3.878756,-2.852991,2.371008,0.469827,0.556897,0.837684,16.020,5,RUN
1759224940.69132,-0.841113,-2.203713,2.379238,0.071987,1.751197,0.827865,16.039,5,RUN
1759224940.71129,-2.400187,-4.287716,-5.248389,-0.458279,-1.469444,1.236007,16.059,5,RUN
1759224940.73227,-1.953669,-3.127725,-4.130746,1.536593,-4.303559,0.993298,16.080,5,RUN
1759224940.75130,-0.680402,-0.621146,3.214515,2.552649,-1.649679,0.012694,16.099,5,RUN
1759224940.77197,-0.601693,2.805107,4.559458,2.484421,1.700339,-1.903204,16.119,5,RUN
1759224940.79221,-5.44651,13.495815,3.267786,4.855506,3.682191,-4.674843,16.140,5,RUN
1759224940.81219,-17.882741,26.900801,-2.250101,6.079362,1.822723,-5.078224,16.160,5,RUN
1759224940.83223,-13.99785,32.844107,-17.225982,2.690386,-2.650656,-3.319435,16.180,5,RUN
1759224940.85131,-10.237307,33.612197,-1.245135,2.469112,-0.625032,-0.507899,16.199,5,RUN
1759224940.87212,-6.74267,32.421381,1.781735,1.234979,2.82424,0.390338,16.220,5,RUN
1759224940.89215,-5.898415,22.308423,-3.041085,0.126533,3.25246,-1.075693,16.240,5,RUN
1759224940.91216,-8.282741,16.477644,-4.520253,-0.430585,1.802155,-2.887799,16.260,5,RUN
1759224940.93178,-7.972392,11.280281,-0.1239,-0.998115,1.321713,-2.810049,16.279,5,RUN
1759224940.95128,-6.026954,1.637185,3.372233,-0.872985,1.584117,-0.732675,16.299,5,RUN
1759224940.97212,-0.913089,-1.862539,4.760421,-0.859107,1.244887,1.273382,16.320,5,RUN
1759224940.99213,4.627693,-2.665794,3.081188,-1.58227,-0.478064,1.545951,16.340,5,RUN
1759224941.01123,7.988852,-5.30585,2.851644,-1.903812,-1.793926,0.948064,16.359,5,RUN
1759224941.03141,9.033173,-7.33733,-0.105943,-1.435694,-1.606657,0.975374,16.379,5,RUN
1759224941.05127,9.223961,-7.088184,-0.100556,-0.383079,3.982745,1.145373,16.399,5,RUN
1759224941.07211,7.079804,-5.816264,-6.273557,-0.527224,3.93197,0.541116,16.420,5,RUN
1759224941.09211,-2.054674,-0.304662,-9.313295,-0.705368,0.550762,0.421304,16.440,5,RUN
1759224941.11123,-2.141913,0.632518,-3.294571,-0.844206,-1.495912,0.478415,16.459,5,RUN
1759224941.13211,-2.345569,0.64015,0.11971,-1.655278,-2.675956,0.208441,16.480,5,RUN
1759224941.15125,-1.485901,1.683273,2.014272,-2.675261,-3.012433,0.141157,16.499,5,RUN
1759224941.17176,-4.515165,9.31105,7.3291,-2.393214,-4.645677,0.913769,16.519,5,RUN
1759224941.19212,-9.928156,38.378753,31.522807,0.460834,1.069623,2.609065,16.540,5,RUN
1759224941.21122,-6.810157,37.12479,11.736825,-1.718068,2.020878,2.845709,16.559,5,RUN
1759224941.23207,-4.253,22.416312,5.994482,-4.505498,1.559867,2.118961,16.580,5,RUN
1759224941.25127,-4.264971,19.46875,4.259584,-4.955743,0.851301,1.785872,16.599,5,RUN
1759224941.27223,-4.208857,20.326922,4.530278,-4.928047,1.116098,1.05967,16.620,5,RUN
1759224941.29216,-2.559252,16.976985,-8.973917,1.992927,-0.15595,1.672056,16.640,5,RUN
1759224941.31125,2.19668,17.169119,-24.432678,0.477317,-3.808123,0.392531,16.659,5,RUN
1759224941.33237,-2.755576,12.395081,2.502539,-0.444094,-0.604744,-0.121415,16.680,5,RUN
1759224941.35124,-3.898359,4.274697,5.940314,0.948314,2.472084,0.17142,16.699,5,RUN
1759224941.37213,-2.73358,0.111031,-3.772663,1.455885,0.941681,0.092144,16.720,5,RUN
1759224941.39222,-2.64694,-1.692252,-5.847389,0.676281,-1.755553,0.156527,16.740,5,RUN
1759224941.41129,-1.615039,-0.571017,3.228731,-0.182103,-0.151714,-0.028818,16.759,5,RUN
1759224941.43225,-2.832341,-1.760486,-2.880674,1.322398,-2.535152,-0.613359,16.780,5,RUN
1759224941.45124,-2.303222,-1.016488,0.301071,2.501487,-2.976666,-1.882064,16.799,5,RUN
1759224941.47216,-3.109469,-3.34036,0.700005,3.258246,-2.278976,-1.970594,16.820,5,RUN
1759224941.49221,-2.42383,-3.634548,-0.748487,4.39386,-1.726027,-1.515469,16.840,5,RUN
1759224941.51123,-1.814057,2.713528,1.130213,4.408877,0.141213,-1.882183,16.859,5,RUN
1759224941.53222,-6.349722,12.653805,-3.636792,4.690311,-0.190897,-3.328408,16.880,5,RUN
1759224941.55121,-14.577097,38.647203,-17.533188,2.352231,-2.614436,-5.733026,16.899,5,RUN
1759224941.57225,-19.92724,41.683649,-3.933823,3.075343,0.248786,-3.561951,16.920,5,RUN
1759224941.59208,-13.39496,32.142457,-7.662044,1.296327,0.787969,-1.143153,16.940,5,RUN
1759224941.61124,-10.103531,20.373309,-3.744831,-0.609463,1.66871,-0.649339,16.959,5,RUN
1759224941.63220,-11.038167,14.627525,-1.122731,-1.068748,2.929313,-1.520423,16.980,5,RUN
1759224941.65122,-11.887211,11.823017,0.260669,-0.903643,2.788992,-1.324317,16.999,5,RUN
1759224941.67209,-7.388656,6.025158,3.202694,-1.105179,2.658525,-0.260011,17.020,5,RUN
1759224941.69209,-1.722927,0.627281,4.382437,-0.949678,0.648537,1.282488,17.040,5,RUN
1759224941.71121,3.822343,-1.766622,4.120122,-1.21277,-1.647185,2.137221,17.059,5,RUN
1759224941.73199,6.749254,-4.436306,-0.624288,-2.037465,-1.904208,2.9169,17.079,5,RUN
1759224941.75119,7.823353,-6.954707,0.205004,-2.208177,-0.078402,3.297811,17.099,5,RUN
1759224941.77211,10.166678,-6.884677,3.191022,-0.890971,3.10094,2.106647,17.120,5,RUN
1759224941.79208,8.500613,-6.748806,-0.112228,-0.124269,6.038062,0.4496,17.140,5,RUN
1759224941.81121,0.65661,-2.962076,-7.971794,-0.843802,2.438181,-0.093668,17.159,5,RUN
1759224941.83232,-1.781286,0.629376,-5.746683,-1.473059,-0.744162,-0.221191,17.180,5,RUN
1759224941.85121,-1.977162,1.261744,-5.277269,-1.111334,-3.874026,-0.568015,17.199,5,RUN
1759224941.87220,-0.820762,1.19321,-0.682647,-1.998637,-5.563695,-0.890615,17.220,5,RUN
1759224941.89233,-1.471686,4.878784,1.080084,-2.958909,-6.598786,-1.273098,17.240,5,RUN
1759224941.91137,-2.497901,18.791041,18.442835,-1.442725,-2.293127,0.080596,17.259,5,RUN
1759224941.93214,-5.458032,36.529083,28.35857,2.13636,1.827834,2.851172,17.280,5,RUN
1759224941.95118,-4.432715,33.040133,9.161113,-0.629352,2.53152,3.744549,17.299,5,RUN
1759224941.97205,-2.037017,26.236859,5.568464,-3.574483,3.837949,2.175989,17.319,5,RUN
1759224941.99221,-4.846014,19.850925,3.916315,-4.653836,3.720199,1.488419,17.340,5,RUN
1759224942.01212,-5.53719,16.292093,2.710386,-4.590816,2.824088,0.977572,17.360,5,RUN
1759224942.03214,-4.795436,18.740913,-31.502606,0.399654,-7.667281,0.930484,17.380,5,RUN
1759224942.05116,2.69198,19.472491,-4.994005,0.270833,-2.830997,-0.162164,17.399,5,RUN
1759224942.07178,-4.311957,12.889933,1.760037,0.452139,1.645077,-0.857611,17.419,5,RUN
1759224942.09209,-4.601057,3.949535,-3.762937,0.94256,0.878659,-0.721437,17.440,5,RUN
1759224942.11205,-2.63033,-1.299453,-5.589713,1.195581,-1.285561,-0.494136,17.459,5,RUN
1759224942.13116,-0.684891,-0.961721,3.384952,0.848084,0.004763,-0.244898,17.479,5,RUN
1759224942.15119,-0.797568,-1.483657,3.311181,0.705571,1.327276,0.1282,17.499,5,RUN
1759224942.17203,-1.535282,-2.169895,0.174328,1.736502,-0.864254,0.47658,17.519,5,RUN
1759224942.19206,-3.280356,-3.495086,-2.458695,2.599244,-2.756567,0.884589,17.539,5,RUN
1759224942.21119,-1.616236,-0.439486,-0.373944,2.171151,-2.15078,-0.059898,17.559,5,RUN
1759224942.23180,-3.83611,-1.142932,-1.125873,2.820745,-2.756322,-1.745102,17.579,5,RUN
1759224942.25116,-4.982184,-1.409886,3.557035,2.846005,-0.52843,-2.523323,17.599,5,RUN
1759224942.27219,-8.532037,6.62311,3.65834,3.971527,1.181744,-2.836199,17.620,5,RUN
1759224942.29224,-15.444247,24.092702,-6.391471,4.487335,-1.214861,-4.861939,17.640,5,RUN
1759224942.31116,-12.166285,35.50197,-19.259557,1.996158,-3.444999,-5.711718,17.659,5,RUN
1759224942.33223,-12.364555,34.720862,-6.102521,0.518019,2.562856,-3.148219,17.680,5,RUN
1759224942.35114,-12.148478,35.322106,-6.646005,-1.734393,4.287521,-0.367572,17.699,5,RUN
1759224942.37204,-10.462661,26.165781,-3.27437,-1.539043,1.477972,-0.673698,17.719,5,RUN
1759224942.39223,-8.789713,13.695432,3.504962,-1.074054,2.091143,-1.692637,17.740,5,RUN
1759224942.41121,-7.157017,6.484396,6.057181,-0.877831,2.949076,-1.170318,17.759,5,RUN
1759224942.43215,-2.995745,1.152509,3.06383,-1.054928,1.031209,0.321427,17.780,5,RUN
1759224942.45110,2.326266,-1.722478,3.423559,-1.880102,-0.215179,1.486036,17.799,5,RUN
1759224942.47217,7.862259,-3.888782,-1.001225,-2.879148,-1.961393,1.288363,17.820,5,RUN
1759224942.49223,8.290223,-6.937947,0.514903,-1.852486,-0.652184,1.013231,17.840,5,RUN
1759224942.51120,7.817517,-6.669647,1.675642,-0.475652,1.816182,1.015136,17.859,5,RUN
1759224942.53227,8.113501,-6.826617,0.886154,0.19112,4.733932,0.693698,17.880,5,RUN
1759224942.55129,3.015347,-3.656096,-6.135441,0.437785,2.265539,-0.107047,17.899,5,RUN
1759224942.57220,-2.218976,-0.084096,-8.517821,0.179648,-1.154677,-0.095615,17.920,5,RUN
1759224942.59206,-2.091784,1.079037,-4.378696,0.577973,-2.738685,-0.220875,17.940,5,RUN
1759224942.61113,-1.483358,1.545008,-1.026963,-0.434619,-3.362081,-0.683957,17.959,5,RUN
1759224942.63208,-1.06108,2.647388,0.217573,-2.623998,-3.259175,-0.721393,17.980,5,RUN
1759224942.65113,-4.414459,8.557326,3.399317,-4.127197,-2.782049,0.900594,17.999,5,RUN
1759224942.67215,-8.383746,25.674371,27.070789,0.964689,0.962242,3.77572,18.020,5,RUN
1759224942.69218,-4.013729,43.852347,19.769522,-0.607187,4.532794,3.570131,18.040,5,RUN
1759224942.71112,-3.805135,29.105412,2.24636,-4.357557,1.759859,2.65883,18.059,5,RUN
1759224942.73160,-2.858228,20.831799,4.502446,-4.997644,0.108106,1.665425,18.079,5,RUN
1759224942.75109,-5.251981,19.156307,4.267365,-4.970888,-0.19785,0.772487,18.099,5,RUN
1759224942.77210,-7.98975,20.955998,-11.002404,2.870801,-4.128782,-0.416856,18.120,5,RUN
1759224942.79222,-7.959224,15.633538,-19.087922,-0.781294,-6.265429,-0.673896,18.140,5,RUN
1759224942.81112,-6.393716,12.397924,5.744887,-0.041847,0.880738,-1.764931,18.159,5,RUN
1759224942.83210,-7.337929,3.604171,-5.26455,-0.118726,1.121998,-1.463804,18.180,5,RUN
1759224942.85107,-5.817012,-3.569306,-8.064719,0.982465,-0.420358,0.83912,18.199,5,RUN
1759224942.87213,-1.107169,-3.574543,-7.432201,1.641234,-2.252318,1.350592,18.220,5,RUN
1759224942.89219,-1.985392,-0.737863,6.704214,0.993773,0.534802,0.982499,18.240,5,RUN
1759224942.91130,-1.291373,-2.102408,3.502567,0.60287,2.424054,1.182992,18.259,5,RUN
1759224942.93206,-0.444723,-1.857003,2.869451,-0.401416,4.35596,1.441758,18.280,5,RUN
1759224942.95108,-2.454955,-3.145831,-12.859706,1.596019,-2.573734,1.16723,18.299,5,RUN
1759224942.97210,-1.096544,0.661997,1.67624,1.725615,-2.718804,-0.095031,18.320,5,RUN
1759224942.99197,-2.874089,6.366182,1.84967,2.716289,-1.63897,-2.507378,18.339,5,RUN
1759224943.01109,-8.14657,16.523732,5.349694,5.075583,1.200634,-4.188036,18.359,5,RUN
1759224943.03205,-12.407052,23.100305,-2.536657,5.915224,0.745547,-3.950238,18.379,5,RUN
1759224943.05103,-17.039234,40.941597,-19.10558,3.131038,-6.038832,-2.407203,18.398,5,RUN
1759224943.07198,-12.414833,44.660241,-5.627122,2.359765,-1.033609,-0.124698,18.419,5,RUN
1759224943.09196,-5.836615,25.049335,-6.291663,0.067004,2.784755,0.019321,18.439,5,RUN
1759224943.11106,-5.097405,16.113875,-3.910779,-1.078091,4.042032,-1.81093,18.458,5,RUN
1759224943.13189,-6.7099,12.33777,-0.415394,-1.216025,3.324095,-2.870678,18.479,5,RUN
1759224943.15103,-6.17719,6.694487,5.615301,-0.626206,2.254605,-2.133414,18.498,5,RUN
1759224943.17195,-2.986168,0.286706,9.169792,0.131081,1.565798,-0.328384,18.519,5,RUN
1759224943.19197,2.443432,-2.722955,9.329456,0.112222,1.100164,0.666184,18.539,5,RUN
1759224943.21107,6.563255,-4.056227,5.422567,-0.245762,-0.996907,0.59082,18.559,5,RUN
1759224943.23167,11.643302,-9.378238,-2.44852,-0.805931,-2.044671,0.077932,18.579,5,RUN
1759224943.25101,14.766987,-13.672388,-1.220744,-1.016622,1.904415,-0.071542,18.598,5,RUN
1759224943.27194,4.611532,-8.630498,-7.288698,-1.074036,3.622075,-0.167282,18.619,5,RUN
1759224943.29195,-2.106449,-2.480243,-9.044097,-1.569378,-0.259401,0.189422,18.639,5,RUN
1759224943.31107,-2.080412,-0.537798,-0.766145,-2.214366,-2.660151,0.746973,18.659,5,RUN
1759224943.33198,-1.617433,0.437391,1.151012,-2.631281,-3.637827,0.945426,18.679,5,RUN
1759224943.35100,-0.847847,3.509151,3.157952,-2.267346,-4.241733,0.709489,18.698,5,RUN
1759224943.37200,-5.510554,24.96883,15.005659,-1.036449,-3.708215,2.50912,18.719,5,RUN
1759224943.39195,-5.467159,45.112296,31.683368,1.693382,1.380035,4.559503,18.739,5,RUN
1759224943.41103,-2.26282,28.299164,7.101052,-1.411751,1.947063,3.100707,18.758,5,RUN
1759224943.43206,-2.679561,18.096274,4.495712,-4.233467,2.420169,1.545947,18.780,5,RUN
1759224943.45103,-6.884377,20.697724,5.654655,-4.80716,2.736816,1.993276,18.798,5,RUN
1759224943.47191,-5.250335,21.569512,6.196194,-4.713488,3.409741,1.275768,18.819,5,RUN
1759224943.49196,-2.498798,18.531121,-16.810737,0.576958,-2.89648,1.509564,18.839,5,RUN
1759224943.51105,3.426103,17.351228,-20.197186,-0.97404,-5.016306,-0.281724,18.858,5,RUN
1759224943.53195,-1.080982,10.462661,2.961927,0.161551,1.190313,-0.415624,18.879,5,RUN
1759224943.55099,-3.751265,4.125359,-4.260482,1.104715,1.903484,0.243613,18.898,5,RUN
1759224943.57190,-3.282151,2.076072,-4.926369,1.175657,0.604676,0.16004,18.919,5,RUN
1759224943.59195,-1.520168,-0.279972,3.167828,0.698277,1.536626,0.101646,18.939,5,RUN
1759224943.61104,-1.461062,-1.417517,3.678092,0.624073,2.364943,0.318419,18.958,5,RUN
1759224943.63204,-1.502362,-1.92838,-1.506701,0.609305,-0.504684,0.552026,18.979,5,RUN
1759224943.65098,-2.079215,-2.583044,-7.302016,1.729527,-6.426445,0.369826,18.998,5,RUN
1759224943.67165,-0.064494,-0.809839,2.409914,2.184778,-5.785769,-0.231611,19.019,5,RUN
1759224943.69194,-0.151733,-1.251419,0.788889,3.743185,-5.615347,-0.865829,19.039,5,RUN
1759224943.71193,-0.187646,-0.03307,2.587085,3.881616,-3.36689,-1.847809,19.059,5,RUN
1759224943.73196,-0.883011,5.493196,3.279907,3.402077,-0.005384,-3.705438,19.079,5,RUN
1759224943.75096,-7.573458,23.656358,1.39986,4.578451,3.255237,-7.201094,19.098,5,RUN
1759224943.77158,-18.19698,40.754101,-24.698135,1.328036,0.680552,-7.376478,19.119,5,RUN
1759224943.79147,-17.475727,30.187441,-6.211607,1.671269,0.40673,-3.946253,19.139,5,RUN
1759224943.81107,-13.049297,27.089943,-5.724536,0.040428,0.46478,-0.42966,19.159,5,RUN
1759224943.83194,-11.058219,25.854984,-4.862624,-1.574578,1.767488,-0.469048,19.179,5,RUN
1759224943.85096,-10.154109,15.461455,-0.569221,-1.888108,2.638801,-1.358144,19.198,5,RUN
1759224943.87188,-9.31928,10.861445,2.711134,-2.080979,2.315087,-1.052961,19.219,5,RUN
1759224943.89192,-4.789301,3.801094,5.100398,-2.087632,1.688705,0.151778,19.239,5,RUN
1759224943.91102,-0.021398,-0.981473,5.472846,-1.832672,-0.074721,1.450717,19.258,5,RUN
1759224943.93197,3.605817,-2.617162,5.743391,-1.669534,-1.088654,2.208262,19.279,5,RUN
1759224943.95095,4.119972,-3.704877,3.121141,-1.160646,-0.263137,2.868468,19.298,5,RUN
1759224943.97140,7.322965,-5.28939,0.352995,-0.390451,2.414812,2.803526,19.319,5,RUN
1759224943.99198,12.157756,-4.442292,-0.876278,0.069361,4.804554,0.725419,19.339,5,RUN
1759224944.01103,10.538528,-4.700566,-3.95986,0.200811,5.114493,-1.076805,19.358,5,RUN
1759224944.03188,0.775871,-0.686388,-11.787253,-0.535236,1.952635,-1.187981,19.379,5,RUN
1759224944.05096,-2.216881,2.67971,-12.799402,0.221984,-1.205859,-1.320958,19.398,5,RUN
1759224944.07106,-1.648707,1.834557,-3.435081,0.948962,-3.354609,-1.53931,19.418,5,RUN
1759224944.09194,-0.206051,0.539593,2.331803,-0.976065,-3.714986,-1.185076,19.439,5,RUN
1759224944.11101,0.640599,4.815338,5.977573,-3.584196,-3.157634,-0.505322,19.458,5,RUN
1759224944.13200,-4.562151,10.489446,14.840758,-3.080488,-3.987704,1.526071,19.479,5,RUN
1759224944.15097,-7.786842,32.76869,28.026674,1.785989,-0.771131,4.493032,19.498,5,RUN
1759224944.17188,0.053421,43.01318,17.69345,-1.159858,4.740966,2.253953,19.519,5,RUN
1759224944.19196,-6.338649,30.086137,2.766799,-4.118928,3.852796,0.72092,19.539,5,RUN
1759224944.21100,-9.991452,22.704813,-2.737021,-6.267001,-2.807982,-0.067313,19.558,5,RUN
1759224944.23200,-10.232219,15.436466,-18.828151,-0.356478,-9.102459,-1.088437,19.579,5,RUN
1759224944.25089,-7.6387,15.018528,0.556652,2.42794,-2.888731,-2.464559,19.598,5,RUN
1759224944.27187,-8.625261,6.287922,-7.192032,-0.940186,1.258074,-1.447391,19.619,5,RUN
1759224944.29200,-9.376143,1.681777,-2.978686,-0.47486,2.794957,0.576818,19.639,5,RUN
1759224944.31099,-4.053832,-0.080056,-5.066131,-0.051136,1.421476,1.418003,19.658,5,RUN
1759224944.33196,-1.13545,-0.766893,-1.445499,-0.033611,0.976984,1.531045,19.679,5,RUN
1759224944.35088,-0.436343,-1.893514,3.233369,-0.300097,2.171811,1.488775,19.698,5,RUN
1759224944.37184,-0.658256,-2.547131,1.844283,-0.227521,1.52724,1.610413,19.719,5,RUN
1759224944.39195,-1.524059,-3.408146,-5.558289,1.728127,-2.957327,1.248803,19.739,5,RUN
1759224944.41099,-0.741754,-1.685219,0.625784,2.923286,-3.416543,0.576743,19.758,5,RUN
1759224944.43198,-0.371401,-1.178396,0.479439,4.05163,-2.319765,-0.21616,19.779,5,RUN
1759224944.45087,0.26022,1.445499,1.894562,4.11074,0.222918,-1.288218,19.798,5,RUN
1759224944.47183,-1.553388,8.702923,0.574758,3.767159,2.556853,-3.211544,19.819,5,RUN
1759224944.49195,-11.714679,36.545543,-10.964845,2.550784,1.515514,-5.709704,19.839,5,RUN
1759224944.51095,-15.589844,36.165912,-8.100632,2.202099,0.639529,-2.972096,19.858,5,RUN
1759224944.53193,-9.692327,27.542746,-2.05647,2.964002,-1.092232,-0.476858,19.879,5,RUN
1759224944.55085,-5.990442,25.640104,-3.087473,1.360454,-1.075875,-0.346615,19.898,5,RUN
1759224944.57150,-8.624064,20.738575,-3.147178,-0.115236,1.19043,-1.831386,19.919,5,RUN
1759224944.59191,-11.362283,14.214525,-5.381417,-0.928735,1.429793,-2.231883,19.939,5,RUN
1759224944.61186,-10.316316,9.336339,-0.617554,-1.41534,2.311756,-1.527336,19.959,5,RUN
1759224944.63197,-7.914483,4.779275,1.142184,-1.626254,1.726418,-0.228603,19.979,5,RUN
1759224944.65084,-2.714426,0.881814,2.996643,-1.636823,0.748589,1.128351,19.998,5,RUN
1759224944.67185,2.013224,-1.566107,3.243395,-2.073379,-0.484699,1.548886,20.019,5,RUN
1759224944.69200,5.204695,-3.074454,1.999009,-2.095264,-1.716984,1.266788,20.039,5,RUN
1759224944.71101,9.409213,-6.954557,3.363704,-0.710339,-0.367214,0.853958,20.058,5,RUN
1759224944.73185,11.698219,-7.356634,2.072481,0.027651,3.140723,0.456167,20.079,5,RUN
1759224944.75088,11.658565,-4.944326,-3.293673,-0.446277,3.015182,-0.828203,20.098,5,RUN
1759224944.77201,-0.865205,-1.203835,-8.085967,-0.486409,0.860837,-0.612088,20.119,5,RUN
1759224944.79195,-3.900454,0.331747,-5.16145,0.06639,-0.338838,-0.127743,20.139,5,RUN
1759224944.81097,-3.717746,0.579098,-3.883545,-0.414204,-2.779593,0.144204,20.158,5,RUN
1759224944.83191,-1.077091,2.450316,0.546327,-1.431173,-3.637146,-0.031771,20.179,5,RUN
1759224944.85085,-3.439869,14.898818,3.060837,-4.194349,-2.628116,1.632948,20.198,5,RUN
1759224944.87185,-7.254431,34.475307,22.6484,-0.579058,0.132958,4.626315,20.219,5,RUN
1759224944.89190,-1.007959,36.656574,21.180305,-0.572407,4.486483,3.408586,20.239,5,RUN
1759224944.91115,-3.426851,29.269115,5.079748,-3.786482,3.229723,1.50871,20.259,5,RUN
1759224944.93188,-4.546888,18.859575,2.006191,-4.179093,0.14964,1.409682,20.279,5,RUN
1759224944.95084,-3.23741,17.045219,3.723881,-4.151637,-0.684097,1.090255,20.298,5,RUN
1759224944.97180,-2.230199,15.072996,-22.356307,0.440765,-5.026031,1.327204,20.319,5,RUN
1759224944.99186,1.570596,15.405939,-14.595502,-0.324678,-5.528463,-0.026032,20.339,5,RUN
1759224945.01095,-3.21242,12.936919,6.853402,0.249349,-0.768842,-0.779073,20.358,5,RUN
1759224945.03182,-3.464111,3.74498,1.84982,0.654653,1.611142,-0.36644,20.379,5,RUN
1759224945.05083,-2.606986,-1.159243,-4.884321,0.737548,0.431876,-0.169068,20.398,5,RUN
1759224945.07179,-1.916558,-1.154753,1.463905,0.705754,-0.825296,0.055865,20.419,5,RUN
1759224945.09180,-2.686743,-1.607856,3.469497,0.421597,0.76693,0.202185,20.439,5,RUN
1759224945.11093,-3.193117,-2.160767,3.356072,0.266562,1.355365,0.390279,20.458,5,RUN
1759224945.13189,-5.863998,-3.309834,-9.715221,2.028793,-3.495869,-0.109006,20.479,5,RUN
1759224945.15081,-6.592883,-2.599654,2.056769,2.104943,-2.747029,-0.667911,20.498,5,RUN
1759224945.17180,-5.922956,4.823718,3.507954,3.641172,0.15995,-2.364975,20.519,5,RUN
1759224945.19187,-6.580164,8.3203,1.734898,5.598104,0.572058,-3.202046,20.539,5,RUN
1759224945.21088,-8.66701,18.437747,-4.181623,5.671741,-0.478665,-3.834232,20.558,5,RUN
1759224945.23134,-8.465897,32.90501,-16.151434,2.093027,-1.508347,-4.223523,20.579,5,RUN
1759224945.25119,-11.008839,36.409822,-2.541894,1.739446,2.487946,-1.858628,20.599,5,RUN
1759224945.27178,-6.465242,29.83699,-4.861426,0.183179,2.377351,0.364609,20.619,5,RUN
1759224945.29174,-4.811896,19.075054,-3.539678,-0.088435,1.78408,-0.484991,20.639,5,RUN
1759224945.31111,-4.831499,15.188217,-2.68809,-0.050161,1.575283,-1.279831,20.659,5,RUN
1759224945.33179,-5.699247,9.789891,2.618658,-0.651738,1.969119,-2.42391,20.679,5,RUN
1759224945.35179,-5.464017,3.073856,4.786159,-0.397062,1.291473,-0.897173,20.699,5,RUN
1759224945.37184,-2.145205,-1.744475,5.123592,-0.255534,0.194713,0.979632,20.719,5,RUN
1759224945.39180,2.824709,-3.145233,6.176142,-0.175427,-0.742803,1.946065,20.739,5,RUN
1759224945.41098,4.325425,-3.122638,6.240936,-0.414384,-1.219207,2.025718,20.758,5,RUN
1759224945.43184,6.195296,-5.506514,-3.381511,-0.987911,-0.782054,1.974134,20.779,5,RUN
1759224945.45182,7.461978,-7.105991,-0.778116,-0.538455,5.194399,1.228911,20.799,5,RUN
1759224945.47185,4.560655,-5.563825,-6.104616,-0.500603,4.406693,0.026486,20.819,5,RUN
1759224945.49184,-1.439214,-2.788197,-7.441179,-0.855406,-0.568862,-0.466465,20.839,5,RUN
1759224945.51092,-2.066346,-0.946607,-4.527136,-0.990483,-2.269256,-0.644835,20.858,5,RUN
1759224945.53200,-1.31711,1.004966,0.157119,-0.418786,-4.088865,-1.062416,20.879,5,RUN
1759224945.55178,-1.371279,5.417629,-1.49877,-0.157753,-5.33179,-1.530302,20.899,5,RUN
1759224945.57182,-2.170793,14.168586,4.389769,-2.785697,-3.910189,0.478955,20.919,5,RUN
1759224945.59178,-6.652289,36.574872,27.653927,-0.374323,2.409227,4.096711,20.939,5,RUN
1759224945.61095,-1.943044,41.587881,34.442237,-0.479686,5.107173,4.209029,20.958,5,RUN
1759224945.63178,-3.21661,25.286361,4.974852,-4.54412,4.354594,2.2535,20.979,5,RUN
1759224945.65177,-3.864391,18.411411,2.359785,-4.705854,2.19009,1.664943,20.999,5,RUN
1759224945.67191,-3.750068,18.311752,-1.653047,-0.846489,-1.979711,1.184273,21.019,5,RUN
1759224945.69186,-2.820818,20.005799,-27.8507,-1.031136,-7.299235,0.210816,21.039,5,RUN
1759224945.71088,-1.204732,17.822288,-10.412383,-1.684549,-4.870917,-0.36996,21.058,5,RUN
1759224945.73199,-5.696105,8.585607,-0.167744,-0.224233,2.790781,0.124684,21.079,5,RUN
1759224945.75185,-4.636072,4.592528,-5.042488,-0.248416,1.893193,0.000912,21.099,5,RUN
1759224945.77184,-3.236811,-0.130185,-5.334281,0.408374,0.005954,-0.12516,21.119,5,RUN
1759224945.79177,-1.862839,-1.598279,2.654721,0.901617,-0.616474,0.02163,21.139,5,RUN
1759224945.81177,-1.151012,-1.645265,1.96115,1.068355,-0.701954,0.284171,21.159,5,RUN
1759224945.83178,-0.368258,-0.826897,0.584335,0.889698,-0.434125,0.393446,21.179,5,RUN
1759224945.85183,-0.931494,-1.308431,-4.919785,1.870319,-3.425893,0.352971,21.199,5,RUN
1759224945.87174,-0.965611,-1.826327,-5.119701,3.118818,-5.442645,-0.117514,21.219,5,RUN
1759224945.89176,-3.118148,-0.621894,2.659659,3.124351,-2.155851,-1.152704,21.239,5,RUN
1759224945.91088,-3.167379,1.880645,5.585224,3.160588,1.759178,-2.981381,21.258,5,RUN
1759224945.93173,-9.227702,20.200179,-0.101903,4.616229,3.8898,-5.679682,21.279,5,RUN
1759224945.95176,-11.242722,33.985393,-15.919645,1.772808,2.983538,-6.551105,21.299,5,RUN
1759224945.97079,-11.78456,28.194418,-4.310012,1.504981,2.819151,-4.426178,21.318,5,RUN
1759224945.99175,-11.126454,30.589368,-1.765724,1.986356,1.067991,-1.38701,21.339,5,RUN
1759224946.01086,-10.068665,35.914671,-5.422268,1.373348,-0.307243,0.613459,21.358,5,RUN
1759224946.03176,-3.878756,21.267095,-3.422212,0.081387,1.28788,-1.270369,21.379,5,RUN
1759224946.05182,-5.280412,10.998663,-1.799392,-0.405508,3.043789,-3.227655,21.399,5,RUN
1759224946.07172,-6.89545,5.254973,0.257377,-1.009311,3.204375,-2.375032,21.419,5,RUN
1759224946.09175,-5.230433,-2.392107,2.057068,-1.311201,2.027942,-0.324962,21.439,5,RUN
1759224946.11086,-0.215927,-4.813842,2.062904,-2.105306,0.58826,1.179742,21.458,5,RUN
1759224946.13176,3.600281,-4.621258,3.496732,-2.670896,-1.12746,1.524505,21.479,5,RUN
1759224946.15181,4.954202,-5.305551,-0.16535,-2.567571,-3.534829,1.665913,21.499,5,RUN
1759224946.17176,6.783671,-7.446117,-0.775721,-0.487199,-1.24769,1.967135,21.519,5,RUN
1759224946.19182,6.343138,-5.764639,-1.640028,-0.198589,1.59732,1.585605,21.539,5,RUN
1759224946.21086,5.563526,-2.931251,-1.959654,-0.237444,1.708343,0.329484,21.558,5,RUN
1759224946.23176,-0.465971,0.599149,-3.603273,0.024589,1.689948,-0.182775,21.579,5,RUN
1759224946.25181,-2.245163,1.305738,-4.75683,0.920104,0.447213,-0.484908,21.599,5,RUN
1759224946.27174,-1.521066,1.4247,-2.656965,0.076576,-2.127443,-0.626762,21.619,5,RUN
1759224946.29173,-0.426318,3.405303,-1.996914,-2.940518,-4.519449,-0.838914,21.639,5,RUN
1759224946.31085,-2.021604,8.992023,9.594464,-5.034274,-4.588309,0.397821,21.658,5,RUN
1759224946.33178,-9.056217,33.264589,38.387881,0.406432,0.497374,4.132686,21.679,5,RUN
1759224946.35181,-2.272097,45.328073,22.456714,-1.077597,5.795426,3.570415,21.699,5,RUN
1759224946.37184,-3.296965,33.005267,2.901623,-4.986537,4.59036,1.752645,21.719,5,RUN
1759224946.39180,-3.950882,18.82471,0.509067,-5.682106,1.70203,0.995509,21.739,5,RUN
1759224946.41091,-3.277512,13.624055,-30.032866,-1.782693,-8.903598,0.671895,21.758,5,RUN
1759224946.43194,3.614197,17.767371,-14.558093,0.161425,-6.937435,-0.58781,21.779,5,RUN
1759224946.45178,-0.725593,15.08766,1.644966,0.198934,-0.209796,-1.23722,21.799,5,RUN
1759224946.47184,-6.135291,8.312219,-0.536301,0.577617,1.050745,-0.863292,21.819,5,RUN
1759224946.49175,-5.018995,2.542792,-5.82629,1.026459,-0.57583,-0.454792,21.839,5,RUN
1759224946.51085,-2.501641,0.139612,0.656011,1.152004,-0.305125,-0.581019,21.858,5,RUN
1759224946.53179,-1.440262,-1.033248,3.14224,1.128434,0.367857,-0.470385,21.879,5,RUN
1759224946.55172,-0.976385,-1.794155,3.08448,0.651198,1.595876,-0.023913,21.899,5,RUN
1759224946.57172,-2.24636,-2.475305,-6.167613,1.55583,-2.758548,0.415016,21.919,5,RUN
1759224946.59179,-3.164985,-3.218555,-2.414852,2.195911,-4.95094,0.617353,21.939,5,RUN
1759224946.61083,-1.802535,-0.525827,2.170942,2.545977,-3.634296,-0.645668,21.958,5,RUN
1759224946.63193,-2.841768,0.676961,4.061015,2.848981,-0.808594,-2.617621,21.979,5,RUN
1759224946.65179,-7.232734,8.843582,3.074155,4.954829,1.024455,-3.86258,21.999,5,RUN
1759224946.67188,-12.77965,19.719543,-2.169296,4.922273,1.576938,-4.598285,22.019,5,RUN
1759224946.69178,-13.334656,36.260184,-17.563115,1.858197,-0.083903,-4.515737,22.039,5,RUN
1759224946.71090,-13.776236,32.733675,-5.09546,1.426852,0.813324,-2.60055,22.058,5,RUN
1759224946.73176,-12.419921,33.577032,-4.413112,0.183067,1.282844,-0.584455,22.079,5,RUN
1759224946.75170,-9.890297,25.418192,-4.646098,-0.283704,1.32436,-0.714146,22.099,5,RUN
1759224946.77189,-7.300968,13.571083,-1.038036,-0.841319,2.553524,-1.439772,22.119,5,RUN
1759224946.79177,-6.258294,9.167847,1.1769,-1.106332,2.911713,-1.079718,22.139,5,RUN
1759224946.81082,-3.78643,3.873968,3.338864,-1.094609,2.69451,-0.076496,22.158,5,RUN
1759224946.83177,0.701651,-1.226131,3.91033,-0.890656,0.709865,0.645196,22.179,5,RUN
1759224946.85177,4.454412,-3.920954,0.406416,-1.73459,-2.106851,0.896257,22.199,5,RUN
1759224946.87174,6.975357,-6.586598,-1.317858,-2.363402,-3.765594,1.175331,22.219,5,RUN
1759224946.89182,8.96,-8.475175,2.099565,-0.246242,-1.157716,1.492332,22.239,5,RUN
1759224946.91085,11.695226,-9.002348,-1.875707,0.417326,2.323857,0.449617,22.258,5,RUN
1759224946.93191,2.374749,-5.205144,-6.426037,-0.215408,2.328508,-0.14095,22.279,5,RUN
1759224946.95176,-2.298434,-0.440982,-4.774936,-0.571756,-0.7631,0.127655,22.299,5,RUN
1759224946.97189,-2.378041,0.392799,-0.254234,-0.996221,-2.272356,0.564487,22.319,5,RUN
1759224946.99175,-1.537676,0.80535,0.39654,-1.854518,-3.235304,0.33816,22.339,5,RUN
1759224947.01082,-2.321777,2.677166,1.012298,-2.730617,-4.397708,0.218678,22.358,5,RUN
1759224947.03190,-8.184728,16.26456,13.375806,-1.828575,-2.889596,2.070879,22.379,5,RUN
1759224947.05173,-10.282498,45.530683,34.670434,1.60296,2.840663,3.95657,22.399,5,RUN
1759224947.07180,-5.292083,35.576041,7.137714,-1.873888,3.515362,2.789842,22.419,5,RUN
1759224947.09164,-3.929035,21.193772,2.442385,-3.957231,2.304565,1.743899,22.439,5,RUN
1759224947.11084,-4.782717,19.43179,2.523489,-4.50345,0.75949,1.192139,22.458,5,RUN
1759224947.13130,-5.480178,19.106029,3.183241,-4.254441,-0.122933,0.707791,22.479,5,RUN
1759224947.15166,-1.710507,17.085921,-20.822372,-0.01063,-1.933214,1.594944,22.499,5,RUN
1759224947.17083,2.372654,16.453103,-13.707403,-0.647174,-2.886125,0.55831,22.518,5,RUN
1759224947.19167,-3.346346,8.6507,3.589806,0.193788,0.681596,0.629369,22.539,5,RUN
1759224947.21079,-3.21661,2.065448,-4.419397,1.283847,0.29344,1.077957,22.558,5,RUN
1759224947.23169,-1.702726,-0.827945,-3.667767,1.347723,-0.211993,0.85584,22.579,5,RUN
1759224947.25169,-1.071555,-0.220865,2.02729,1.210219,0.014288,0.370768,22.599,5,RUN
1759224947.27169,-0.503231,-0.322469,1.87047,0.858152,0.941864,0.094645,22.619,5,RUN
1759224947.29169,-0.64404,-1.162385,3.273771,0.161383,2.623436,0.164689,22.639,5,RUN
1759224947.31079,-3.061286,-3.011008,-9.365369,3.391713,-3.827686,-0.110941,22.658,5,RUN
1759224947.33170,-0.80939,-0.202759,2.059762,3.222635,-3.268009,-0.93468,22.679,5,RUN
1759224947.35174,-2.023699,-1.155053,-0.643741,4.013887,-3.812722,-1.730903,22.699,5,RUN
1759224947.37173,-1.190666,3.086425,2.038812,3.800918,-2.322513,-3.274907,22.719,5,RUN
1759224947.39167,-5.856217,10.623821,3.148824,4.455623,-0.453981,-4.975804,22.739,5,RUN
1759224947.41090,-16.020351,26.136452,1.94065,5.851892,0.745261,-6.327998,22.758,5,RUN
1759224947.43179,-22.529138,35.589209,-21.359571,2.90065,-4.922118,-4.30496,22.779,5,RUN
1759224947.45165,-15.617377,33.415573,-10.83496,0.298818,-2.249216,-1.049276,22.799,5,RUN
1759224947.47178,-11.242872,25.49735,-3.731812,-1.76953,2.849135,-0.08272,22.819,5,RUN
1759224947.49174,-8.50585,16.580744,-2.678663,-2.580112,4.686229,-1.638513,22.839,5,RUN
1759224947.51077,-9.404574,11.682357,0.818817,-2.761497,3.868495,-2.251743,22.858,5,RUN
1759224947.53169,-7.241861,4.318392,5.947646,-2.455528,2.497075,-0.948662,22.879,5,RUN
1759224947.55172,-1.900248,0.015413,6.163723,-1.530721,0.084195,0.605995,22.899,5,RUN
1759224947.57170,2.591723,-1.512088,5.616199,-0.929431,-1.643965,1.175101,22.919,5,RUN
1759224947.59178,5.082441,-2.98123,1.168221,-1.841179,-2.439969,1.537608,22.939,5,RUN
1759224947.61079,8.411878,-5.313033,1.407192,-0.352852,1.590752,1.963688,22.958,5,RUN
1759224947.63170,9.879823,-4.28188,-3.186383,-0.644652,5.262668,1.090413,22.979,5,RUN
1759224947.65167,8.499865,-3.386449,-6.550236,-1.304177,5.909704,-0.346985,22.999,5,RUN
1759224947.67166,2.212093,-1.828123,-10.619332,-1.862384,0.645467,-1.008634,23.019,5,RUN
1759224947.69166,-0.786645,0.973093,-4.349217,-0.955146,-2.535376,-1.024563,23.039,5,RUN
1759224947.71095,-0.979977,0.407912,-1.281048,-0.317206,-4.204964,-0.968357,23.058,5,RUN
1759224947.73165,0.543933,0.478541,1.072303,-0.325677,-4.965679,-0.858949,23.079,5,RUN
1759224947.75164,-0.100856,5.798457,8.537873,-1.804644,-4.908353,0.363195,23.099,5,RUN
1759224947.77162,-7.603087,22.04132,23.579445,0.296303,-2.182825,3.211638,23.119,5,RUN
1759224947.79165,-5.363461,49.908331,34.29245,0.479071,7.604355,2.397845,23.139,5,RUN
1759224947.81075,-11.890354,38.376359,2.277185,-2.97264,4.535476,1.010096,23.158,5,RUN
1759224947.83166,-11.449222,18.161666,-8.492084,-5.920542,-4.456101,1.128697,23.179,5,RUN
1759224947.85164,-6.383091,11.126454,-9.41011,-2.092345,-8.225141,0.201869,23.199,5,RUN
1759224947.87163,-7.269844,15.48839,-0.380678,1.931346,-3.178323,-1.590284,23.219,5,RUN
1759224947.89121,-9.977686,13.051093,-7.243956,-0.470924,0.224103,-1.243319,23.239,5,RUN
1759224947.91075,-9.135226,6.977901,-5.849334,-0.74092,2.790313,-0.136135,23.258,5,RUN
1759224947.93162,-9.317185,3.508852,-3.662829,-0.363767,2.12279,0.726065,23.279,5,RUN
1759224947.95170,-4.609287,-1.405097,-2.150741,0.22072,1.437087,1.217829,23.299,5,RUN
1759224947.97161,-1.837999,-3.21646,1.495329,0.242187,1.658964,1.428902,23.319,5,RUN
1759224947.99120,-1.521665,-3.234267,4.317643,-0.484419,3.50898,1.646803,23.339,5,RUN
1759224948.01073,-1.844134,-3.204789,-1.052102,-0.239052,1.043422,1.808003,23.358,5,RUN
1759224948.03163,-1.578677,-2.694824,-5.127931,1.617066,-3.433473,1.374997,23.379,5,RUN
1759224948.05162,-0.077512,-0.973542,0.439037,2.581788,-3.554404,0.712431,23.399,5,RUN
1759224948.07159,0.41285,-0.14021,1.99856,3.648169,-2.040439,-0.077251,23.419,5,RUN
1759224948.09166,0.714071,3.433734,2.645443,4.195109,0.430294,-1.203922,23.439,5,RUN
1759224948.11098,-4.470423,19.528306,-2.07682,4.442225,1.898004,-3.749213,23.458,5,RUN
1759224948.13160,-14.182652,51.263598,-17.551743,2.027336,-0.577675,-5.367208,23.479,5,RUN
1759224948.15167,-13.986328,35.273324,-4.636521,2.054643,-1.477419,-2.512625,23.499,5,RUN
1759224948.17104,-8.114997,22.987778,-0.118513,1.681216,-0.028153,-0.03409,23.518,5,RUN
1759224948.19160,-7.352444,16.076166,-1.248576,-0.108707,2.683482,-0.550324,23.539,5,RUN
1759224948.21072,-9.78181,14.52218,-4.746355,-1.236315,2.71751,-1.527361,23.558,5,RUN
1759224948.23174,-9.456797,11.165958,-2.260575,-1.379361,1.326015,-1.316656,23.579,5,RUN
1759224948.25160,-6.646154,6.394613,4.024054,-1.08288,2.123381,-0.569003,23.599,5,RUN
1759224948.27175,-1.714099,1.060033,3.809773,-0.854856,1.913802,0.722622,23.619,5,RUN
1759224948.29174,1.728763,-2.208352,4.90557,-0.546023,0.707577,1.845805,23.639,5,RUN
1759224948.31079,3.754557,-3.182044,2.524237,-0.76043,-0.919882,2.427604,23.658,5,RUN
1759224948.33182,5.916671,-4.408025,-0.727089,-1.082548,-2.305153,2.484579,23.679,5,RUN
1759224948.35168,6.402694,-6.23091,0.294487,-0.239145,-0.331267,2.388834,23.699,5,RUN
1759224948.37181,8.364293,-5.327248,0.303764,0.176906,4.458927,1.011732,23.719,5,RUN
1759224948.39179,2.499995,-2.379238,-5.688174,-0.353636,4.680953,0.026118,23.739,5,RUN
1759224948.41073,-1.012149,1.352724,-5.163545,-0.869671,1.565045,-0.226743,23.758,5,RUN
1759224948.43173,-2.020257,1.822137,-3.269282,-1.446194,-2.103813,-0.727324,23.779,5,RUN
1759224948.45167,-1.519869,1.26354,-0.298826,-1.953468,-4.091188,-1.090049,23.799,5,RUN
1759224948.47177,-0.595258,3.65026,-0.346261,-2.247417,-5.922866,-1.628369,23.819,5,RUN
1759224948.49171,-1.921347,15.62052,9.242217,-3.643427,-4.369308,-0.19374,23.839,5,RUN
1759224948.51076,-4.078373,39.417089,29.302036,0.439673,-1.571201,3.778629,23.858,5,RUN
1759224948.53170,-1.083526,39.612815,17.93287,-0.286376,1.356988,4.70411,23.879,5,RUN
1759224948.55164,2.01098,25.696817,7.194875,-2.575124,2.912472,2.705295,23.899,5,RUN
1759224948.57167,0.715268,18.153286,2.009932,-4.081356,2.504377,1.045068,23.919,5,RUN
1759224948.59171,-3.245191,17.001974,-3.653252,0.896845,-1.165132,-0.068047,23.939,5,RUN
1759224948.61089,-6.985233,18.934693,-30.51425,-0.903371,-8.849958,-0.818386,23.958,5,RUN
1759224948.63170,-2.338387,14.11726,1.618929,-1.036026,-3.664689,-1.428711,23.979,5,RUN
1759224948.65160,-5.164143,7.868544,5.261707,0.579037,1.71287,-0.829345,23.999,5,RUN
1759224948.67175,-5.321412,3.374478,-7.890391,0.655113,0.232688,-0.245359,24.019,5,RUN
1759224948.69166,-4.000262,0.661847,-7.577798,0.932522,-1.363727,-0.020443,24.039,5,RUN
1759224948.71089,-1.866131,0.641496,2.27913,0.312981,0.320745,-0.494091,24.058,5,RUN
1759224948.73170,-2.189049,-0.84665,4.507982,-0.246149,2.246823,-0.448337,24.079,5,RUN
1759224948.75158,-2.244115,-2.401235,2.922123,-0.25134,3.025923,0.03509,24.099,5,RUN
1759224948.77171,-3.949236,-4.055029,-9.895834,2.987796,-3.310248,0.157321,24.119,5,RUN
1759224948.79179,-1.993622,-1.096694,1.303942,2.557703,-2.651376,-0.333052,24.139,5,RUN
1759224948.81073,-2.970306,-1.752107,0.645537,2.785836,-2.136342,-0.950423,24.158,5,RUN
1759224948.83161,-3.725677,1.120935,1.824531,2.870606,-1.122696,-2.292849,24.179,5,RUN
1759224948.85165,-8.644864,10.410138,3.080739,4.083901,0.495385,-3.42498,24.199,5,RUN
1759224948.87174,-15.45098,25.701904,-0.588525,4.824341,1.11025,-4.768722,24.219,5,RUN
1759224948.89166,-15.462203,37.023785,-17.46196,2.035197,-2.201066,-4.468165,24.239,5,RUN
1759224948.91070,-14.013562,34.343925,-5.348048,0.577962,0.613176,-2.105923,24.258,5,RUN
1759224948.93177,-10.886884,28.952781,-2.556259,-0.772905,3.724125,-0.005092,24.279,5,RUN
1759224948.95164,-6.675633,19.205388,-3.02268,-1.093262,3.534301,-0.261521,24.299,5,RUN
1759224948.97165,-6.187964,14.29488,0.081852,-1.238317,2.878095,-1.357694,24.319,5,RUN
1759224948.99167,-4.613178,10.159944,3.772663,-1.443698,2.934847,-1.411873,24.339,5,RUN
1759224949.01074,-1.939752,3.517382,4.781221,-1.228747,1.623349,-0.122466,24.358,5,RUN
1759224949.03178,2.932747,-0.273837,4.32737,-0.916163,-0.696467,0.874803,24.379,5,RUN
1759224949.05164,6.332663,-3.309685,0.637157,-1.488902,-1.955067,1.213944,24.399,5,RUN
1759224949.07173,6.49936,-6.193949,-1.687164,-1.123368,-0.793504,1.816931,24.419,5,RUN
1759224949.09157,7.627627,-7.553257,-1.887379,-0.497445,1.946582,1.692549,24.439,5,RUN
1759224949.11125,9.164555,-6.696582,-2.98931,-0.331039,4.730359,0.464063,24.459,5,RUN
1759224949.13156,3.765032,-5.060444,-7.006332,-0.445799,1.592829,-0.222527,24.479,5,RUN
1759224949.15156,-1.985841,-0.738312,-6.139631,-0.668423,-2.046953,-0.028427,24.499,5,RUN
1759224949.17153,-1.578228,-0.0621,-1.281048,-0.6061,-3.73852,0.121308,24.519,5,RUN
1759224949.19157,-1.184831,0.343867,1.211915,-0.719486,-4.216269,0.267152,24.539,5,RUN
1759224949.21066,-0.760159,2.341679,0.842909,-2.179559,-4.888014,0.520464,24.558,5,RUN
1759224949.23160,-5.094113,21.146637,17.16897,-1.730599,-1.929062,2.34142,24.579,5,RUN
1759224949.25153,-6.916849,48.212787,34.092534,0.448117,4.509932,3.353265,24.599,5,RUN
1759224949.27152,-6.854599,38.055835,6.56116,-4.068676,4.365657,1.556234,24.619,5,RUN
1759224949.29158,-7.984064,17.38774,2.967314,-5.391744,2.272308,1.281238,24.639,5,RUN
1759224949.31066,-7.408707,15.466393,2.065149,-5.184271,0.695399,1.290749,24.658,5,RUN
1759224949.33157,-4.307019,16.039206,-4.507384,-1.126265,-3.059576,1.316023,24.679,5,RUN
1759224949.35152,3.583072,19.655498,-20.864719,1.024604,-4.386135,0.255259,24.699,5,RUN
1759224949.37152,-1.004068,15.914857,-0.459687,0.06265,-0.116944,-0.699097,24.719,5,RUN
1759224949.39141,-6.459706,7.337181,0.605883,0.185875,0.526256,0.151868,24.739,5,RUN
1759224949.41065,-2.894291,2.530073,0.948253,0.471784,1.549462,0.245714,24.758,5,RUN
1759224949.43160,-1.76737,-1.462857,-0.642694,1.074708,0.616598,0.267643,24.779,5,RUN
1759224949.45155,-1.70931,-1.693299,0.837522,1.316876,-0.143948,0.496811,24.799,5,RUN
1759224949.47151,-0.614711,-0.946607,1.25112,1.031816,0.349504,0.621062,24.819,5,RUN
1759224949.49154,-1.14383,-1.269226,-2.47755,0.948944,-1.715911,0.722077,24.839,5,RUN
1759224949.51065,-1.504606,-0.958279,-5.00029,2.251333,-4.957451,0.111429,24.858,5,RUN
1759224949.53154,-2.549077,-0.410755,0.940023,2.829535,-3.840509,-1.236071,24.879,5,RUN
1759224949.55154,-3.808576,-0.40447,4.084957,3.522234,-1.292433,-2.989726,24.899,5,RUN
1759224949.57148,-6.347328,8.244284,4.033482,4.33299,1.72169,-4.578475,24.919,5,RUN
1759224949.59157,-18.100763,25.426571,-5.410596,3.992311,-0.40175,-5.37436,24.939,5,RUN
1759224949.61064,-15.124621,39.729083,-12.777555,1.705626,-0.524756,-4.061652,24.958,5,RUN
1759224949.63109,-8.149713,30.339772,-3.0761,1.844029,1.92917,-1.456347,24.979,5,RUN
1759224949.65152,-5.493795,28.072014,-4.069245,0.301609,2.028245,0.72188,24.999,5,RUN
1759224949.67150,-3.987842,20.193295,-2.417096,-0.625868,1.548027,0.833883,25.019,5,RUN
1759224949.69154,-5.135563,14.664635,1.203236,-0.854887,2.454061,-0.769655,25.039,5,RUN
1759224949.71153,-6.404639,12.196063,2.144157,-1.042327,2.235984,-2.36196,25.059,5,RUN
1759224949.73061,-6.019173,4.3564,5.919215,-0.949972,1.570152,-1.75429,25.078,5,RUN
1759224949.75151,-1.791611,-2.796876,5.992986,-0.823434,0.528045,0.197359,25.099,5,RUN
1759224949.77158,1.745373,-3.527108,4.82701,-1.031796,-0.133786,1.489231,25.119,5,RUN
1759224949.79153,2.871546,-3.340211,1.908478,-0.970442,-0.980428,2.126494,25.139,5,RUN
1759224949.81063,6.330269,-5.114164,-2.978237,-0.860355,0.221787,1.954294,25.158,5,RUN
1759224949.83159,8.720131,-6.214899,-2.095076,-0.97898,4.30326,0.691762,25.179,5,RUN
1759224949.85150,5.836016,-5.141997,-4.011186,-0.537866,3.589744,-0.814527,25.199,5,RUN
1759224949.87149,-0.296432,-1.246032,-6.572084,-0.740246,-0.04757,-1.390455,25.219,5,RUN
1759224949.89158,-1.404648,0.339977,-3.527856,-1.440001,-2.492306,-1.293993,25.239,5,RUN
1759224949.91062,-0.751929,-0.02903,-1.177498,-2.058209,-3.371616,-1.064449,25.258,5,RUN
1759224949.93163,-0.429759,2.910751,6.720524,1.904352,0.204513,-0.335422,25.279,5,RUN
1759224949.95150,-0.945261,3.655796,-2.243816,-0.247215,-2.635427,0.339905,25.299,5,RUN
1759224949.97150,-6.099977,40.748714,15.546898,-0.651616,-1.486753,3.761234,25.319,5,RUN
1759224949.99151,1.684321,54.465544,24.368933,-2.672267,3.260557,2.23248,25.339,5,RUN
1759224950.01062,-4.821324,23.538893,11.387721,-4.041948,3.421347,1.45243,25.358,5,RUN
1759224950.03158,-5.103091,14.702942,4.916493,-3.626281,2.206844,0.46836,25.379,5,RUN
1759224950.05150,-8.248324,19.053955,-13.97301,-5.770092,-9.363397,-0.767064,25.399,5,RUN
1759224950.07148,-4.549731,18.972253,-2.726846,2.881029,-8.423576,-1.44578,25.419,5,RUN
1759224950.09152,-8.924237,13.226019,-10.936414,1.338362,-1.813969,-2.159384,25.439,5,RUN
1759224950.11151,-8.78687,7.266552,1.279551,-1.157497,1.957255,-1.078268,25.459,5,RUN
1759224950.13158,-9.312098,0.521487,-6.042366,-0.731768,0.967842,0.491836,25.479,5,RUN
1759224950.15156,-4.9961,-2.835184,-2.741959,0.900811,0.583753,1.367367,25.499,5,RUN
1759224950.17127,-2.922273,-2.021305,3.233519,1.053903,1.371856,1.018499,25.519,5,RUN
1759224950.19155,-1.744176,-3.013402,4.066402,0.300352,2.808958,0.903358,25.539,5,RUN
1759224950.21150,-2.58903,-4.023905,-4.100519,-0.050047,-0.875347,1.239795,25.559,5,RUN
1759224950.23158,-1.726668,-3.035997,-5.101296,2.474175,-4.680885,0.890138,25.579,5,RUN
1759224950.25126,0.072125,-0.704943,2.712481,3.445217,-2.128054,0.224427,25.599,5,RUN
1759224950.27161,0.255282,0.192733,2.371008,4.280491,0.827742,-0.655754,25.619,5,RUN
1759224950.29176,0.374992,3.654001,0.137667,4.506789,2.28462,-1.952688,25.639,5,RUN
1759224950.31063,-5.864597,19.428797,-7.24231,3.081463,0.472323,-4.879918,25.658,5,RUN
1759224950.33171,-16.011074,40.13505,-7.312042,2.05298,-0.710684,-6.229794,25.679,5,RUN
1759224950.35152,-20.607043,35.087474,-1.930924,3.361195,-1.751019,-2.869019,25.699,5,RUN
1759224950.37150,-10.221445,27.366623,-5.43379,1.877277,-0.429988,-0.325145,25.719,5,RUN
1759224950.39175,-6.109853,20.328717,-6.321441,-0.737312,2.035573,-0.220981,25.739,5,RUN
1759224950.41064,-7.717859,15.664364,-5.743091,-1.452712,2.145048,-1.752301,25.758,5,RUN
1759224950.43160,-9.759215,11.94123,-0.4335,-1.859907,2.27545,-2.106283,25.779,5,RUN
1759224950.45156,-8.104223,5.300912,6.444892,-1.486429,2.559804,-1.023137,25.799,5,RUN
1759224950.47154,-3.013552,0.029329,5.378125,-0.903427,1.160323,0.687913,25.819,5,RUN
1759224950.49174,2.439392,-1.742081,1.723676,-1.222951,-0.444382,1.708992,25.839,5,RUN
1759224950.51062,4.479851,-3.26614,-1.191415,-1.9095,-2.178335,2.173241,25.858,5,RUN
1759224950.53174,6.654534,-4.819378,-0.524181,-1.094209,-1.583865,2.144352,25.879,5,RUN
1759224950.55148,6.578518,-5.357475,0.564134,-0.228461,2.025161,1.991061,25.899,5,RUN
1759224950.57160,9.430611,-4.698321,-2.767697,-0.568832,4.131612,0.485417,25.919,5,RUN
1759224950.59157,4.139126,-3.656544,-7.346458,-0.758462,1.158836,-0.749777,25.939,5,RUN
1759224950.61062,-1.473332,-0.032322,-4.747253,-0.939451,-1.241047,-0.611207,25.958,5,RUN
1759224950.63160,-1.079336,0.234482,-1.343895,-1.291905,-2.77281,-0.411026,25.979,5,RUN
1759224950.65154,-1.877802,2.205209,-2.20925,-2.840796,-5.553342,-0.510961,25.999,5,RUN
1759224950.67156,-2.359336,10.674398,8.404396,-3.216196,-3.171516,0.13102,26.019,5,RUN
1759224950.69166,-8.399907,28.596794,25.506178,1.723184,0.99243,2.690428,26.039,5,RUN
1759224950.71061,-5.122245,33.723677,13.959393,0.37128,3.650151,2.720789,26.058,5,RUN
1759224950.73166,-6.058228,30.400974,2.192191,-4.227189,1.748149,2.168267,26.079,5,RUN
1759224950.75154,-5.658396,20.97575,6.110152,-4.618661,0.99078,1.860307,26.099,5,RUN
1759224950.77151,-6.780529,17.307385,6.062568,-4.143684,0.994652,1.53058,26.119,5,RUN
1759224950.79174,-6.611139,15.430929,2.876035,-1.124775,-0.8647,1.338374,26.139,5,RUN
1759224950.81078,-4.115932,20.97171,-30.950294,1.253097,-7.577367,0.182141,26.158,5,RUN
1759224950.83159,-3.487304,15.477017,-0.249147,-0.151265,-1.786451,-1.136205,26.179,5,RUN
1759224950.85148,-6.616227,7.785944,4.188207,0.641483,1.677087,-1.256359,26.199,5,RUN
1759224950.87153,-4.685902,-0.602142,-8.147319,0.982249,-0.232302,-1.002049,26.219,5,RUN
1759224950.89153,-3.7369,-2.575263,-2.050334,1.224599,-0.914092,-0.620028,26.239,5,RUN
1759224950.91057,-3.930082,-3.226935,5.039794,1.259083,0.776478,-0.040548,26.258,5,RUN
1759224950.93159,-2.608782,-3.808127,1.755249,0.711948,1.575222,0.655441,26.279,5,RUN
1759224950.95153,-1.79191,-3.450942,-9.344569,0.945379,-2.828904,0.880863,26.299,5,RUN
1759224950.97152,-0.159364,-1.376965,-0.902015,2.184974,-3.198259,0.63676,26.319,5,RUN
1759224950.99152,0.142754,-0.622343,1.37068,2.92161,-1.592433,0.241446,26.339,5,RUN
1759224951.01060,0.217124,-0.378882,1.205331,3.572037,-0.327746,-0.407851,26.358,5,RUN
1759224951.03172,0.633416,2.540398,1.117943,3.442154,0.606003,-1.518965,26.379,5,RUN
1759224951.05150,-2.360234,11.030087,-0.948553,3.49171,0.940965,-3.748386,26.399,5,RUN
1759224951.07151,-12.828432,37.505917,-8.015638,2.59441,-0.298152,-6.861246,26.419,5,RUN
1759224951.09154,-20.208259,41.989209,-9.318382,2.009515,-2.374166,-5.352353,26.439,5,RUN
1759224951.11146,-18.134132,33.133656,-5.060893,1.924358,-1.405116,-1.340845,26.459,5,RUN
1759224951.13153,-12.024279,21.245248,-6.442946,-0.572425,1.390703,-0.442855,26.479,5,RUN
1759224951.15145,-10.694899,15.511733,-4.469974,-1.631557,3.160167,-1.877735,26.499,5,RUN
1759224951.17076,-10.905289,12.284349,-0.844555,-1.842297,2.760527,-1.6948,26.518,5,RUN
1759224951.19150,-7.710526,6.193351,5.11596,-1.364649,3.325419,-0.516426,26.539,5,RUN
1759224951.21055,-3.433285,1.032051,5.825691,-0.879639,3.911605,0.927336,26.558,5,RUN
1759224951.23145,1.823185,-1.516278,2.720711,-1.073402,3.100713,1.649421,26.579,5,RUN
1759224951.25148,5.034258,-3.070115,-3.188628,-2.30113,-0.24147,1.541986,26.599,5,RUN
1759224951.27148,6.173299,-3.817255,-0.342221,-2.521079,-3.103132,1.003852,26.619,5,RUN
1759224951.29170,6.504447,-4.851101,0.518345,-0.745418,-2.360762,1.067722,26.639,5,RUN
1759224951.31062,7.982119,-5.477933,1.066168,-0.072097,1.657509,1.412338,26.658,5,RUN
1759224951.33152,6.963087,-3.39842,-1.219546,-0.302228,2.891337,0.778644,26.679,5,RUN
1759224951.35143,1.429787,-0.508917,-3.503914,-0.177097,0.607545,0.175566,26.699,5,RUN
1759224951.37151,-0.874033,0.704793,-2.102408,0.083887,-1.115927,0.065797,26.719,5,RUN
1759224951.39157,-1.299752,0.625186,-1.089661,-0.402598,-2.63035,-0.005656,26.739,5,RUN
1759224951.41058,-1.16044,1.9405,-1.790713,-1.922512,-4.613056,-0.190669,26.758,5,RUN
1759224951.43155,-3.373281,9.458892,1.465551,-3.830568,-4.524177,0.280112,26.779,5,RUN
1759224951.45151,-10.912023,36.491823,27.568783,0.05688,1.291387,3.424486,26.799,5,RUN
1759224951.47146,-5.956026,44.311435,16.838271,-0.419043,4.925435,4.004386,26.819,5,RUN
1759224951.49165,-2.961179,26.325145,1.927632,-3.550959,4.029804,2.487448,26.839,5,RUN
1759224951.51073,-2.730437,15.801731,2.46094,-4.407968,3.193492,0.753558,26.858,5,RUN
1759224951.53154,-6.085761,15.061174,2.669086,-3.9887,1.566872,-0.052804,26.879,5,RUN
1759224951.55144,-6.317251,14.501679,-21.441572,-0.940512,-7.271137,0.061107,26.899,5,RUN
1759224951.57162,-1.237802,15.947328,-7.017704,1.086633,-5.875348,-0.913975,26.919,5,RUN
1759224951.59170,-4.212897,10.919355,-3.191172,0.80977,-1.371948,-1.450421,26.939,5,RUN
1759224951.61061,-5.737405,5.840056,-2.362778,0.809488,-0.011585,-1.590729,26.958,5,RUN
1759224951.63155,-4.392462,0.974889,-3.945944,1.187151,-0.561748,-0.864027,26.979,5,RUN
1759224951.65150,-2.557456,-1.060931,-0.385466,0.97854,-0.123628,-0.259703,26.999,5,RUN
1759224951.67158,-2.371457,-1.834407,3.692308,0.566377,1.504745,0.131364,27.019,5,RUN
1759224951.69164,-1.679383,-2.426074,1.805827,0.119836,2.809136,0.644333,27.039,5,RUN
1759224951.71073,-2.686444,-3.616591,-10.969185,1.701335,-2.448397,1.043927,27.058,5,RUN
1759224951.73168,-1.496526,-2.006491,-1.365892,3.070727,-3.245551,0.88795,27.079,5,RUN
1759224951.75146,-0.856675,-0.279673,0.811036,3.543615,-2.315622,0.031028,27.099,5,RUN
1759224951.77162,-0.29733,4.037522,2.894889,3.528482,-0.226469,-2.058508,27.119,5,RUN
1759224951.79153,-4.90946,15.613337,3.260903,4.525116,2.629166,-4.810178,27.139,5,RUN
1759224951.81052,-19.358766,36.801274,-12.720094,3.013311,0.958062,-5.410716,27.158,5,RUN
1759224951.83141,-18.357242,33.815255,-10.116998,1.524698,0.316815,-2.441412,27.179,5,RUN
1759224951.85142,-8.164677,25.799468,-3.115904,1.450158,0.080793,-0.419974,27.199,5,RUN
1759224951.87140,-6.402245,24.1967,-3.959261,-0.16921,0.299269,0.998531,27.219,5,RUN
1759224951.89147,-5.494244,17.875559,-3.671808,-0.734225,0.722176,-0.201319,27.239,5,RUN
1759224951.91052,-6.493673,14.550312,-2.648586,-1.262046,1.042705,-1.591857,27.258,5,RUN
1759224951.93146,-7.272388,10.311976,2.921973,-1.828925,2.501087,-2.108606,27.279,5,RUN
1759224951.95148,-5.518485,4.565294,4.748749,-1.739934,2.346337,-0.960489,27.299,5,RUN
1759224951.97141,-1.106121,-0.313491,4.223372,-1.401573,0.653871,0.62229,27.319,5,RUN
1759224951.99142,3.389142,-2.416947,3.916315,-1.186891,-0.962777,1.547478,27.339,5,RUN
1759224952.01051,5.761048,-3.762638,0.180463,-1.871254,-1.824951,1.71836,27.358,5,RUN
1759224952.03152,6.765116,-6.036979,1.36694,-1.018899,1.831783,1.806375,27.379,5,RUN
1759224952.05139,8.026411,-5.336526,1.313968,-0.630036,5.859796,1.004983,27.399,5,RUN
1759224952.07141,6.603507,-3.882497,-3.211672,-0.58062,5.042814,-0.223776,27.419,5,RUN
1759224952.09144,0.742203,-0.820912,-5.940912,-0.354734,2.69238,-0.635968,27.439,5,RUN
1759224952.11138,-2.644994,2.152687,-8.422353,1.154135,0.831307,-0.787717,27.459,5,RUN
1759224952.13151,-1.181838,1.68073,-4.71538,1.234421,-2.122699,-1.016225,27.479,5,RUN
1759224952.15146,-0.416142,2.306963,-3.394978,-1.266679,-4.76513,-1.128519,27.499,5,RUN
1759224952.17141,-0.675913,6.878841,4.978443,-3.964029,-5.770115,0.19197,27.519,5,RUN
1759224952.19145,-7.296479,28.872725,26.44276,-0.818898,-0.982338,2.914084,27.539,5,RUN
1759224952.21051,-4.024054,45.664309,26.626665,-0.255416,5.000263,2.371722,27.558,5,RUN
1759224952.23142,-5.513846,31.324837,3.072659,-3.162112,2.528283,1.337825,27.579,5,RUN
1759224952.25140,-5.0582,20.383185,0.660201,-4.190789,0.490996,0.404786,27.599,5,RUN
1759224952.27148,-8.898948,16.038607,-20.563499,-7.417973,-9.368237,-0.117343,27.619,5,RUN
1759224952.29166,-3.748572,17.471387,-3.199701,2.716216,-4.199299,-0.65491,27.639,5,RUN
1759224952.31070,-9.110835,12.335376,-14.102147,0.753468,-3.495049,-1.435222,27.658,5,RUN
1759224952.33141,-7.732224,7.931092,3.758897,0.23437,0.187353,-0.995141,27.679,5,RUN
1759224952.35139,-6.458658,-0.416591,-4.33545,1.092678,1.127832,0.175694,27.699,5,RUN
1759224952.37144,-4.300285,-2.366369,-4.666898,0.195965,0.508533,0.745756,27.719,5,RUN
1759224952.39147,-3.445705,-2.065897,4.421193,-0.081097,2.042693,0.59381,27.739,5,RUN
1759224952.41056,-2.557905,-3.241749,3.408745,-0.462049,3.239106,0.803301,27.758,5,RUN
1759224952.43151,-4.437204,-4.667197,-9.091233,1.494335,-1.879327,0.957032,27.779,5,RUN
1759224952.45141,-1.656937,-1.830816,-0.124199,2.431875,-2.414574,0.456528,27.799,5,RUN
1759224952.47155,-0.502782,-1.145775,1.35033,3.173283,-1.279531,-0.086069,27.819,5,RUN
1759224952.49153,0.430358,1.050306,0.944662,3.987559,0.177421,-0.773787,27.839,5,RUN
1759224952.51053,-0.087089,5.405359,0.374244,4.024658,1.221253,-2.106469,27.858,5,RUN
1759224952.53164,-7.805546,24.99756,-7.348104,3.075764,-0.43321,-4.871373,27.879,5,RUN
1759224952.55136,-19.137602,43.271903,-7.017255,2.569324,-1.52131,-4.299138,27.899,5,RUN
1759224952.57142,-16.476746,40.400507,-4.106355,3.038093,-0.952105,-1.084842,27.919,5,RUN
1759224952.59143,-6.79669,25.130588,-8.136694,1.015169,0.181737,0.728326,27.939,5,RUN
1759224952.61049,-6.487538,14.341418,-6.399551,-1.323009,1.297188,-0.494578,27.958,5,RUN
1759224952.63145,-9.029881,13.752743,-2.903119,-2.213187,1.584726,-2.18156,27.979,5,RUN
1759224952.65138,-10.40116,9.230845,3.564817,-2.057462,1.928601,-1.494643,27.999,5,RUN
1759224952.67141,-6.58196,2.024597,6.065411,-1.349508,1.434488,0.124175,28.019,5,RUN
1759224952.69164,0.011971,-0.973093,4.620061,-1.037638,0.116346,1.689443,28.039,5,RUN
1759224952.71067,3.416975,-2.378639,3.529203,-1.300605,-1.216004,2.427287,28.058,5,RUN
1759224952.73163,5.665429,-2.868104,1.746271,-0.754607,-1.27801,2.631834,28.079,5,RUN
1759224952.75156,8.41502,-5.055656,-0.896778,-0.346101,2.478517,2.476705,28.099,5,RUN
1759224952.77153,9.607931,-4.474464,-2.602048,-0.379397,4.927861,1.001615,28.119,5,RUN
1759224952.79158,5.700145,-4.417302,-5.003283,-0.390178,2.562474,-0.392508,28.139,5,RUN
1759224952.81051,-0.927155,-1.55264,-5.301211,-0.583991,-0.408307,-0.490249,28.158,5,RUN
1759224952.83158,-2.384774,0.47061,-5.810877,-0.378237,-2.496367,-0.357494,28.179,5,RUN
1759224952.85137,-1.287033,0.703297,-3.465008,-0.446775,-4.491529,-0.491651,28.199,5,RUN
1759224952.87148,-0.020201,1.434127,-1.046715,-1.897837,-6.050753,-0.694036,28.219,5,RUN
1759224952.89166,-0.757017,10.406996,9.395745,-3.354216,-3.463411,-0.211882,28.239,5,RUN
1759224952.91066,-7.195474,40.346039,37.369298,1.629033,3.487851,3.170791,28.258,5,RUN
1759224952.93144,-3.955072,36.885819,10.275465,-0.789748,4.742887,3.559956,28.279,5,RUN
1759224952.95140,-1.719037,21.521628,1.887678,-4.100182,3.726947,1.401926,28.299,5,RUN
1759224952.97139,-4.970063,16.614114,0.92072,-4.833118,1.002418,0.887696,28.319,5,RUN
1759224952.99168,-5.533599,16.551266,0.736067,-1.158983,-2.094799,0.581636,28.339,5,RUN
1759224953.01049,-3.512892,20.763415,-10.157849,1.244098,-6.034597,-0.153653,28.358,5,RUN
1759224953.03145,-2.644695,15.52954,-14.994137,-0.843935,-5.210716,-0.914784,28.379,5,RUN
1759224953.05135,-3.052607,8.731504,5.186589,-0.02242,2.86149,-0.484907,28.399,5,RUN
1759224953.07152,-6.668899,5.865495,-7.62239,-0.256509,2.134987,0.018937,28.419,5,RUN
1759224953.09148,-5.475539,2.70859,-3.132813,-0.283624,0.594345,0.422725,28.439,5,RUN
1759224953.11047,-2.842965,0.221613,-1.035492,-0.043644,0.525112,0.194459,28.458,5,RUN
1759224953.13139,-1.344494,-0.825551,3.664625,-0.182215,1.780673,0.084408,28.479,5,RUN
1759224953.15137,-1.337162,-2.259827,2.565387,0.073017,1.61078,0.362825,28.499,5,RUN
1759224953.17137,-2.333898,-2.851793,-4.779425,2.307894,-2.679978,0.320317,28.519,5,RUN
1759224953.19144,-0.952593,-1.376516,-0.219967,2.959687,-3.513822,-0.074902,28.539,5,RUN
1759224953.21045,-1.223886,-1.830816,-0.612018,3.605623,-3.590717,-0.312406,28.558,5,RUN
1759224953.23141,-0.479589,1.647959,1.752556,3.305323,-2.027611,-1.507777,28.579,5,RUN
1759224953.25137,-3.424606,10.784232,0.448165,3.898277,-0.462809,-3.6572,28.599,5,RUN
1759224953.27136,-13.053636,33.696144,-0.767641,3.466082,2.279846,-5.562527,28.619,5,RUN
1759224953.29138,-17.356316,41.585637,-13.522451,1.363994,0.731761,-3.84783,28.639,5,RUN
1759224953.31065,-10.493487,30.152875,-4.068497,1.199393,-0.329317,-1.27061,28.658,5,RUN
1759224953.33133,-7.669226,25.972749,-1.834407,-0.019338,0.276736,0.611753,28.679,5,RUN
1759224953.35133,-5.76015,17.447296,-1.468394,-0.884417,2.264581,-0.9001,28.699,5,RUN
1759224953.37142,-7.424719,12.488006,-1.498321,-1.408792,2.545918,-1.709902,28.719,5,RUN
1759224953.39144,-5.577742,6.59408,2.098967,-1.408602,1.513788,-0.639475,28.739,5,RUN
1759224953.41047,-3.655198,3.950433,3.027917,-1.352561,1.038464,0.056184,28.758,5,RUN
1759224953.43145,2.393304,-1.530793,4.169502,-0.671664,-0.710406,1.809385,28.779,5,RUN
1759224953.45136,4.258537,-2.694225,2.526481,-0.174104,-1.434298,2.165041,28.799,5,RUN
1759224953.47153,7.030872,-5.357176,-5.006126,-0.484954,-0.238717,1.992054,28.819,5,RUN
1759224953.49141,7.746739,-5.92116,-1.496675,-0.269134,3.37284,1.449201,28.839,5,RUN
1759224953.51051,8.154651,-5.05386,-0.837372,-0.105665,4.805654,0.817983,28.858,5,RUN
1759224953.53136,2.527379,-3.644274,-4.380641,0.010164,1.853878,-0.67746,28.879,5,RUN
1759224953.55096,-0.192434,-2.469918,-4.228609,-0.06215,0.35533,-0.6695,28.898,5,RUN
1759224953.57150,-3.021782,0.616507,-6.307075,0.720818,-3.023611,-0.883815,28.919,5,RUN
1759224953.59132,-0.65646,0.502633,-0.699257,-0.04443,-3.998935,-1.034745,28.939,5,RUN
1759224953.61043,-0.195127,0.810437,-1.122132,-0.683582,-4.641232,-1.057181,28.958,5,RUN
1759224953.63136,-5.84679,12.744635,11.509975,-2.878021,-3.846821,0.636676,28.979,5,RUN
1759224953.65132,-14.62947,53.719002,43.263673,-0.233005,6.346602,2.417472,28.999,5,RUN
1759224953.67133,-12.750471,42.76119,7.236175,-2.934942,5.133379,1.706592,29.019,5,RUN
1759224953.69131,-6.586149,16.142007,0.287603,-3.778562,2.524288,1.292222,29.039,5,RUN
1759224953.71060,-4.966622,12.547263,-0.035015,-4.031568,1.609836,1.122094,29.058,5,RUN
1759224953.73153,-1.923292,13.5434,-7.483077,-4.634817,-4.856111,0.3003,29.079,5,RUN
1759224953.75136,1.100585,18.443882,-1.984494,-0.142622,-0.668114,0.669137,29.099,5,RUN
1759224953.77148,-2.303072,16.534207,-10.69834,-0.58537,-2.035942,0.040872,29.119,5,RUN
1759224953.79140,-7.028628,9.73213,1.410185,0.406926,-1.584927,0.430416,29.139,5,RUN
1759224953.81047,-5.722741,5.95842,2.086397,0.910119,-1.137938,0.608958,29.158,5,RUN
1759224953.83151,-2.404976,-1.144129,-7.815722,1.102388,-1.907705,0.58459,29.179,5,RUN
1759224953.85139,-1.460463,0.346261,1.933318,0.902188,-0.656324,0.009935,29.199,5,RUN
1759224953.87149,-0.727837,0.251541,2.017863,0.663021,0.679506,-0.377304,29.219,5,RUN
1759224953.89139,-0.899023,-0.795025,1.665766,1.267799,1.294128,-0.471647,29.239,5,RUN
1759224953.91052,-1.902792,-2.677316,-4.076428,4.075471,-0.599118,-0.652403,29.258,5,RUN
1759224953.93139,-2.652327,-2.86137,-1.815852,4.785237,-1.243161,-0.677449,29.279,5,RUN
1759224953.95132,-1.547702,1.521964,-1.713201,4.436972,-1.289051,-1.569645,29.299,5,RUN
1759224953.97152,-3.96794,8.693496,-1.552041,4.420243,-0.812317,-2.958701,29.319,5,RUN
1759224953.99132,-12.271032,29.558066,-5.185542,3.868746,-0.631685,-4.995723,29.339,5,RUN
1759224954.01042,-17.685219,36.845866,-6.418705,3.432747,-0.946367,-4.368173,29.358,5,RUN
1759224954.03131,-11.076924,30.678702,-4.943278,2.998451,-0.299183,-0.733627,29.379,5,RUN
1759224954.05130,-5.004181,20.29864,-6.409128,0.573092,0.946986,-0.208948,29.399,5,RUN
1759224954.07150,-7.518242,12.489503,-6.792799,-0.857714,1.916418,-1.233888,29.419,5,RUN
1759224954.09137,-11.026645,11.22701,-3.788674,-1.597428,2.198439,-1.371679,29.439,5,RUN
1759224954.11092,-11.129147,9.350405,0.096367,-1.924098,1.581698,-1.034216,29.458,5,RUN
1759224954.13132,-6.862829,4.792294,4.397251,-1.799126,1.133005,-0.1357,29.479,5,RUN
1759224954.15108,-1.258452,0.383072,3.531298,-1.494326,-0.310314,0.98225,29.499,5,RUN
1759224954.17132,2.48997,-1.442207,3.190124,-1.286242,-1.547697,1.666633,29.519,5,RUN
1759224954.19115,3.91422,-2.777274,-0.42123,-1.893893,-2.132473,1.944242,29.539,5,RUN
1759224954.21039,5.423316,-4.434361,-2.273743,-1.630546,0.146886,2.02128,29.558,5,RUN
1759224954.23125,7.512556,-5.519832,-1.363947,-1.447753,3.967335,1.294005,29.579,5,RUN
1759224954.25129,6.612935,-4.283077,-3.440318,-1.66432,4.0411,0.003627,29.599,5,RUN
1759224954.27098,1.780388,-0.982371,-3.753061,-1.461221,3.020351,-0.76935,29.618,5,RUN
1759224954.29130,-1.352874,1.264138,-3.672406,-0.134944,2.498466,-1.023188,29.639,5,RUN
1759224954.31041,-2.75393,0.913837,-7.936928,0.256514,-0.598467,-1.040681,29.658,5,RUN
1759224954.33131,-0.930596,1.034445,-1.09819,-0.816524,-2.61748,-1.017138,29.679,5,RUN
1759224954.35131,-2.238429,4.643704,4.048146,-2.049147,-5.503731,-0.539855,29.699,5,RUN
1759224954.37129,-7.049577,19.17965,16.576554,-1.499934,-4.452191,1.441872,29.719,5,RUN
1759224954.39129,-7.173477,45.828611,32.427217,1.139842,3.602796,2.72022,29.739,5,RUN
1759224954.41047,-6.019023,36.687848,4.395754,-1.53591,3.57991,1.987482,29.758,5,RUN
1759224954.43130,-5.077952,20.048895,-0.040851,-3.326518,2.301624,0.917176,29.779,5,RUN
1759224954.45129,-5.738153,13.709049,-5.05386,-4.932756,-1.826842,0.699548,29.799,5,RUN
1759224954.47127,-4.459201,9.99654,-5.051466,-4.871867,-5.211118,0.623836,29.819,5,RUN
1759224954.49130,-2.177526,18.018163,1.971924,0.64347,-1.779814,0.130369,29.839,5,RUN
1759224954.51040,-4.795436,17.736545,-12.275072,0.216826,-3.440899,-0.872553,29.858,5,RUN
1759224954.53130,-6.875249,11.873295,-0.069581,0.458045,-1.956115,-0.8951,29.879,5,RUN
1759224954.55092,-6.058527,4.557812,-0.905906,1.777126,-0.509131,-0.449408,29.898,5,RUN
1759224954.57128,-5.205294,0.701202,-6.05733,1.996935,-1.712885,-0.466423,29.919,5,RUN
1759224954.59129,-4.850952,-1.330278,2.118719,1.044885,0.081989,-0.532854,29.939,5,RUN
1759224954.61039,-5.775712,-5.236568,4.704906,0.197773,2.529505,0.275218,29.958,5,RUN
1759224954.63131,-6.571635,-7.373393,-6.336704,0.073359,-0.015776,1.524345,29.979,5,RUN
1759224954.65136,-2.813187,-3.648314,-4.53791,0.935154,-2.078937,1.785646,29.999,5,RUN
1759224954.67126,-1.129914,-1.493234,-0.096516,1.843853,-1.398146,1.304346,30.019,5,RUN
1759224954.69135,-0.02484,0.479589,1.921496,2.386633,0.376922,0.251429,30.039,5,RUN
1759224954.71039,-0.089334,4.301333,1.965939,2.922901,2.063249,-1.525842,30.058,5,RUN
1759224954.73090,-3.7577,14.701446,0.127042,3.442853,2.433272,-3.947236,30.078,5,RUN
1759224954.75033,-11.023204,33.37562,-8.203582,2.702381,0.068969,-6.004372,30.098,5,RUN
1759224954.77041,-17.197999,39.130682,-6.592883,2.914383,-1.677722,-3.344344,30.118,5,RUN
1759224954.79127,-9.829245,32.799216,-4.840926,2.964618,-1.038156,0.347829,30.139,5,RUN
1759224954.81038,-4.45112,24.016835,-6.357952,0.301818,0.940989,1.457153,30.158,5,RUN
1759224954.83135,-4.64954,17.618032,-5.708076,-0.574946,2.093931,-0.808323,30.179,5,RUN
1759224954.85135,-7.09776,15.25286,-2.331204,-1.106915,2.380501,-2.246732,30.199,5,RUN
1759224954.87125,-7.578995,10.420164,2.454955,-1.202719,2.400374,-2.599402,30.219,5,RUN
1759224954.89096,-5.488707,1.892916,5.171476,-0.745674,1.655757,-1.132537,30.238,5,RUN
1759224954.91136,-1.490391,-2.900575,3.630208,-0.676066,0.737977,0.820722,30.259,5,RUN
1759224954.93139,1.706018,-3.611952,3.478326,-0.782207,-0.028659,2.035445,30.279,5,RUN
1759224954.95128,5.693262,-3.085527,-0.968604,-1.344762,-2.569403,1.616505,30.299,5,RUN
1759224954.97126,10.270975,-5.687875,-3.393033,-0.94966,-3.33466,0.575557,30.319,5,RUN
1759224954.99142,9.725546,-7.410952,1.107767,0.069544,0.775586,0.060944,30.339,5,RUN
1759224955.01037,5.848286,-7.045687,-4.598663,-0.444939,2.245912,-0.459627,30.358,5,RUN
1759224955.03139,-1.979107,-2.174983,-6.707955,-0.870611,-0.08642,-0.169521,30.379,5,RUN
1759224955.05135,-2.77054,-0.205752,-2.695871,-1.022584,-2.370015,0.265864,30.399,5,RUN
1759224955.07124,-1.930624,-0.033369,1.002871,-1.30108,-3.220244,0.457379,30.419,5,RUN
1759224955.09141,-2.998139,3.715202,0.182408,-2.428754,-4.55565,-0.110192,30.439,5,RUN
1759224955.11037,-6.570288,17.27626,10.428993,-2.554054,-2.474226,1.171976,30.458,5,RUN
1759224955.13125,-12.042385,41.779567,29.222279,1.449876,2.55596,3.242279,30.479,5,RUN
1759224955.15129,-6.263531,30.579641,4.643255,-0.331902,1.74562,2.328685,30.499,5,RUN
1759224955.17126,-4.193893,18.401684,3.011906,-2.995945,1.258603,1.239298,30.519,5,RUN
1759224955.19135,-5.829731,14.993538,6.279991,-3.459318,1.672033,1.420124,30.539,5,RUN
1759224955.21127,-5.237915,16.835128,6.012589,-3.805488,1.83189,1.264141,30.559,5,RUN
1759224955.23130,-4.918438,15.395166,4.149151,-2.950716,1.104973,1.048446,30.579,5,RUN
1759224955.25094,-3.749469,16.716765,-10.601525,1.332535,-3.536552,0.861667,30.598,5,RUN
1759224955.27140,-1.284938,15.567997,-12.272079,-0.146666,-5.324002,-0.695107,30.619,5,RUN
1759224955.29139,-3.494487,9.929652,3.905242,0.500518,1.190148,-0.543916,30.639,5,RUN
1759224955.31039,-4.656124,3.752911,-5.156661,0.782758,1.169685,-0.191181,30.658,5,RUN
1759224955.33152,-3.637241,0.188992,-4.745008,1.319053,-0.510518,-0.135592,30.679,5,RUN
1759224955.35128,-1.920898,-1.253963,2.845359,1.135922,0.47232,0.088926,30.699,5,RUN
1759224955.37131,-1.411532,-2.047192,3.537433,1.097519,1.477999,0.499406,30.719,5,RUN
1759224955.39131,-1.101632,-1.972373,-0.233285,0.832486,0.831316,0.81708,30.739,5,RUN
1759224955.41042,-2.133383,-2.691532,-7.070227,1.255634,-2.884737,1.088991,30.758,5,RUN
1759224955.43138,-2.444779,-2.392256,0.430058,1.783653,-2.544167,1.186687,30.779,5,RUN
1759224955.45133,-1.235408,1.492635,3.484012,2.071013,-0.173717,-0.612818,30.799,5,RUN
1759224955.47129,-3.549554,8.495376,1.380856,3.638612,0.849801,-3.201489,30.819,5,RUN
1759224955.49130,-7.118261,16.72724,-4.631433,4.427609,-0.165542,-4.625827,30.839,5,RUN
1759224955.51042,-9.993547,28.227937,-12.958018,2.214292,-2.057558,-4.418764,30.858,5,RUN
1759224955.53145,-13.007398,31.872061,-3.180248,2.524205,-1.056646,-2.600293,30.879,5,RUN
1759224955.55133,-11.761665,36.156934,-2.474856,1.928057,1.360583,-0.953083,30.899,5,RUN
1759224955.57132,-10.227431,30.587273,-8.275259,-0.183017,1.767546,-0.563694,30.919,5,RUN
1759224955.59138,-8.074445,16.946908,-4.346523,-0.499552,2.093654,-1.256063,30.939,5,RUN
1759224955.61039,-8.058284,13.694085,-0.332195,-0.748888,2.545339,-1.549686,30.958,5,RUN
1759224955.63146,-5.675605,8.563162,4.688296,-0.696999,3.665916,-1.360855,30.979,5,RUN
1759224955.65125,-3.45184,1.372775,5.954978,-0.391483,3.252338,-0.123055,30.999,5,RUN
1759224955.67143,0.132878,-2.805855,4.348469,-0.19176,0.897961,0.928455,31.019,5,RUN
1759224955.69129,3.396624,-4.047996,3.174562,-0.453729,-1.524559,1.175965,31.039,5,RUN
1759224955.71039,7.177068,-5.109825,-1.338957,-1.125955,-3.779784,0.502379,31.058,5,RUN
1759224955.73151,10.28579,-9.197176,0.006883,-0.543025,-1.337912,0.112328,31.079,5,RUN
1759224955.75125,8.930372,-10.614693,1.706767,-0.907133,3.175761,0.213167,31.099,5,RUN
1759224955.77129,1.496975,-5.806986,-2.706346,-1.005557,2.64175,0.352862,31.119,5,RUN
1759224955.79137,-2.487426,-1.323545,-3.930531,-1.040263,0.234709,0.781263,31.139,5,RUN
1759224955.81035,-3.185934,0.294636,-3.734057,-1.298095,-2.095135,1.157216,31.158,5,RUN
1759224955.83137,-3.359215,4.996699,-2.415899,1.023898,-3.515706,-0.354165,31.179,5,RUN
1759224955.85132,-4.652832,14.227094,-3.593547,0.222486,-3.919304,-0.764486,31.199,5,RUN
1759224955.87123,-9.952996,29.111098,7.780856,-2.28131,-1.308411,2.106531,31.219,5,RUN
1759224955.89123,-5.397877,34.786703,17.308133,-1.516671,2.154132,3.446548,31.239,5,RUN
1759224955.91034,-0.750582,20.958392,13.394511,-3.122562,4.709142,1.740075,31.258,5,RUN
1759224955.93129,-4.97156,15.378107,8.069058,-3.543641,4.32162,1.468966,31.279,5,RUN
1759224955.95130,-6.707206,17.461212,5.090222,-3.360073,3.01935,1.843668,31.299,5,RUN
1759224955.97123,-3.627365,17.829769,2.372055,-3.90569,1.519805,0.894683,31.319,5,RUN
1759224955.99126,-2.057367,16.158467,-15.72362,-1.924541,-5.008636,0.757044,31.339,5,RUN
1759224956.01033,1.160739,17.990929,-7.046584,0.062018,-4.774573,0.310795,31.358,5,RUN
1759224956.03137,-1.718438,14.245051,-1.863437,-0.258369,-0.809284,-0.82368,31.379,5,RUN
1759224956.05122,-4.755932,5.494094,-2.688838,-0.420807,0.846095,-0.584807,31.399,5,RUN
1759224956.07121,-4.34787,1.896058,-5.931335,0.44865,-0.056503,-0.295636,31.419,5,RUN
1759224956.09133,-2.748394,0.42512,-3.037793,0.773715,-0.134265,-0.267607,31.439,5,RUN
1759224956.11056,-1.481412,-0.663792,4.433313,0.863421,1.371163,-0.359953,31.458,5,RUN
1759224956.13135,-1.206378,-1.580173,3.06368,0.598364,2.161747,-0.003514,31.479,5,RUN
1759224956.15122,-2.487276,-2.815282,-7.693617,0.911466,-2.080823,0.368778,31.499,5,RUN
1759224956.17122,-1.831115,-1.68073,-2.782511,1.658459,-3.73758,0.127981,31.519,5,RUN
1759224956.19135,-1.199794,-0.812383,0.462081,2.797912,-2.726309,-0.778065,31.539,5,RUN
1759224956.21033,-2.378789,0.262315,3.392135,3.113852,0.415626,-1.570654,31.558,5,RUN
1759224956.23123,-4.570082,7.311293,3.991134,3.370435,3.64404,-2.858339,31.579,5,RUN
1759224956.25122,-13.207165,25.465776,-3.379565,3.735739,1.770588,-4.561353,31.599,5,RUN
1759224956.27138,-16.898575,35.257762,-8.919748,2.228198,-3.525946,-3.507825,31.619,5,RUN
1759224956.29129,-12.685827,36.366128,-1.210269,4.103971,-1.135053,-0.702183,31.639,5,RUN
1759224956.31034,-4.096629,24.574385,-7.125892,2.203498,0.38782,1.180848,31.658,5,RUN
1759224956.33141,-2.635268,20.146758,-3.84015,-1.273627,2.258846,0.915098,31.679,5,RUN
1759224956.35125,-5.042937,15.000422,-3.98455,-1.750325,2.471391,-0.964105,31.699,5,RUN
1759224956.37139,-6.730699,14.143297,-0.436044,-1.593077,2.25616,-2.295555,31.719,5,RUN
1759224956.39140,-7.392247,9.534758,3.139098,-1.382935,1.739644,-2.242065,31.739,5,RUN
1759224956.41036,-3.792116,0.913538,3.934721,-1.695625,1.483932,-0.824311,31.758,5,RUN
1759224956.43128,-0.293439,-2.23798,3.360711,-1.718387,1.119478,1.05855,31.779,5,RUN
1759224956.45125,1.754351,-2.549077,3.18339,-1.577011,0.502421,2.0954,31.799,5,RUN
1759224956.47131,6.074389,-2.818424,-0.14874,-1.419676,-1.320143,1.525777,31.819,5,RUN
1759224956.49135,8.350526,-4.169203,-0.039504,0.450441,0.535645,0.878935,31.839,5,RUN
1759224956.51051,10.439467,-4.225317,-6.408829,-0.092457,2.917538,-0.252211,31.858,5,RUN
1759224956.53143,4.362385,-3.90599,-8.747814,-0.474959,1.17127,-0.843115,31.879,5,RUN
1759224956.55130,-1.612794,0.001646,-5.606023,-0.224105,-1.298039,-0.765376,31.899,5,RUN
1759224956.57119,-1.515679,-0.034866,-0.790087,-0.343038,-2.777522,-0.615553,31.919,5,RUN
1759224956.59143,-1.631499,-0.54932,2.699462,-0.54476,-2.806066,-0.039975,31.939,5,RUN
1759224956.61032,-2.390461,1.675043,3.907187,-0.56955,-4.210183,1.079021,31.958,5,RUN
1759224956.63142,-6.209661,17.480665,12.667571,-1.147473,-2.687037,2.357599,31.979,5,RUN
1759224956.65136,-6.089652,48.412104,29.303382,-0.01045,4.29294,2.568455,31.999,5,RUN
1759224956.67127,-4.296096,32.750883,5.83033,-1.553764,2.808756,1.309414,32.019,5,RUN
1759224956.69144,-4.310311,15.025411,-0.177171,-2.690263,0.29271,0.402815,32.039,5,RUN
1759224956.71035,-5.183447,16.061203,1.126023,-3.391147,-0.693732,-0.411034,32.058,5,RUN
1759224956.73136,-7.028329,13.183971,-3.314473,-4.194901,-2.937471,-0.402095,32.079,5,RUN
1759224956.75123,-9.102455,15.440356,-7.479486,-2.015533,-5.542494,0.183327,32.099,5,RUN
1759224956.77121,-6.294955,18.467974,-3.339612,1.718638,-2.293486,-0.044606,32.119,5,RUN
1759224956.79143,-6.248567,12.705729,-6.298845,0.249178,-0.52367,-0.158918,32.139,5,RUN
1759224956.81036,-8.053047,7.660697,-3.106926,0.157224,0.018034,0.550679,32.158,5,RUN
1759224956.83078,-5.010017,0.827945,-4.665401,1.552888,-0.24019,1.206004,32.178,5,RUN
1759224956.85120,-3.211223,0.120758,-2.937386,1.512246,-0.160567,0.687352,32.199,5,RUN
1759224956.87117,-2.627337,-0.982371,4.57113,0.450963,2.370404,0.4565,32.219,5,RUN
1759224956.89121,-2.608632,-2.431761,2.020257,-0.173092,2.991586,0.516337,32.239,5,RUN
1759224956.91030,-3.65011,-3.064877,-7.029975,1.329425,-1.465353,0.16287,32.258,5,RUN
1759224956.93122,-2.497751,-2.059612,-0.546028,2.061606,-1.991017,-0.303933,32.279,5,RUN
1759224956.95119,-1.352275,-1.84967,0.893486,2.828177,-1.261853,-0.613692,32.299,5,RUN
1759224956.97119,-0.324265,1.636886,2.106299,3.201987,0.47594,-1.555033,32.319,5,RUN
1759224956.99135,-2.850746,8.296807,1.809268,3.673122,1.863758,-2.879807,32.339,5,RUN
1759224957.01029,-10.666767,26.977864,-1.338957,3.924869,1.662835,-4.605044,32.358,5,RUN
1759224957.03119,-16.03741,39.787442,-12.674305,2.819975,-1.777526,-3.60527,32.379,5,RUN
1759224957.05120,-10.215759,32.627731,-5.256021,2.89358,-0.853399,-0.877302,32.399,5,RUN
1759224957.07116,-4.480599,21.955877,-4.579659,1.137289,0.939877,1.057208,32.419,5,RUN
1759224957.09121,-2.841917,16.824953,-3.528754,-0.682407,2.394298,0.448265,32.439,5,RUN
1759224957.11029,-5.614852,14.642488,-4.261529,-1.179567,1.273297,-0.894804,32.458,5,RUN
1759224957.13133,-7.260417,13.103166,1.537227,-1.254812,1.124566,-2.126904,32.479,5,RUN
1759224957.15118,-6.655432,5.588516,4.536563,-0.699712,0.699338,-1.07055,32.499,5,RUN
1759224957.17118,-1.89127,-1.442656,3.121141,-0.442188,-0.93143,0.723198,32.519,5,RUN
1759224957.19120,3.569306,-3.012654,-0.995389,-1.152504,-2.318069,2.119359,32.539,5,RUN
1759224957.21026,5.240309,-3.622128,-0.571316,-1.598943,-2.377358,2.768541,32.558,5,RUN
1759224957.23086,5.776012,-4.446182,-0.431405,-0.888822,-0.125036,2.730605,32.578,5,RUN
1759224957.25121,4.647295,-4.384382,-1.663222,-0.551846,3.967356,2.033222,32.599,5,RUN
1759224957.27120,1.516727,-3.124134,-6.485593,-1.08026,3.943539,1.408843,32.619,5,RUN
1759224957.29069,-1.416769,-0.633117,-5.153369,-0.998343,1.281873,1.161376,32.638,5,RUN
1759224957.31026,-1.915661,1.120187,-2.347215,-0.952087,-1.414215,0.431359,32.658,5,RUN
1759224957.33122,-2.480094,3.521571,1.262792,-1.310946,-2.295815,-0.81292,32.679,5,RUN
1759224957.35126,-2.963124,8.354118,3.648763,-2.314403,-2.929182,-2.191602,32.699,5,RUN
1759224957.37095,-5.428403,15.850064,11.660959,-1.921487,-2.10676,-1.90192,32.718,5,RUN
1759224957.39118,-6.592135,24.379856,18.903868,1.071312,-0.053981,-0.044077,32.739,5,RUN
1759224957.41020,-4.771045,20.618715,7.44073,0.595267,0.101776,1.048434,32.758,5,RUN
1759224957.43124,-6.020968,24.5268,4.389769,-2.416258,0.604874,2.244801,32.779,5,RUN
1759224957.45120,-3.843591,22.939744,5.837961,-4.054828,2.51404,2.424613,32.799,5,RUN
1759224957.47113,-1.969829,19.131467,5.095759,-4.715476,3.878798,1.583214,32.819,5,RUN
1759224957.49119,-4.146757,17.199645,3.554043,-4.507637,2.819883,0.936041,32.839,5,RUN
1759224957.51028,-3.847183,18.590826,-10.377966,1.188068,-1.390733,1.225279,32.858,5,RUN
1759224957.53032,-0.261417,17.558776,-19.932627,0.012129,-5.384482,-0.285477,32.878,5,RUN
1759224957.55118,-3.44361,11.051336,-0.51191,-0.285557,-2.99165,-0.930196,32.899,5,RUN
1759224957.57122,-3.068469,2.615516,5.78469,0.803735,0.7741,-0.498941,32.919,5,RUN
1759224957.59117,-2.021903,-3.409942,-8.36145,2.006356,-0.223103,0.254678,32.939,5,RUN
1759224957.61030,-2.075623,-0.935235,-4.811896,0.973258,-0.813487,0.100105,32.958,5,RUN
1759224957.63118,-1.001375,0.086042,4.599112,0.295147,1.517126,-0.297047,32.979,5,RUN
1759224957.65116,-2.503138,-1.865682,3.627664,0.013395,3.241796,-0.065891,32.999,5,RUN
1759224957.67121,-4.56275,-3.515586,-6.360346,1.98809,-1.469329,0.20101,33.019,5,RUN
