SamplingTime, AccelerationX, AccelerationY, AccelerationZ, GyroX, GyroY, GyroZ, MagneticFieldX, MagneticFieldY, MagneticFieldZ, Latitude, Longitude
1759224755.025168, 2.227655, -4.502895, -8.757990, -0.098728, -0.558584, -0.770407, 39.652771, -45.791550, -251.671982, , 
1759224755.044286, 1.956661, -4.241179, -8.927978, -0.189958, -0.709604, -0.723198, 40.189285, -45.590057, -251.213394, , 
1759224755.065095, 2.053926, -3.974375, -10.162787, -0.007912, -0.758703, -0.714906, 41.794739, -45.540710, -251.814209, , 
1759224755.085200, 1.998111, -3.829974, -10.767922, 0.234108, -0.714558, -0.698520, 41.989227, -45.332336, -251.957352, , 
1759224755.105124, 2.029236, -3.715202, -9.951499, 0.244156, -0.757550, -0.634580, 42.802109, -45.309341, -251.803787, , 
1759224755.125093, 2.205958, -3.869030, -9.638607, 0.185045, -0.818326, -0.487538, 42.986481, -45.254303, -251.990051, , 
1759224755.144626, 2.394501, -4.037223, -10.053402, 0.284855, -0.746419, -0.377138, 43.609283, -45.197708, -251.412964, 13.726153, 100.771817
1759224755.165084, 1.943493, -3.977068, -9.583690, 0.137326, -0.954229, -0.359489, 44.423508, -44.878632, -251.782120, 13.726153, 100.771817
1759224755.185082, 1.889324, -4.196287, -9.291897, -0.140319, -0.917500, -0.164619, 44.866623, -45.175552, -251.830643, 13.726153, 100.771817
1759224755.205086, 1.380706, -3.348590, -9.574263, -0.046883, -0.366359, -0.371368, 45.151611, -45.156601, -251.852142, 13.726153, 100.771817
1759224755.225080, 0.950348, -3.520075, -9.112780, 0.177677, -0.202966, -0.200599, 44.786453, -45.077927, -251.925247, 13.726153, 100.771817
1759224755.244719, 1.967884, -4.922928, -8.970625, 0.097262, -0.752985, 0.324737, 44.748688, -45.152969, -251.843811, 13.726153, 100.771817
1759224755.265136, 0.882563, -5.160103, -9.327510, 0.206183, -1.224670, 0.184179, 44.763245, -45.380600, -252.318115, 13.726153, 100.771817
1759224755.285138, -0.464924, -4.411167, -9.358336, 0.441135, -1.083710, -0.134626, 45.117767, -45.111588, -251.974106, 13.726153, 100.771817
1759224755.305164, -0.397886, -4.350564, -8.629601, 0.396045, -0.630745, -0.178200, 45.309998, -44.849380, -250.985245, 13.726153, 100.771817
1759224755.325282, -0.150984, -4.659715, -8.758887, 0.271729, -0.155349, -0.107790, 45.402267, -44.918320, -251.455048, 13.726153, 100.771817
1759224755.344996, -0.106093, -4.150648, -8.681974, 0.137266, 0.313435, -0.100459, 45.328293, -44.680222, -251.544327, 13.726153, 100.771817
1759224755.365099, 0.247501, -4.367323, -8.988731, 0.048140, 0.694591, -0.143271, 45.467880, -44.678848, -250.467529, 13.726153, 100.771817
1759224755.385107, 0.644788, -4.428974, -9.193734, 0.045908, 0.846521, -0.153995, 45.249405, -44.875031, -250.484070, 13.726153, 100.771817
1759224755.404877, 0.548123, -3.736002, -8.627655, 0.061121, 1.087271, -0.133233, 45.621994, -44.921570, -250.248688, 13.726153, 100.771817
1759224755.425090, 0.603040, -3.849128, -7.987655, 0.064814, 1.143848, 0.092885, 45.135651, -44.502884, -250.397797, 13.726153, 100.771817
1759224755.445054, 0.242563, -3.693206, -7.349002, -0.003021, 1.156116, 0.487152, 44.799057, -44.590576, -250.501953, 13.726153, 100.771817
1759224755.465153, 0.667234, -4.613776, -7.285107, -0.275345, 0.655618, 0.572794, 44.021622, -44.857056, -250.194550, 13.726153, 100.771817
1759224755.485123, 1.442507, -5.253477, -7.471406, -0.400747, 0.683708, 0.168702, 43.571182, -44.870667, -250.235016, 13.726153, 100.771817
1759224755.505088, 1.960402, -5.154118, -6.847417, -0.336609, 1.109910, 0.242528, 42.974701, -45.143341, -250.545380, 13.726153, 100.771817
1759224755.525089, 1.565958, -4.891354, -7.327903, -0.729803, 0.705855, 0.566026, 42.530945, -45.387863, -250.998535, 13.726153, 100.771817
1759224755.545096, 2.041057, -4.854543, -8.467693, -0.645838, 0.792318, 0.544517, 41.815536, -45.423401, -251.395432, 13.726153, 100.771817
1759224755.564108, 2.175880, -4.836736, -8.831013, -0.305513, 0.620383, 0.527433, 41.412842, -45.362122, -251.357651, 13.726153, 100.771817
1759224755.585172, 2.163161, -3.634099, -8.404097, -0.435880, 0.993558, 0.548652, 40.294785, -45.473862, -251.978836, 13.726153, 100.771817
1759224755.605162, 2.131139, -3.852869, -7.448361, -0.763291, 1.571268, 0.640525, 40.129288, -45.872910, -252.562378, 13.726153, 100.771817
1759224755.625216, 2.417994, -3.518878, -8.464550, -1.071391, 1.324547, 0.633957, 39.099228, -46.163193, -253.372498, 13.726153, 100.771817
1759224755.645159, 2.122310, -3.013252, -9.781511, -1.232588, 2.045662, 0.571858, 38.131989, -46.238647, -253.986801, 13.726153, 100.771817
1759224755.664397, 2.150741, -3.618088, -8.939799, -1.238220, 3.180567, 0.367928, 37.823441, -46.414978, -254.925064, 13.726153, 100.771817
1759224755.685092, 1.791761, -2.676568, -8.450185, -1.240867, 2.837985, 0.113979, 37.441864, -46.127930, -255.704559, 13.726153, 100.771817
1759224755.705179, 1.739836, -3.660585, -7.245602, -0.915830, 1.614518, 0.071874, 37.555557, -46.530746, -257.047638, 13.726153, 100.771817
1759224755.725123, 2.735076, -2.559402, -5.992387, -0.553575, -0.629986, 0.077451, 37.189072, -46.136749, -257.348633, 13.726153, 100.771817
1759224755.745096, 3.658190, -3.082684, -7.537695, -0.828502, -1.294749, 0.675519, 36.680954, -46.759033, -258.281067, 13.726153, 100.771817
1759224755.764693, 1.257854, -3.084181, -10.685921, -0.603892, -0.515123, 0.876682, 35.893021, -46.570038, -258.594299, 13.726153, 100.771817
1759224755.785094, -0.619500, -3.561225, -10.661530, -0.109223, 0.190921, 0.485532, 35.388153, -46.606628, -259.251221, 13.726153, 100.771817
1759224755.805094, -0.207847, -2.868852, -8.824578, -0.041057, 0.383724, 0.000390, 35.351105, -46.468201, -259.131592, 13.726153, 100.771817
1759224755.825092, 0.261118, -2.264316, -6.702119, -0.304965, -0.237680, -0.176873, 35.634323, -46.632309, -259.744293, 13.726153, 100.771817
1759224755.845099, 0.115371, -1.874211, -7.026832, -0.602408, -0.967825, -0.032823, 35.860992, -46.287628, -259.525024, 13.726153, 100.771817
1759224755.865089, -0.913238, -1.555184, -7.153875, -0.714643, -1.095971, 0.049792, 35.829865, -46.494720, -260.703156, 13.726153, 100.771817
1759224755.885123, -1.587805, -0.982820, -5.130026, -1.486102, -0.345339, -0.040892, 35.296295, -46.514206, -261.739807, 13.726153, 100.771817
1759224755.905112, -2.969558, 1.409736, -6.590639, -1.894017, -0.147169, -0.226499, 35.979752, -46.257538, -263.512268, 13.726153, 100.771817
1759224755.925203, -1.213561, 2.283919, -8.241141, -1.630647, -0.362259, -0.356801, 36.271973, -46.558105, -264.756134, 13.726153, 100.771817
1759224755.945130, -1.315165, 2.209250, -5.499182, -1.142813, -0.599490, 0.024221, 35.836273, -46.263138, -266.163147, 13.726153, 100.771817
1759224755.964925, 0.467917, 3.714005, -1.977012, -2.092741, 0.090758, 0.173062, 36.130539, -45.365845, -268.181976, 13.726153, 100.771817
1759224755.985166, -0.154426, 4.416105, -3.295469, -3.355146, 1.464208, 0.104816, 35.989166, -45.253830, -270.473694, 13.726153, 100.771817
1759224756.005179, 1.993173, 6.206968, -5.935974, -3.918103, 2.733722, 0.173354, 36.680161, -44.247345, -273.412781, 13.726153, 100.771817
1759224756.025091, 2.375946, 7.545626, -6.576273, -3.901019, 3.159493, 0.476279, 37.168091, -43.078918, -277.362427, 13.726153, 100.771817
1759224756.045102, 1.055394, 7.807342, -4.351611, -4.111867, 3.590937, 0.248820, 38.258194, -41.372162, -280.488037, 13.726153, 100.771817
1759224756.065164, 4.282927, 9.025841, -6.043115, -4.713210, 3.834364, -0.472937, 40.520279, -39.425720, -284.673737, 13.726152, 100.771818
1759224756.085133, 7.809287, 9.749488, -8.309226, -4.497586, 4.285960, -0.641173, 43.163971, -37.276718, -286.660248, 13.726152, 100.771818
1759224756.105299, 8.123975, 9.276783, -4.635174, -4.349439, 4.759985, -0.756014, 46.398346, -34.947372, -288.750732, 13.726152, 100.771818
1759224756.125218, 9.230994, 9.107543, -5.707926, -4.637858, 3.565442, -1.027101, 48.613998, -31.963547, -290.728119, 13.726152, 100.771818
1759224756.145119, 12.165238, 6.776937, -9.027637, -3.925095, 2.323224, -1.326266, 50.961868, -28.986526, -292.737396, 13.726152, 100.771818
1759224756.165037, 16.367660, 7.631817, -8.463952, -3.092887, 2.767403, -1.529299, 53.605057, -26.280319, -292.749786, 13.726152, 100.771818
1759224756.184955, 19.208081, 6.626252, -4.288015, -2.727017, 3.671332, -1.261793, 56.336700, -24.607147, -292.802643, 13.726152, 100.771818
1759224756.205314, 20.699819, 6.383391, -3.634248, -3.233571, 3.081428, -0.605139, 58.625854, -22.380707, -292.837219, 13.726152, 100.771818
1759224756.225206, 21.149629, 5.426159, -7.199813, -3.050689, 1.438531, 0.289014, 59.306915, -20.743195, -293.350128, 13.726152, 100.771818
1759224756.245285, 18.315493, 2.860472, -6.612635, -2.259224, 0.670187, 0.707668, 59.743744, -19.681015, -293.541138, 13.726152, 100.771818
1759224756.265097, 17.222690, 1.711705, -5.770924, -2.265794, 0.492342, 0.773205, 59.482330, -18.611130, -294.492889, 13.726152, 100.771818
1759224756.285111, 17.648409, 2.286762, -7.504326, -2.091628, 0.129435, 1.440440, 59.055603, -17.557495, -295.112183, 13.726152, 100.771818
1759224756.305118, 13.238140, 2.192041, -9.230246, -1.471451, 0.525331, 1.948482, 58.851959, -17.951843, -295.242310, 13.726152, 100.771818
1759224756.325115, 10.943597, 1.837550, -8.175600, -0.663549, 0.904471, 1.857558, 58.748764, -18.886292, -295.052490, 13.726152, 100.771818
1759224756.345109, 9.459042, 2.292897, -9.071181, 0.194216, 0.826918, 2.075526, 58.496140, -19.552521, -294.298218, 13.726152, 100.771818
1759224756.365094, 6.035782, 3.172018, -5.915923, 1.209829, -0.026612, 2.218396, 57.807068, -21.505432, -293.875732, 13.726152, 100.771818
1759224756.385098, 3.932327, 3.662231, -3.382408, 0.689145, -0.043443, 1.634817, 57.509735, -22.891998, -293.336792, 13.726152, 100.771818
1759224756.405098, 3.929633, 4.632032, 1.819743, -0.865256, 0.165362, 0.928585, 56.914078, -22.840103, -293.873474, 13.726152, 100.771818
1759224756.425113, 7.109133, 3.750816, -0.739509, -0.861465, -0.393796, 0.864730, 56.739868, -22.965256, -294.096313, 13.726152, 100.771818
1759224756.445103, 4.042011, 3.583372, -2.719813, -0.550835, -0.430926, 0.436401, 55.803513, -22.540253, -295.497498, 13.726152, 100.771818
1759224756.465104, 1.760636, 3.321057, -0.354342, -0.674442, -0.265016, -0.502764, 55.394730, -22.079361, -294.608093, 13.726152, 100.771818
1759224756.485117, 5.163545, 6.733692, 0.032172, -0.824349, 0.937784, -0.587034, 56.045105, -21.235123, -294.919189, 13.726152, 100.771818
1759224756.505109, 15.642666, 11.106253, 1.297657, -0.830264, 0.451548, 0.522330, 56.619522, -20.711838, -294.365692, 13.726152, 100.771818
1759224756.525099, 8.855553, 7.114221, 1.609203, -1.069632, 0.245568, 0.339049, 56.357391, -20.213547, -294.518463, 13.726152, 100.771818
1759224756.545103, 3.109619, 1.722478, 0.221464, -1.245012, 0.743873, -0.982394, 57.241440, -19.271896, -295.186829, 13.726152, 100.771818
1759224756.565097, 1.553687, 2.937835, -0.895880, -1.531576, 0.896161, -2.412769, 58.684784, -17.271515, -295.196136, 13.726152, 100.771818
1759224756.585101, 6.713641, 8.411728, -4.204218, -0.173590, 0.713876, -3.383123, 60.223724, -15.528458, -294.483398, 13.726152, 100.771818
1759224756.605103, 13.324480, 10.907384, -0.692822, 1.004635, -1.166224, -2.863869, 60.241425, -14.279449, -294.743103, 13.726152, 100.771818
1759224756.625103, 14.792575, 10.545261, 1.782633, 0.854571, -2.175774, -1.922339, 59.364227, -14.327240, -295.865601, 13.726152, 100.771818
1759224756.645098, 9.815030, 3.873519, 2.265813, 0.070477, -1.889375, -2.107025, 58.096924, -13.114761, -296.258728, 13.726152, 100.771818
1759224756.664124, 6.606351, 4.693234, -0.006734, -0.560163, -0.634214, -2.694494, 58.139954, -11.701920, -296.993835, 13.726152, 100.771818
1759224756.685226, 8.308329, 6.869264, -3.073257, 0.080500, 0.264340, -2.109349, 58.333954, -10.829514, -296.855896, 13.726152, 100.771818
1759224756.705287, 8.513033, 7.443274, -2.513612, 0.634450, 0.000124, -1.314905, 59.259384, -10.470367, -297.021057, 13.726152, 100.771818
1759224756.725294, 6.882881, 7.911639, -1.051952, 0.673313, 0.008972, -1.143489, 59.071579, -10.703918, -296.353729, 13.726152, 100.771818
1759224756.745285, 4.661810, 4.580108, 0.061950, 0.226293, 0.227680, -1.476887, 59.743164, -10.157776, -296.094421, 13.726152, 100.771818
1759224756.764386, 4.745457, 4.900632, -0.181062, -0.237753, 0.615115, -1.883846, 60.035812, -8.783554, -296.628632, 13.726152, 100.771818
1759224756.785202, 6.890812, 8.171410, -0.852336, -0.060675, 0.803854, -1.559420, 60.827316, -8.280548, -296.259155, 13.726152, 100.771818
1759224756.805100, 7.518691, 8.332720, -0.360627, 0.119987, -0.294078, -2.000682, 61.013016, -7.473648, -296.038818, 13.726152, 100.771818
1759224756.825153, 5.334581, 5.912481, 0.413149, -0.205629, -1.441896, -2.624756, 60.252762, -5.985565, -297.066406, 13.726152, 100.771818
1759224756.845103, 2.833089, 6.009596, -0.976535, -0.692336, -1.313345, -2.540143, 59.448471, -4.213150, -297.096039, 13.726152, 100.771818
1759224756.864527, 1.451634, 5.607370, 0.536900, -1.980131, -0.940076, -2.171459, 58.807159, -2.240219, -297.920380, 13.726152, 100.771818
1759224756.885197, 2.198625, 9.382727, 0.187197, -2.372944, 0.391215, -1.406668, 59.168655, 0.898865, -297.265442, 13.726152, 100.771818
1759224756.905312, 1.817498, 11.845462, 0.972196, -1.999387, 2.266612, -1.306467, 60.166138, 2.692383, -297.108246, 13.726152, 100.771818
1759224756.925144, 2.457798, 11.725303, 1.109114, -1.677656, 2.675876, -1.618961, 61.820969, 4.756851, -295.126251, 13.726152, 100.771818
1759224756.945289, 2.000505, 9.401132, 1.112855, -1.541157, 2.351789, -2.176048, 63.316010, 6.614792, -293.746338, 13.726152, 100.771818
1759224756.964881, 1.405396, 8.762479, 1.048960, -1.065444, 2.216523, -2.624519, 64.077942, 8.879120, -291.422424, 13.726152, 100.771818
1759224756.985188, 1.666514, 8.268375, -0.131831, 0.583409, 1.066299, -2.524512, 64.873688, 10.243439, -291.446777, 13.726152, 100.771818
1759224757.005140, 1.557877, 7.862558, 0.628777, 1.081775, -0.704034, -2.441065, 63.442978, 10.986847, -291.928986, 13.726152, 100.771818
1759224757.025109, 0.368109, 6.201282, 0.931195, 0.651576, -1.466527, -2.695065, 62.106934, 11.369202, -292.473999, 13.726152, 100.771818
1759224757.045329, 0.612916, 4.484639, 0.325911, 0.419180, -1.070933, -2.585541, 60.556351, 12.732483, -293.127380, 13.726152, 100.771817
1759224757.064984, 0.732177, 3.667169, 0.373495, 0.224072, -0.807194, -2.273787, 58.887955, 13.573090, -294.350098, 13.726152, 100.771817
1759224757.085185, 0.945410, 4.442591, 0.286556, 0.231505, -0.790966, -2.016249, 58.203735, 14.500092, -293.955383, 13.726152, 100.771817
1759224757.105158, 0.939425, 13.177985, 0.319776, 0.621347, -1.346429, -2.270172, 56.540771, 14.927139, -294.772644, 13.726152, 100.771817
1759224757.125246, -0.180613, 22.366782, 1.107767, 1.003404, -2.703806, -1.703407, 54.078445, 15.055206, -296.584473, 13.726152, 100.771817
1759224757.145303, 3.575142, 29.574226, 2.466327, 0.966522, -2.468724, 0.840961, 52.428391, 14.194199, -297.866211, 13.726152, 100.771817
1759224757.165306, -0.834828, 15.976957, 2.279280, -0.333683, 0.101828, 0.931881, 52.940201, 14.253632, -297.992279, 13.726152, 100.771817
1759224757.185151, -2.173337, 8.597429, 1.093701, -0.864623, 1.319194, 0.499449, 53.840591, 14.639481, -297.507965, 13.726152, 100.771817
1759224757.205146, -2.035820, 6.847117, 0.356287, -0.582782, 1.375043, 0.313547, 55.003738, 14.566360, -296.415527, 13.726152, 100.771817
1759224757.225112, -2.242918, 9.014319, -0.070479, -0.061546, 0.780908, 0.239051, 55.537552, 14.497559, -295.874725, 13.726152, 100.771817
1759224757.245106, -2.469469, 9.830143, 0.077363, -0.000742, 0.205398, 0.076850, 55.991165, 15.003250, -295.394226, 13.726152, 100.771817
1759224757.265113, -1.909974, 9.571420, 0.110732, -0.005280, -0.261209, -0.055661, 55.893372, 14.772293, -295.919464, 13.726152, 100.771817
1759224757.285121, -1.756745, 9.772533, 0.631620, 0.107962, -0.375112, -0.115608, 55.065186, 14.594528, -295.858917, 13.726152, 100.771817
1759224757.305114, -1.919701, 10.099640, 1.232116, 0.082270, -0.197956, -0.219244, 55.485321, 14.397644, -296.411621, 13.726152, 100.771817
1759224757.325116, -1.689109, 10.182540, 1.451036, -0.029465, -0.050170, -0.285551, 54.376831, 14.617035, -296.077332, 13.726152, 100.771817
1759224757.345111, -1.270723, 9.436447, 1.383998, -0.168581, -0.040436, -0.340476, 54.840546, 15.168976, -296.122253, 13.726152, 100.771817
1759224757.365112, -0.258574, 8.558523, 0.929698, -0.238835, -0.028475, -0.290011, 54.521255, 15.072937, -295.976410, 13.726152, 100.771817
1759224757.385124, 0.306607, 8.932766, 0.707936, -0.272712, 0.096218, -0.232048, 54.565155, 15.242645, -295.164062, 13.726152, 100.771817
1759224757.405133, 0.645387, 9.473257, 0.575357, -0.246322, 0.326787, -0.224338, 54.550003, 15.453522, -295.313904, 13.726152, 100.771817
1759224757.425120, 0.703446, 10.282498, 0.576105, -0.200163, 0.479390, -0.281280, 54.858368, 15.882294, -295.201782, 13.726152, 100.771817
1759224757.445111, 1.078289, 10.353426, 0.568324, -0.058635, 0.556154, -0.219911, 55.160492, 16.116074, -295.253845, 13.726152, 100.771817
1759224757.465111, 1.190966, 10.274417, 0.587178, 0.097751, 0.386157, -0.086302, 55.567780, 15.884567, -294.754028, 13.726152, 100.771817
1759224757.484514, 0.859069, 10.267983, 0.794127, 0.155706, -0.028179, -0.030171, 55.297836, 15.749405, -295.174561, 13.726152, 100.771817
1759224757.505116, 0.895132, 9.300426, 0.645387, 0.239510, -0.464753, 0.106765, 55.149170, 15.553726, -295.415955, 13.726152, 100.771817
1759224757.525112, -0.446519, 10.187328, 1.264288, 0.241050, -0.620490, 0.040990, 55.033020, 15.376251, -295.536865, 13.726152, 100.771817
1759224757.545123, -0.928352, 9.299977, 1.439065, 0.110200, -0.406354, -0.077617, 54.599838, 15.141876, -295.772247, 13.726152, 100.771817
1759224757.565121, -1.247379, 9.025093, 1.581071, -0.041962, 0.063232, -0.064790, 54.721161, 15.438858, -295.807159, 13.726152, 100.771817
1759224757.585137, -1.168520, 9.202713, 1.544410, -0.227930, 0.403683, -0.020312, 54.828644, 15.994675, -295.600159, 13.726152, 100.771817
1759224757.605127, -0.925060, 9.458144, 1.021576, -0.297832, 0.476958, -0.089885, 54.781525, 15.882736, -295.632721, 13.726152, 100.771817
1759224757.625130, 0.125696, 9.791237, 0.504129, -0.308421, 0.455291, -0.038514, 55.492462, 15.976501, -294.386139, 13.726152, 100.771817
1759224757.645109, 0.470461, 10.431986, 0.061501, -0.311848, 0.492539, 0.060365, 55.594330, 16.307281, -294.531982, 13.726152, 100.771817
1759224757.665113, 0.655862, 10.519524, -0.464774, -0.294849, 0.566010, 0.158858, 56.411758, 16.575500, -294.414673, 13.726152, 100.771817
1759224757.684834, 0.344915, 10.309283, -1.304840, -0.189855, 0.545398, 0.307940, 56.786804, 16.370087, -293.808472, 13.726152, 100.771817
1759224757.705119, -0.112079, 9.832088, -2.639607, 0.088108, 0.435992, 0.425688, 57.292770, 16.176910, -293.857666, 13.726152, 100.771817
1759224757.725129, -0.124798, 9.420884, -3.973627, 0.606334, 0.258260, 0.535201, 57.458725, 15.325058, -294.370758, 13.726152, 100.771817
1759224757.745129, 0.533009, 9.219771, -4.481646, 1.194725, 0.070991, 0.690614, 57.834244, 14.280502, -294.708130, 13.726152, 100.771817
1759224757.765118, 1.651850, 9.798121, -4.382437, 1.649488, 0.170369, 0.891550, 58.308472, 12.864090, -294.300232, 13.726152, 100.771817
1759224757.785038, 1.495628, 10.481216, -1.545756, 1.760264, 0.633051, 0.917063, 58.853317, 11.348785, -294.748138, 13.726152, 100.771817
1759224757.805120, 2.155230, 12.030564, 2.142062, 1.362662, 0.880097, 0.984841, 59.501862, 9.926987, -295.003113, 13.726152, 100.771817
1759224757.825228, 2.804658, 12.776956, 3.297863, 0.780827, 1.571722, 1.068970, 61.396957, 8.589355, -294.383179, 13.726152, 100.771817
1759224757.845324, 2.460491, 12.381913, 1.639579, 0.409221, 2.628761, 1.189944, 63.101578, 7.945251, -292.827881, 13.726152, 100.771817
1759224757.865173, -1.243040, 11.794735, -2.391957, 0.568903, 3.058811, 1.109565, 65.228455, 7.039734, -291.518066, 13.726152, 100.771817
1759224757.885171, -4.134786, 10.960356, -4.608689, 0.744922, 1.057838, 0.654752, 65.827820, 6.486801, -291.597168, 13.726152, 100.771817
1759224757.905204, -2.025345, 9.687538, -2.983175, 0.770559, -1.885453, 0.408354, 64.938629, 5.767593, -292.883789, 13.726152, 100.771817
1759224757.925222, 1.725172, 9.817274, -3.098845, 0.761745, -1.311531, 0.560544, 63.908295, 4.984268, -293.537231, 13.726152, 100.771817
1759224757.945197, 2.551321, 9.245359, -0.937180, 0.782629, -0.136442, 0.558816, 63.803711, 4.250183, -293.487122, 13.726152, 100.771817
1759224757.965152, 3.165584, 8.939949, 0.313940, 0.621516, -0.194022, 0.572308, 63.578384, 3.179977, -293.271667, 13.726152, 100.771817
1759224757.985167, 3.613299, 9.117718, -0.455647, 0.547991, -0.359695, 0.787606, 63.530869, 2.577545, -294.301208, 13.726152, 100.771817
1759224758.005166, 3.084330, 8.997410, -1.686865, 0.594342, -1.017367, 0.747913, 62.812653, 1.541611, -294.696381, 13.726152, 100.771817
1759224758.025160, 3.053655, 8.593089, -2.694524, 0.720150, -1.777730, 0.798532, 61.746216, 0.673233, -295.313110, 13.726152, 100.771817
1759224758.045165, 2.170344, 8.721328, -2.977489, 0.778513, -2.121403, 0.942156, 60.431198, -0.455795, -297.024261, 13.726155, 100.771814
1759224758.065167, 1.260248, 8.866327, -3.108123, 0.812371, -2.321049, 1.006748, 58.354370, -1.652878, -297.512085, 13.726155, 100.771814
1759224758.085130, 0.359878, 8.640524, -3.434931, 0.886717, -2.082417, 0.864266, 56.978729, -2.331558, -298.766541, 13.726155, 100.771814
1759224758.105123, -0.212036, 8.053795, -3.792715, 0.846266, -1.047567, 0.498815, 56.025681, -3.293655, -299.451904, 13.726155, 100.771814
1759224758.125218, -0.440982, 7.081151, -3.906739, 0.603588, -0.248720, 0.302822, 55.241623, -4.207458, -299.827301, 13.726155, 100.771814
1759224758.145320, 0.027982, 6.443395, -4.071789, 0.286493, 0.327097, 0.116295, 55.339417, -4.518219, -299.287964, 13.726155, 100.771814
1759224758.165168, 1.026664, 6.345233, -4.502895, 0.002091, 0.619758, -0.040318, 55.859177, -4.761230, -299.349243, 13.726155, 100.771814
1759224758.185258, 2.245462, 6.910564, -4.970512, -0.207222, 0.639769, -0.193593, 55.969910, -4.486160, -299.496155, 13.726155, 100.771814
1759224758.205316, 2.680309, 7.706636, -4.834492, -0.320003, 0.544869, -0.421926, 56.638336, -4.072906, -299.031982, 13.726155, 100.771814
1759224758.225207, 1.433079, 7.680749, -3.381511, -0.392297, 0.573314, -0.648243, 56.917160, -3.418442, -298.987854, 13.726155, 100.771814
1759224758.245308, -0.427814, 6.482301, -1.661875, -0.495339, 0.948913, -0.814380, 57.941345, -2.565201, -297.249023, 13.726155, 100.771814
1759224758.265167, -3.701885, 4.205116, 0.457592, -0.999437, 1.338800, -1.131392, 58.758026, -1.880753, -297.567047, 13.726155, 100.771814
1759224758.285186, -8.311770, 4.178929, -3.522768, -1.569945, 2.158902, -1.559466, 59.906326, 0.023987, -297.075653, 13.726155, 100.771814
1759224758.305295, -7.401076, 11.291055, -5.442918, -1.419739, 2.837157, -1.436537, 61.752396, 1.477402, -295.633667, 13.726155, 100.771814
1759224758.325163, 0.105195, 17.406894, 5.994782, -1.406149, 4.750842, -0.803228, 64.278000, 3.264084, -293.239502, 13.726155, 100.771814
1759224758.345250, 1.045518, 12.724434, -0.863708, -0.616034, 6.069761, -0.636575, 67.995056, 3.972565, -288.934143, 13.726155, 100.771814
1759224758.365169, 1.272369, 9.467571, -0.029329, -0.930033, 3.732417, -0.546411, 70.950058, 4.610687, -286.371521, 13.726155, 100.771814
1759224758.385160, 2.140865, 8.082675, 3.893720, -1.419197, 2.013587, -0.474463, 71.708267, 5.902374, -283.949036, 13.726155, 100.771814
1759224758.405332, 2.435053, 9.039608, 1.370980, -1.198261, 2.737383, -0.558852, 72.966385, 6.527664, -282.140747, 13.726155, 100.771814
1759224758.425203, -0.249596, 10.320506, 1.143082, -0.706052, 3.192874, -1.239892, 74.054382, 7.441940, -279.940186, 13.726155, 100.771814
1759224758.445245, -1.490540, 9.982175, 2.995745, -0.127309, 1.781316, -2.005570, 74.293335, 9.142822, -278.361267, 13.726155, 100.771814
1759224758.465169, 0.385018, 10.489147, 2.290353, 0.857691, -0.194865, -2.640574, 74.272476, 11.083054, -278.279724, 13.726155, 100.771814
1759224758.484431, 4.946271, 16.477943, 0.273238, 0.766726, 0.002640, -3.145438, 73.492599, 12.674973, -277.938232, 13.726155, 100.771814
1759224758.505152, 8.937854, 25.571720, 4.535516, -1.069434, -0.534778, -2.900300, 72.649048, 15.087006, -278.132874, 13.726155, 100.771814
1759224758.524346, 10.369587, 23.957579, 5.062539, -1.931828, -2.290181, -1.994740, 70.770279, 17.157028, -278.804260, 13.726155, 100.771814
1759224758.545335, 8.653692, 18.968063, 1.675043, -2.092567, -2.340071, -1.715060, 69.054428, 19.288086, -279.481689, 13.726155, 100.771814
1759224758.565259, 8.959103, 15.866374, 0.064195, -2.253615, 0.270864, -1.268717, 67.970596, 20.761627, -279.125122, 13.726155, 100.771814
1759224758.584449, 10.926388, 11.656769, 1.418714, -1.884835, 2.984231, -0.340127, 68.435486, 22.102661, -276.070038, 13.726155, 100.771814
1759224758.605130, 9.067740, 13.145813, -3.200748, -1.217914, 5.042372, -0.037933, 69.850769, 22.248764, -272.675781, 13.726155, 100.771814
1759224758.625196, 5.586421, 12.141894, -10.615292, -0.888081, 2.542383, 0.086298, 70.644318, 22.487946, -269.655701, 13.726155, 100.771814
1759224758.645314, 7.808539, 5.422567, -12.079196, 0.280474, -2.117198, 0.646001, 70.466553, 22.130981, -270.216614, 13.726155, 100.771814
1759224758.665269, 5.172224, 2.650232, -4.072387, 0.941439, -1.671435, 1.022735, 70.420502, 21.101578, -272.416504, 13.726155, 100.771814
1759224758.684694, 1.590498, 1.977311, -2.195034, 1.200594, 0.039704, 0.981526, 70.818298, 20.002182, -273.133423, 13.726155, 100.771814
1759224758.705327, 0.874333, -0.386664, -1.787571, 1.288879, 0.735234, 0.990270, 71.785019, 19.382202, -273.892548, 13.726155, 100.771814
1759224758.725184, -0.195726, -2.182913, -0.893486, 1.356985, 0.062407, 0.976008, 72.211029, 18.053635, -273.520081, 13.726155, 100.771814
1759224758.745221, 0.353893, -3.260154, -1.019182, 1.918666, -0.944256, 1.217912, 72.249802, 17.060349, -274.921356, 13.726155, 100.771814
1759224758.765365, 1.642871, 0.841861, 0.194230, 2.325991, -1.981021, 1.881499, 72.590652, 15.127716, -277.348053, 13.726155, 100.771814
1759224758.784964, 2.410662, 3.786430, 1.464054, 2.144306, -2.423347, 2.539824, 72.510178, 12.590607, -279.189697, 13.726155, 100.771814
1759224758.805363, 8.484153, 16.715717, 2.681506, 1.209615, -2.158288, 4.208279, 72.048553, 9.162125, -281.676727, 13.726155, 100.771814
1759224758.825197, 12.683882, 31.014039, 3.944298, 0.131598, 0.385938, 4.782446, 72.498062, 5.064850, -281.965088, 13.726155, 100.771814
1759224758.845336, 4.883573, 46.513353, 6.309320, -0.743040, 3.938615, 1.726643, 74.828308, 3.777542, -279.519470, 13.726155, 100.771814
1759224758.865161, 3.551499, 24.983195, -0.509815, -0.646927, 1.747751, 2.860962, 75.976059, 1.678802, -277.593781, 13.726155, 100.771814
1759224758.885033, 2.100164, 23.649026, -5.844546, 0.082480, -2.448989, 3.828042, 75.128967, -1.044907, -278.554749, 13.726155, 100.771814
1759224758.905171, -3.930232, 23.426515, -2.930802, 0.562741, -2.746615, 2.090448, 74.091660, -2.933456, -281.256165, 13.726155, 100.771814
1759224758.925170, -0.504728, 16.730681, 1.352724, 0.665675, -3.613642, 0.672274, 72.448013, -4.236679, -283.402069, 13.726155, 100.771814
1759224758.945230, 0.931943, 8.943989, -0.070330, 0.964424, -4.630283, -0.214869, 69.925415, -4.499481, -286.197815, 13.726155, 100.771814
1759224758.965152, -2.398840, 5.388600, 1.950377, 0.652327, -4.127709, -0.872131, 67.468689, -4.448898, -289.016449, 13.726155, 100.771814
1759224758.985218, -5.472846, 0.214880, 4.142867, -0.161810, -2.846458, -1.017602, 65.618652, -3.916611, -290.628174, 13.726155, 100.771814
1759224759.005271, -5.899014, -2.965069, 3.005471, -0.917443, -1.229747, -0.842142, 64.595642, -2.580688, -291.533386, 13.726155, 100.771814
1759224759.025208, -5.515343, -4.838382, 1.270423, -1.188776, 0.465925, -0.687616, 64.651688, -1.426331, -291.306244, 13.726155, 100.771814
1759224759.045144, -5.109077, -6.672490, -0.104746, -1.436494, 1.540978, -0.164510, 65.250839, -0.388214, -290.470764, 13.726150, 100.771816
1759224759.065142, -8.318055, -6.023512, -6.443694, -1.328870, 2.001649, -0.060305, 66.541245, 0.246017, -288.894653, 13.726150, 100.771816
1759224759.085217, -2.170344, 0.919523, -8.540117, -0.550649, 2.864889, -0.996451, 68.196854, 1.353302, -288.194580, 13.726150, 100.771816
1759224759.104259, 3.320010, 3.729119, -5.147683, -0.418556, 3.429177, -0.421628, 69.826157, 2.058319, -285.562866, 13.726150, 100.771816
1759224759.125145, 3.497779, 9.112332, 7.163002, -0.734306, 2.773548, 0.530582, 71.077957, 2.033997, -283.011475, 13.726150, 100.771816
1759224759.145079, 0.803404, 6.549189, -0.831835, -0.071358, 2.295479, 0.323929, 72.055222, 2.046127, -281.046204, 13.726150, 100.771816
1759224759.165240, -0.148141, 13.673435, -3.269133, 0.088472, 4.010485, 0.522960, 73.338974, 1.694092, -278.588776, 13.726150, 100.771816
1759224759.184649, -3.096002, 26.823139, 5.286547, 1.252624, 0.258384, 0.344622, 73.500229, 0.985214, -278.239685, 13.726150, 100.771816
1759224759.204439, -8.253412, 23.945458, 5.766435, 0.474563, 0.072334, -1.672444, 73.280304, 1.615662, -278.517273, 13.726150, 100.771816
1759224759.225262, -4.124611, 8.449886, 4.317344, -0.992308, 1.696234, -1.542161, 73.808121, 3.222992, -276.862885, 13.726150, 100.771816
1759224759.245165, -5.724237, 9.490017, 4.295946, -0.997000, 1.622704, -1.471316, 73.949905, 4.327118, -275.819397, 13.726150, 100.771816
1759224759.265217, -4.723311, 15.378107, 2.215684, -0.539929, -0.176858, -2.724433, 73.725845, 6.631287, -275.327362, 13.726150, 100.771816
1759224759.284284, -0.849343, 22.178986, 2.992004, 0.121267, -1.657578, -3.520809, 72.215652, 9.108704, -276.900940, 13.726150, 100.771816
1759224759.305154, 7.211635, 28.611308, 4.812345, -0.030411, -2.721945, -3.510291, 70.003525, 11.827850, -278.196228, 13.726150, 100.771816
1759224759.325335, 15.081226, 23.700950, 4.776432, -1.788766, -3.116390, -2.584344, 68.088913, 13.969452, -279.980133, 13.726150, 100.771816
1759224759.345343, 15.740380, 14.500482, 1.191415, -3.227083, -1.160825, -2.670953, 66.877731, 17.066650, -279.513977, 13.726150, 100.771816
1759224759.365193, 16.889147, 10.989386, -0.431555, -2.986700, 1.838153, -2.332893, 66.374191, 19.540604, -277.322540, 13.726150, 100.771816
1759224759.385157, 10.795006, 6.287024, -3.171868, -2.302221, 3.813707, -1.002784, 66.531708, 21.217987, -273.916443, 13.726150, 100.771816
1759224759.404820, 0.552612, 6.413318, -22.981642, -1.818495, 4.300388, -0.153945, 68.022156, 21.461121, -270.126953, 13.726150, 100.771816
1759224759.425236, 3.280056, 4.775235, -8.890120, 0.690312, -1.307685, -0.051943, 67.455994, 21.501984, -270.661835, 13.726150, 100.771816
1759224759.445317, 3.311779, 3.400814, 0.391003, 1.145915, -2.284938, -0.003218, 66.618530, 21.819122, -271.917236, 13.726150, 100.771816
1759224759.465176, 2.697966, 1.398064, 0.835576, 1.317388, -2.210271, 0.292559, 65.801163, 21.265808, -274.331909, 13.726150, 100.771816
1759224759.485190, 2.593519, -1.431882, 1.221342, 0.845393, -1.665352, 0.478469, 65.650116, 20.910049, -275.777588, 13.726150, 100.771816
1759224759.505184, 2.109591, -2.584092, -1.274463, -0.164237, 0.302233, 0.368928, 65.512634, 20.719009, -274.564697, 13.726150, 100.771816
1759224759.525238, 5.985205, -1.564312, -5.734712, 0.040062, 2.878801, 0.867658, 66.892395, 20.475922, -273.755981, 13.726150, 100.771816
1759224759.545266, 7.664139, 1.291971, -2.184410, 1.744677, 1.581232, 2.567830, 68.437424, 18.915161, -273.227966, 13.726150, 100.771816
1759224759.565178, 4.158429, 6.828113, 0.458789, 2.393098, -2.744619, 3.320680, 69.078354, 16.225967, -275.571655, 13.726150, 100.771816
1759224759.585201, 11.843966, 23.270144, 0.102951, 3.482768, -4.809160, 4.247443, 69.224136, 12.437637, -278.984955, 13.726150, 100.771816
1759224759.605341, 14.142848, 54.547396, 0.297031, 3.712385, -4.209373, 6.637074, 69.407852, 6.934113, -283.017761, 13.726150, 100.771816
1759224759.625221, -6.891261, 35.564818, 8.150910, 4.125336, 3.255692, 2.949719, 71.720016, 3.078003, -281.887756, 13.726150, 100.771816
1759224759.645328, -2.619257, 26.569204, 18.423382, 0.796597, 6.286600, 1.211858, 74.634750, 1.722458, -277.927948, 13.726150, 100.771816
1759224759.665149, -8.458714, 19.359066, 4.621258, -3.190638, 3.401287, 2.529979, 75.834213, 0.294754, -274.388672, 13.726150, 100.771816
1759224759.685200, -1.862988, 14.382119, -10.340258, -2.384242, 2.135568, 2.403560, 76.581451, -1.122177, -273.239441, 13.726150, 100.771816
1759224759.705177, -0.287603, 11.733234, -4.611981, -0.466133, -1.154094, 1.164772, 76.368759, -2.367950, -273.643005, 13.726150, 100.771816
1759224759.725230, -1.094749, 8.405892, -1.362600, 0.241727, -3.495166, 0.018755, 74.898621, -2.520294, -276.515442, 13.726150, 100.771816
1759224759.745339, -3.640384, 5.159056, 1.103428, 0.000217, -3.051873, -0.806159, 74.106796, -2.058273, -279.433563, 13.726150, 100.771816
1759224759.765283, -5.029619, 1.642572, 1.682376, -0.712315, -2.083921, -1.185386, 73.272400, -1.255905, -280.902710, 13.726150, 100.771816
1759224759.785356, -6.730101, 0.243011, 0.094571, -1.457792, -0.604277, -1.317575, 73.122314, 0.098282, -280.635559, 13.726150, 100.771816
1759224759.805210, -8.104223, -3.227384, -5.488707, -0.832673, 0.829514, -1.696101, 73.045227, 1.872406, -279.518066, 13.726150, 100.771816
1759224759.825194, -4.345476, -6.199037, -3.825934, 0.171728, 1.058641, -1.814723, 72.973785, 3.388885, -279.085571, 13.726150, 100.771816
1759224759.845183, 2.095375, -5.714361, -1.854160, 0.401899, 1.012642, -1.419994, 73.269409, 4.191315, -278.497559, 13.726150, 100.771816
1759224759.865197, 7.070078, 0.433799, -1.441758, -0.189935, 1.815281, 0.068004, 74.177765, 4.286438, -277.550690, 13.726150, 100.771816
1759224759.885167, 1.901894, 4.551228, 2.180669, -0.322244, 2.147236, 0.611664, 74.748444, 4.123596, -276.045105, 13.726150, 100.771816
1759224759.905186, 1.411083, 5.751770, 1.638681, 0.500123, 3.271564, 0.774013, 75.553391, 3.344498, -273.968506, 13.726150, 100.771816
1759224759.925153, -1.178396, 6.377405, -0.629076, -0.848951, 2.937392, 0.429989, 76.514679, 2.665634, -270.707275, 13.726150, 100.771816
1759224759.944744, -2.240374, 17.914315, -0.114024, -0.872622, 3.187534, 0.364743, 76.933014, 2.375214, -268.477966, 13.726150, 100.771816
1759224759.964492, -6.487838, 48.506226, 8.744373, 0.733898, 1.195292, -1.275632, 77.284607, 3.421280, -267.193085, 13.726150, 100.771816
1759224759.984376, -2.434155, 13.878140, 7.152378, 0.177467, 0.893458, -1.214879, 76.870209, 4.337234, -266.152985, 13.726150, 100.771816
1759224760.005154, -2.981829, 8.342296, -1.208473, -1.265161, 0.088864, -1.418837, 76.869522, 4.909561, -266.588867, 13.726150, 100.771816
1759224760.025157, -5.760748, 6.945130, -2.037915, 0.483357, 0.374898, -3.035666, 76.735764, 7.191177, -266.064880, 13.726150, 100.771816
1759224760.045156, -4.918588, 11.880478, -1.129165, 2.160179, 0.318316, -3.886485, 76.192947, 9.732773, -265.945160, 13.726150, 100.771816
1759224760.065176, -4.041712, 22.567595, 0.539593, 2.892499, -0.388433, -4.344466, 74.957275, 12.457565, -266.571777, 13.726127, 100.771819
1759224760.085252, 1.296759, 31.092749, 4.954202, 1.913402, -4.456855, -3.534845, 73.063995, 15.098770, -269.165009, 13.726127, 100.771819
1759224760.105227, 6.636577, 22.863878, 11.184812, -0.867734, -8.975281, -2.052834, 70.328934, 17.114029, -274.521606, 13.726127, 100.771819
1759224760.125368, 10.994922, 15.259145, 7.601590, -4.842864, -3.854298, -1.392691, 67.371597, 18.980179, -277.149170, 13.726127, 100.771819
1759224760.145208, 15.320646, 15.262287, 1.527052, -5.277835, 2.125769, -0.184504, 67.024979, 21.382980, -275.227844, 13.726127, 100.771819
1759224760.165350, 10.793061, 8.827272, -3.053505, -3.424754, 6.224249, -0.208440, 68.130676, 22.423782, -270.385193, 13.726127, 100.771819
1759224760.185240, 7.160758, 1.435623, -13.155540, -0.822848, 10.237865, -0.458976, 69.182266, 23.038116, -263.109985, 13.726127, 100.771819
1759224760.204183, 7.077559, 0.804901, -17.941399, -0.087992, -0.930269, 0.000688, 69.549164, 23.306213, -261.820374, 13.726127, 100.771819
1759224760.225354, 5.208586, -0.259322, -3.345897, 0.130166, -4.566133, 0.587683, 68.767334, 22.994919, -263.650818, 13.726127, 100.771819
1759224760.245270, 2.852841, -1.116895, -1.140239, 0.318113, -4.322368, 0.977604, 69.237320, 21.835800, -266.365143, 13.726127, 100.771819
1759224760.265355, 2.845060, -1.924938, -6.324134, 1.420149, -0.097147, 1.338163, 69.656128, 20.765427, -268.294434, 13.726127, 100.771819
1759224760.285190, 3.552397, -2.303072, -3.255516, 1.825102, 1.925573, 1.868429, 70.410370, 19.662140, -268.194275, 13.726127, 100.771819
1759224760.304386, 4.037073, 1.298106, -0.213832, 2.156456, 0.958354, 2.671693, 71.946732, 17.604401, -268.409241, 13.726127, 100.771819
1759224760.325175, 3.370886, 3.495834, 0.291045, 2.329794, -1.030944, 3.157212, 73.109055, 14.947571, -268.727936, 13.726127, 100.771819
1759224760.345168, 4.682610, 11.536311, 0.659453, 3.018642, -3.078871, 3.517031, 73.353806, 11.960785, -271.682861, 13.726127, 100.771819
1759224760.365159, 14.538490, 40.220194, 1.563863, 2.676210, -3.255310, 5.655493, 73.485733, 7.362885, -275.084167, 13.726127, 100.771819
1759224760.385174, 2.501641, 42.115354, 1.513285, 3.691736, 1.254597, 3.311059, 73.935196, 3.083130, -276.713989, 13.726127, 100.771819
1759224760.404543, -7.674763, 27.030387, 6.159383, 2.209827, 5.491988, 0.572823, 75.342316, 0.994431, -273.296509, 13.726127, 100.771819
1759224760.425178, -1.882142, 23.736714, 14.833725, -1.869926, 4.994162, 1.673504, 76.314240, 0.120087, -268.924347, 13.726127, 100.771819
1759224760.445239, -7.283012, 20.943728, 6.219388, -3.744555, 2.283092, 1.888604, 77.234879, -0.815140, -266.180695, 13.726127, 100.771819
1759224760.465357, -7.095815, 14.756812, 0.900669, -3.238480, 0.601030, 0.617782, 77.354996, -1.804718, -265.040619, 13.726127, 100.771819
1759224760.485214, 4.315100, 10.196456, -12.599337, -0.217663, -1.196094, 0.113504, 77.053101, -1.982224, -265.549042, 13.726127, 100.771819
1759224760.504821, 0.782754, 7.646182, -4.371962, 0.817338, -3.250031, -0.482533, 76.751358, -1.445129, -267.676636, 13.726127, 100.771819
1759224760.525184, -2.551770, 5.854721, 0.432153, 0.442982, -2.515826, -0.855150, 76.259338, -1.161407, -270.361145, 13.726127, 100.771819
1759224760.545183, -4.220678, 3.285294, 1.285088, -0.043247, -0.889632, -0.967198, 75.717712, -0.595398, -271.204346, 13.726127, 100.771819
1759224760.565163, -4.619911, 0.128688, 0.441730, -0.196731, -0.020792, -0.880060, 75.770569, 0.284225, -271.346741, 13.726127, 100.771819
1759224760.585177, -4.947468, -2.862118, -1.453580, 0.083476, -0.179774, -0.802749, 75.665634, 1.462845, -271.207886, 13.726127, 100.771819
1759224760.604947, -4.419846, -4.119374, -2.067692, 0.199100, 0.042278, -0.980030, 75.534958, 1.737686, -270.962006, 13.726127, 100.771819
1759224760.625174, -2.363077, -3.705027, -1.580772, 0.003704, 1.091594, -1.251530, 75.377045, 2.538254, -270.486267, 13.726127, 100.771819
1759224760.645155, 4.830451, -0.468964, 1.524658, -0.436977, 1.931301, -0.369473, 75.434464, 3.392593, -268.879333, 13.726127, 100.771819
1759224760.665163, 7.725789, 2.885163, 4.149900, -0.396461, 1.267244, 1.105756, 75.757690, 2.639130, -268.111023, 13.726127, 100.771819
1759224760.685176, 1.284340, 4.541801, 2.126350, 0.061128, 0.911666, 1.201545, 76.250549, 1.673737, -266.517273, 13.726127, 100.771819
1759224760.705152, -2.660856, 10.937012, -18.199674, -0.088940, 5.017530, 1.078876, 76.776428, 0.890793, -264.409363, 13.726127, 100.771819
1759224760.725212, 3.906290, 18.543241, 6.300342, 1.494287, 0.444988, 1.505655, 76.770401, -0.380371, -263.026306, 13.726127, 100.771819
1759224760.745189, -6.119729, 23.971346, 2.602647, 1.071741, -0.221023, -0.286847, 76.568710, -0.323578, -263.597260, 13.726127, 100.771819
1759224760.765165, -5.470900, 4.711340, 0.610521, 1.285413, 0.768057, -0.485602, 76.126556, 0.177963, -262.812256, 13.726127, 100.771819
1759224760.785177, -6.168212, 4.402787, 1.834407, 1.587550, 1.317665, -0.763632, 76.291534, 0.733505, -261.496429, 13.726127, 100.771819
1759224760.805176, -6.154295, 13.839982, 4.603002, 1.048522, -0.678741, -2.691011, 76.106186, 2.674103, -261.749390, 13.726127, 100.771819
1759224760.825167, -0.604386, 26.621128, 4.473865, 0.945442, -4.398059, -3.691941, 75.151154, 4.992599, -264.554871, 13.726127, 100.771819
1759224760.845187, 3.468600, 29.973160, 5.907094, 0.840115, -7.832756, -3.304133, 73.512787, 7.890594, -269.862244, 13.726127, 100.771819
1759224760.865381, 7.101950, 22.376957, 5.344008, -0.434243, -9.325060, -2.399273, 70.138870, 9.958603, -276.808655, 13.726127, 100.771819
1759224760.885213, 13.101520, 13.684509, 4.258985, -3.037705, -2.055073, -1.820671, 68.303543, 12.412735, -278.259369, 13.726127, 100.771819
1759224760.905357, 13.335554, 15.976657, 2.979734, -4.250050, 2.181798, -0.876190, 68.558716, 14.438248, -276.555603, 13.726127, 100.771819
1759224760.924256, 9.157821, 12.493543, 1.543213, -3.513802, 2.635568, -1.060038, 68.896912, 16.387589, -273.115601, 13.726127, 100.771819
1759224760.945164, 6.348974, 7.897873, -1.309179, -3.864514, 4.005889, -0.825885, 69.440598, 17.654541, -269.183502, 13.726127, 100.771819
1759224760.965172, 4.460098, 8.470536, -36.098725, -2.797583, 9.141961, -0.607877, 70.457184, 18.701279, -261.650635, 13.726127, 100.771819
1759224760.985180, 5.745635, 3.397223, -4.660762, 0.791199, -1.582476, 0.234174, 69.924408, 19.162460, -261.967285, 13.726127, 100.771819
1759224761.004884, 2.544288, 1.010652, 1.035193, 0.647581, -4.134553, 0.486490, 70.044281, 18.179596, -265.181335, 13.726127, 100.771819
1759224761.024449, 2.035221, -0.844405, -0.402376, 0.537694, -3.379183, 0.583741, 69.833450, 18.024200, -267.796234, 13.726127, 100.771819
1759224761.045162, 4.066851, -2.725499, -4.360440, 0.848138, 0.367572, 0.655127, 70.266586, 17.576248, -268.636230, 13.726105, 100.771822
1759224761.065182, 5.617396, -2.870049, -2.403030, 1.400865, 2.464652, 0.986998, 71.115082, 16.596176, -267.479370, 13.726105, 100.771822
1759224761.085233, 7.599196, -2.556858, -0.968754, 1.739005, 2.490084, 1.905349, 72.053986, 15.078400, -266.523590, 13.726105, 100.771822
1759224761.105368, 8.619874, 0.101454, 0.270694, 1.841057, 0.816198, 3.228730, 73.176727, 12.385040, -266.329590, 13.726105, 100.771822
1759224761.124666, 8.602067, 10.202292, -0.176273, 1.450426, -0.916482, 4.106101, 74.646011, 9.357925, -267.043274, 13.726105, 100.771822
1759224761.145262, 16.338331, 35.466806, -2.415001, 2.820560, -3.144528, 5.228136, 74.983261, 5.168106, -269.469391, 13.726105, 100.771822
1759224761.165385, 10.578032, 53.841405, 0.500388, 3.852095, -2.264285, 6.288290, 75.171829, -0.626495, -271.977905, 13.726105, 100.771822
1759224761.185219, -5.819706, 30.110378, 11.228955, 3.604722, 4.751984, 2.567307, 76.143234, -4.558014, -269.337402, 13.726105, 100.771822
1759224761.204320, -0.714071, 22.950219, 13.469030, 0.360572, 4.567102, 2.479720, 77.189484, -6.643539, -265.524475, 13.726105, 100.771822
1759224761.224800, -6.848763, 18.514361, 7.455843, -2.763944, 2.176330, 3.213319, 77.158524, -9.270386, -263.096771, 13.726105, 100.771822
1759224761.245164, -3.211522, 15.173552, -2.211345, -4.443899, -0.722188, 1.201051, 76.621338, -10.386047, -264.382935, 13.726105, 100.771822
1759224761.265193, 7.037008, 10.389339, -15.472079, -1.040162, -0.581521, 0.829563, 76.564240, -10.924225, -264.744263, 13.726105, 100.771822
1759224761.285197, -3.942352, 7.965659, -2.711433, 0.853256, -3.916543, 0.218259, 75.881104, -11.497955, -267.339355, 13.726105, 100.771822
1759224761.305132, -5.177311, 6.644209, 4.703409, 0.270458, -3.094038, -0.586511, 75.842285, -11.205505, -270.231232, 13.726105, 100.771822
1759224761.324985, -6.776638, 3.905691, 4.442740, -0.686912, -1.394226, -0.988154, 75.088791, -10.243103, -272.020752, 13.726105, 100.771822
1759224761.345189, -6.815843, 0.379182, 2.010980, -1.262604, 0.002447, -1.237920, 75.521179, -9.329239, -272.660706, 13.726105, 100.771822
1759224761.365176, -5.556942, -2.227206, -0.446519, -1.604906, 1.106409, -1.331401, 76.060654, -8.101654, -271.429321, 13.726105, 100.771822
1759224761.385255, -6.731597, -5.615750, -8.564508, -0.701424, 0.789644, -1.486353, 76.195923, -7.280289, -270.490845, 13.726105, 100.771822
1759224761.405198, -6.783372, -5.680393, -9.720159, 0.848718, 0.048679, -1.844023, 76.214249, -6.241699, -270.446869, 13.726105, 100.771822
1759224761.425181, -1.239149, -0.793678, -9.316138, 2.246534, 0.346931, -2.500591, 76.920578, -4.639740, -270.141449, 13.726105, 100.771822
1759224761.445204, 5.811925, 2.163909, 4.208707, 0.777413, 3.529009, -2.008737, 77.446747, -3.168900, -268.049805, 13.726105, 100.771822
1759224761.465373, 5.640290, 3.887136, 10.830321, -0.843277, 4.175635, -0.969515, 78.201920, -2.439407, -264.661377, 13.726105, 100.771822
1759224761.485265, 9.265411, 14.022091, 6.600964, -0.649874, 0.913653, 0.795284, 78.177246, -2.748535, -263.201294, 13.726105, 100.771822
1759224761.505198, 8.045864, 32.229546, 3.028964, 1.098110, -3.479299, 1.588957, 77.994553, -4.281967, -265.862366, 13.726105, 100.771822
1759224761.525206, 2.113332, 36.636074, 2.853589, 0.254822, -0.350843, -0.244273, 77.909531, -4.437881, -266.041687, 13.726105, 100.771822
1759224761.545187, -1.646014, 12.693159, -0.503231, -0.863280, 4.785823, -1.931370, 78.274139, -3.111710, -263.037048, 13.726105, 100.771822
1759224761.565391, -1.777994, 5.789479, 0.838569, -0.324209, 4.373654, -2.160057, 78.613358, -1.077209, -259.355896, 13.726105, 100.771822
1759224761.585278, -1.672948, 6.054487, 0.288352, 0.550929, 1.384771, -1.716164, 78.479279, 0.006470, -257.426819, 13.726105, 100.771822
1759224761.605200, -0.840814, 17.292421, 0.681899, 2.112124, -1.784762, -1.921168, 78.423920, 1.768967, -259.552856, 13.726105, 100.771822
1759224761.625200, 2.305467, 27.582550, 6.199935, 1.145054, -8.152371, -3.224153, 77.491531, 4.187271, -264.018463, 13.726105, 100.771822
1759224761.645265, 6.571335, 22.402994, 6.199636, -0.983835, -10.345262, -2.767156, 75.089767, 6.755386, -271.714294, 13.726105, 100.771822
1759224761.665377, 7.568221, 13.270461, 4.999991, -3.504234, -5.292669, -2.353802, 72.334213, 9.014572, -278.303925, 13.726105, 100.771822
1759224761.685247, 11.506683, 12.395530, 2.703652, -4.159155, 1.492229, -1.531350, 70.635498, 12.022385, -278.661926, 13.726105, 100.771822
1759224761.705382, 10.308684, 9.313594, 0.609474, -3.347877, 3.476812, -1.014111, 71.104828, 14.122238, -275.258759, 13.726105, 100.771822
1759224761.725175, 5.785888, 6.507141, -15.551537, -0.648173, 9.809761, -0.875495, 72.944305, 15.443756, -269.613678, 13.726105, 100.771822
1759224761.745251, 7.307403, 4.527735, -18.636615, -0.186009, -0.149489, -0.330215, 73.271606, 15.686569, -265.570190, 13.726105, 100.771822
1759224761.765210, 5.975628, -0.665139, -2.944120, -0.228963, -3.530860, 0.084179, 73.210983, 15.396927, -267.188843, 13.726105, 100.771822
1759224761.785221, 2.841618, -0.491560, -0.990002, 0.241911, -2.698164, 0.255183, 72.668091, 15.041885, -269.575012, 13.726105, 100.771822
1759224761.805245, 1.930475, -1.002123, -0.835127, 0.758922, -1.662770, 0.306479, 72.595901, 14.724304, -271.788574, 13.726105, 100.771822
1759224761.825182, 3.358466, -1.717690, -2.314445, 1.145989, -0.062138, 0.493770, 72.099701, 14.668854, -272.381226, 13.726105, 100.771822
1759224761.845250, 5.036502, -2.527678, -2.695123, 1.622945, 0.270574, 1.099303, 72.652756, 13.478287, -272.878754, 13.726105, 100.771822
1759224761.865379, 5.320814, 0.489165, 0.057760, 1.934906, -1.192493, 2.177193, 72.945206, 11.568665, -273.669067, 13.726105, 100.771822
1759224761.885314, 5.069572, 6.330419, 1.004517, 2.255603, -3.052454, 3.050487, 72.993484, 9.417572, -275.667664, 13.726105, 100.771822
1759224761.905208, 17.994371, 35.786431, -2.879626, 2.740638, -2.296819, 6.433160, 72.493729, 4.603226, -278.566772, 13.726105, 100.771822
1759224761.925172, 2.717419, 36.283677, -0.641047, 3.364526, -1.146257, 4.408998, 72.449829, -0.488007, -280.144958, 13.726105, 100.771822
1759224761.945226, -1.683423, 27.381587, 0.582390, 4.171053, 1.575717, 2.073603, 72.908829, -4.268936, -280.723877, 13.726105, 100.771822
1759224761.965381, -3.381959, 29.957149, 8.694094, 1.082993, 5.549066, 1.267055, 74.119751, -6.583984, -277.186035, 13.726105, 100.771822
1759224761.985292, -4.884920, 22.470181, 10.146477, -2.788922, 5.682625, 1.552418, 75.572220, -7.315399, -272.742523, 13.726105, 100.771822
1759224762.004423, -7.372944, 20.201825, 1.716493, -2.917424, 2.322319, 0.924619, 76.525772, -7.779633, -269.374573, 13.726105, 100.771822
1759224762.024295, 2.063951, 13.353360, -8.409783, -0.599965, -1.026140, 0.389832, 76.519470, -7.715927, -269.894226, 13.726105, 100.771822
1759224762.045206, 7.689428, 8.778640, -3.775806, 0.534514, -3.150451, 0.034267, 76.017853, -8.202759, -271.031433, 13.726081, 100.771820
1759224762.065387, 2.447772, 5.518934, 0.635062, 0.478487, -2.301534, -0.438452, 75.485428, -8.038605, -273.384552, 13.726081, 100.771820
1759224762.085277, -4.116530, 4.469675, 2.040309, -0.093924, -0.668640, -0.936565, 75.046814, -7.445175, -274.862000, 13.726081, 100.771820
1759224762.105183, -7.526771, 2.222418, 2.107197, -0.751057, 0.566892, -1.081063, 74.883057, -6.895660, -274.749451, 13.726081, 100.771820
1759224762.124423, -7.803002, -0.815525, 0.555904, -0.934523, 1.302632, -0.618976, 75.640259, -5.655396, -273.710693, 13.726081, 100.771820
1759224762.145182, -7.411999, -3.212869, -3.149722, -0.262799, 0.161800, -0.562384, 75.733643, -5.078461, -273.287964, 13.726081, 100.771820
1759224762.165395, -6.203975, -4.321235, -3.495684, 0.160328, -0.574363, -0.823399, 75.747177, -4.493011, -273.803711, 13.726081, 100.771820
1759224762.185253, 2.709787, -4.406827, -0.417639, -0.098805, 2.171944, -0.757361, 76.098053, -4.132004, -272.638062, 13.726081, 100.771820
1759224762.205319, 12.684929, -1.057788, 5.043835, -1.205340, 4.137407, 0.262512, 77.132080, -3.643906, -269.628235, 13.726081, 100.771820
1759224762.224732, 9.858425, 3.700688, 7.161207, -1.356558, 1.591428, 1.445347, 77.383041, -4.344955, -267.866608, 13.726081, 100.771820
1759224762.245266, 7.711275, 6.391920, -8.659378, 0.393108, 3.465966, 2.407390, 77.725800, -5.950623, -265.901978, 13.726081, 100.771820
1759224762.265395, 0.519093, 15.715989, 0.671125, 0.127146, 1.603641, 1.179835, 78.135498, -7.549530, -264.019897, 13.726081, 100.771820
1759224762.285237, -4.298939, 32.806399, -2.543989, 1.055194, 0.182903, -1.455221, 77.914078, -7.137924, -262.911743, 13.726081, 100.771820
1759224762.305391, -6.850260, 22.166866, -0.444124, 1.772341, -0.866345, -1.886109, 77.951202, -5.909546, -263.178589, 13.726081, 100.771820
1759224762.324736, -5.897218, 7.621642, 1.261295, 1.906028, -1.144325, -2.410782, 78.494370, -4.094650, -264.360321, 13.726081, 100.771820
1759224762.344622, -5.398925, 8.884882, 3.206135, 1.466590, -2.466789, -3.163339, 77.833725, -2.475998, -265.209045, 13.726081, 100.771820
1759224762.365193, -2.785654, 17.461212, 3.590255, 1.244114, -3.791100, -3.582348, 77.337402, 0.251038, -268.382080, 13.726081, 100.771820
1759224762.385318, -0.955137, 26.010607, 4.996699, 0.566764, -5.355829, -3.785121, 75.710159, 3.307144, -271.775085, 13.726081, 100.771820
1759224762.405194, 5.923853, 29.621961, 8.994118, -1.484612, -6.742784, -2.552485, 73.127136, 5.969803, -277.298767, 13.726081, 100.771820
1759224762.424951, 8.574384, 20.766856, 8.191611, -3.606205, -2.511558, -1.573812, 71.353317, 8.122101, -279.648560, 13.726081, 100.771820
1759224762.445225, 11.184513, 15.462054, 5.259762, -5.724559, 4.736698, -1.687001, 71.641891, 11.107330, -277.042603, 13.726081, 100.771820
1759224762.465265, 11.259930, 13.541605, 0.426467, -5.495370, 6.804527, -2.103527, 73.134155, 14.204788, -270.496399, 13.726081, 100.771820
1759224762.485259, 13.538462, 10.188974, -26.964397, -1.186306, 6.751994, -0.961480, 74.060730, 15.872086, -262.372620, 13.726081, 100.771820
1759224762.505243, 12.085631, 6.354810, -14.761899, 0.696649, -4.052907, -0.162993, 73.756699, 15.920029, -263.396301, 13.726081, 100.771820
1759224762.525084, 5.646725, 2.265813, 0.772130, 0.229046, -4.313795, -0.342295, 73.221771, 16.150146, -267.175903, 13.726081, 100.771820
1759224762.545193, 4.675128, -1.661726, 0.971447, -0.120720, -2.501930, -0.419697, 72.475479, 15.770645, -269.377686, 13.726081, 100.771820
1759224762.565232, 7.296479, -3.739444, -3.546561, -0.456978, 0.032284, -0.091404, 72.203613, 16.331177, -270.132080, 13.726081, 100.771820
1759224762.585232, 8.656535, -5.672462, -8.016835, 0.720280, 2.520067, 0.677741, 72.657166, 16.383072, -269.337952, 13.726081, 100.771820
1759224762.605198, 3.942652, -1.334019, -3.254618, 1.847782, -0.009905, 1.630492, 73.671112, 15.077225, -268.000214, 13.726081, 100.771820
1759224762.625191, 3.152116, 3.119495, 0.441581, 2.582112, -3.223501, 2.385755, 73.689774, 12.773361, -271.110291, 13.726081, 100.771820
1759224762.645202, 2.741062, 6.161029, -0.980126, 3.328726, -4.416996, 2.673573, 73.156769, 10.030807, -274.843811, 13.726081, 100.771820
1759224762.665219, 10.910976, 23.097163, -1.864933, 4.176891, -3.546248, 3.646465, 72.558640, 6.077805, -278.639954, 13.726081, 100.771820
1759224762.685257, 11.852346, 48.302719, 1.660080, 3.779818, -0.673039, 6.105799, 72.823822, 0.456131, -280.582214, 13.726081, 100.771820
1759224762.705397, -5.096806, 36.588190, 4.950162, 4.547243, 6.154012, 3.534377, 74.340500, -4.253693, -277.458038, 13.726081, 100.771820
1759224762.725397, -10.323349, 27.574769, 12.923003, 0.649627, 7.890694, 1.107674, 76.213196, -6.590683, -270.783142, 13.726081, 100.771820
1759224762.745276, -8.190414, 18.041956, 5.752069, -3.549750, 3.396633, 0.802152, 77.292465, -6.836121, -267.272247, 13.726081, 100.771820
1759224762.765391, -5.087080, 13.463943, -10.963947, -2.181132, 0.956795, 1.657347, 77.718018, -7.513290, -266.215210, 13.726081, 100.771820
1759224762.785235, 1.575534, 11.664550, -2.782960, 0.209337, -0.682387, 0.450742, 77.609146, -8.054321, -266.720764, 13.726081, 100.771820
1759224762.805201, 6.240487, 10.617985, -1.358111, 0.268271, -1.949135, -0.254823, 77.683945, -7.973022, -268.121643, 13.726081, 100.771820
1759224762.825389, 4.223970, 6.531981, -0.263512, -0.113523, -0.985455, -0.418790, 77.038406, -7.408539, -268.914368, 13.726081, 100.771820
1759224762.844379, -0.606332, 4.383933, -0.286406, -0.525580, 0.603391, -0.593505, 77.122726, -7.099380, -268.879700, 13.726081, 100.771820
1759224762.865192, -4.113238, 2.806753, -1.931223, -0.615700, 1.905829, -0.620307, 77.440262, -6.685699, -267.759216, 13.726081, 100.771820
1759224762.885323, -6.532729, -0.532261, -2.101211, -0.037674, 1.684255, -0.629498, 77.655914, -5.603073, -266.276978, 13.726081, 100.771820
1759224762.905270, -6.391471, -0.977283, 2.068590, 0.483485, -0.465518, -1.167336, 78.064804, -5.039429, -266.589661, 13.726081, 100.771820
1759224762.925342, -3.382408, -1.692850, 4.646996, 0.432886, -1.810250, -1.274866, 77.615112, -4.231857, -267.358887, 13.726081, 100.771820
1759224762.945246, -1.077690, -1.893514, 2.405873, -0.034213, -1.219764, -1.194201, 77.722198, -3.404343, -269.151062, 13.726081, 100.771820
1759224762.965200, 1.252467, -1.641225, -0.326360, -0.417060, 0.456158, -0.819894, 77.855148, -2.340332, -268.603821, 13.726081, 100.771820
1759224762.985298, 1.881693, 1.404349, -0.463428, -0.550548, 2.533490, -0.208407, 78.079895, -1.914307, -266.902283, 13.726081, 100.771820
1759224763.005416, 5.814768, 5.642535, -7.177966, -0.068677, 4.726516, 0.742685, 78.003098, -2.356522, -263.864441, 13.726081, 100.771820
1759224763.025243, -0.856526, 13.029096, 3.438074, -1.223249, 3.589358, 1.072793, 78.342850, -3.404968, -259.635010, 13.726081, 100.771820
1759224763.044732, -4.149900, 37.583130, 0.818667, 1.002286, 0.877351, -0.363671, 78.238022, -3.505142, -259.010742, 13.726081, 100.771820
1759224763.065200, -3.262100, 25.490616, 3.392434, 1.380136, -0.237342, -1.768429, 78.315201, -1.959000, -258.414001, 13.726081, 100.771820
1759224763.085234, -1.858200, 9.743353, 1.615039, 0.456320, -0.965598, -1.499150, 77.944931, -0.541000, -259.014404, 13.726063, 100.771820
1759224763.105278, -2.516605, 7.541436, 0.842460, 0.854456, -2.089313, -2.240277, 78.286804, 1.117218, -260.510437, 13.726063, 100.771820
1759224763.125324, 0.045191, 12.174815, 2.923769, 1.104276, -3.831342, -2.760344, 77.752594, 3.244080, -263.846832, 13.726063, 100.771820
1759224763.144908, 0.866851, 22.158785, 4.096928, 0.815645, -4.930882, -3.122360, 76.548157, 5.270111, -268.002686, 13.726063, 100.771820
1759224763.165414, 5.907244, 27.370064, 7.228095, -0.386164, -4.874082, -2.773657, 75.036240, 7.705612, -272.161865, 13.726063, 100.771820
1759224763.185269, 6.708852, 17.313969, 6.987478, -1.717344, -4.617680, -1.948694, 73.188751, 9.845901, -275.433136, 13.726063, 100.771820
1759224763.205414, 8.389732, 16.118663, 3.692308, -2.743221, -0.955112, -1.685597, 71.938721, 11.744629, -276.089294, 13.726063, 100.771820
1759224763.225320, 9.808296, 12.159402, 1.316212, -4.040484, 3.079485, -1.325168, 72.380356, 13.917160, -272.750092, 13.726063, 100.771820
1759224763.245062, 6.540061, 7.070526, -3.664326, -4.856498, 4.898789, -1.264058, 72.861343, 15.693695, -267.851593, 13.726063, 100.771820
1759224763.265225, 7.003339, 5.991340, -36.718973, -0.591796, 4.341243, -0.815409, 73.088287, 16.907684, -262.924988, 13.726063, 100.771820
1759224763.285217, 5.312285, 2.217180, -0.003142, 1.019456, -2.403874, -0.088464, 73.129700, 16.953934, -264.403687, 13.726063, 100.771820
1759224763.305206, 2.957887, 1.104026, 1.145775, 0.467527, -3.877395, 0.074203, 72.265762, 16.689987, -267.240845, 13.726063, 100.771820
1759224763.325216, 2.660108, -0.555156, -0.094721, 0.430412, -3.244318, 0.407232, 71.263947, 16.811935, -269.516479, 13.726063, 100.771820
1759224763.345212, 4.564545, -2.119916, -4.449624, 0.719139, -0.429144, 0.751205, 71.523224, 15.919998, -270.922882, 13.726063, 100.771820
1759224763.365216, 6.098630, -3.261202, -4.195389, 1.404815, 3.275752, 1.311149, 72.544724, 14.619019, -269.143921, 13.726063, 100.771820
1759224763.385229, 4.943428, -1.454627, -0.371700, 1.739164, 2.714337, 1.929518, 73.278992, 13.167130, -267.766541, 13.726063, 100.771820
1759224763.405233, 3.323601, 1.794454, 1.051055, 2.048888, -2.069206, 2.662975, 74.189560, 11.017059, -268.385468, 13.726063, 100.771820
1759224763.425228, 4.373309, 6.122273, 0.967557, 2.722345, -4.720972, 2.860426, 74.000595, 8.773880, -270.959961, 13.726063, 100.771820
1759224763.445206, 15.315858, 30.069826, -2.273893, 3.232328, -3.346851, 5.180408, 73.551651, 5.437790, -275.606934, 13.726063, 100.771820
1759224763.465227, 13.167211, 49.200694, -0.537798, 4.673794, 1.275585, 4.912990, 73.616699, 0.084457, -278.048157, 13.726063, 100.771820
1759224763.485222, -5.446659, 33.713352, 7.577199, 3.226600, 7.827435, 1.820872, 74.744064, -3.815430, -274.393677, 13.726063, 100.771820
1759224763.504951, -9.588029, 28.059445, 16.875680, -2.418036, 6.955045, 0.949131, 76.750504, -5.291626, -268.253479, 13.726063, 100.771820
1759224763.525212, -8.152107, 20.899136, 6.974609, -4.249515, 2.310249, 1.421420, 77.277405, -5.424088, -263.815491, 13.726063, 100.771820
1759224763.545205, -6.469133, 14.515446, 2.685396, -3.860808, -1.435003, 0.124682, 77.601257, -5.651352, -264.181946, 13.726063, 100.771820
1759224763.565406, 1.886182, 9.662399, -10.108469, -1.449404, -1.294927, -0.588374, 77.501190, -5.426682, -265.304657, 13.726063, 100.771820
1759224763.585295, 4.691289, 7.936779, -8.399308, 0.031854, -1.229576, -0.448343, 77.395889, -4.684967, -266.384338, 13.726063, 100.771820
1759224763.605403, -2.356194, 5.862053, -2.345121, 0.090359, -1.436874, -0.835279, 77.296524, -4.148209, -267.783691, 13.726063, 100.771820
1759224763.625245, -5.384260, 3.946393, -0.250643, -0.268709, -0.722443, -1.045357, 76.974472, -3.502182, -268.671082, 13.726063, 100.771820
1759224763.645323, -6.274155, -0.263961, -1.515979, 0.072676, -0.170473, -1.352283, 76.994659, -2.592514, -268.950684, 13.726063, 100.771820
1759224763.665224, -6.370522, -4.169652, -6.510433, 1.045567, -0.869176, -1.950074, 76.820938, -1.305176, -269.212494, 13.726063, 100.771820
1759224763.685288, 0.366462, -3.529203, -2.044798, 0.659251, -0.613582, -1.760991, 76.793396, -0.013016, -270.215363, 13.726063, 100.771820
1759224763.705233, 7.930045, -2.147449, 5.306000, -0.207232, 0.662248, -0.635194, 76.614410, 1.020233, -270.441620, 13.726063, 100.771820
1759224763.725335, 7.212084, 0.640000, 3.581127, -0.359819, 2.351084, 0.302080, 77.050415, 1.098389, -268.666382, 13.726063, 100.771820
1759224763.745299, 0.761955, 2.424279, 0.892139, -0.155197, 2.502789, 0.548579, 77.372955, 0.837311, -267.221008, 13.726063, 100.771820
1759224763.765409, -1.765724, 3.353678, 0.185102, -0.485971, 0.344315, 0.646406, 77.415405, 0.432266, -265.652222, 13.726063, 100.771820
1759224763.785278, -7.942614, 13.047950, -13.553127, -0.850368, 0.787993, 0.962865, 77.638062, -0.064087, -265.568634, 13.726063, 100.771820
1759224763.805246, -1.729362, 22.127361, 0.225803, 2.960169, 1.003095, -0.786555, 77.108978, -0.484085, -265.010925, 13.726063, 100.771820
1759224763.825329, -5.391892, 40.149116, 5.179406, 0.921932, 2.214929, -1.341087, 77.584290, 0.754395, -263.080505, 13.726063, 100.771820
1759224763.845275, -2.471115, 5.952584, 3.603573, 0.083523, 2.354764, -0.275886, 77.729492, 0.999100, -261.507599, 13.726063, 100.771820
1759224763.865249, -7.601441, 6.097433, 2.392256, 0.627025, 0.473150, -2.001954, 77.549911, 2.057724, -260.495850, 13.726063, 100.771820
1759224763.885259, -4.992808, 13.157485, 1.264887, 1.181063, -1.647904, -3.313896, 77.128677, 4.432892, -260.851990, 13.726063, 100.771820
1759224763.905415, -0.619949, 23.661745, 5.257966, 1.062404, -4.670018, -3.434930, 76.770981, 6.808273, -263.579346, 13.726063, 100.771820
1759224763.925232, 2.361880, 29.315503, 6.997354, 0.373698, -7.067143, -2.983612, 75.133728, 9.705902, -268.394104, 13.726063, 100.771820
1759224763.944278, 6.267122, 21.202601, 5.054160, -0.624168, -7.853061, -2.183746, 72.745789, 11.644913, -274.537781, 13.726063, 100.771820
1759224763.965219, 9.243115, 12.890980, 4.922179, -3.336689, -1.312716, -1.948300, 70.532669, 13.811737, -277.996643, 13.726063, 100.771820
1759224763.985227, 13.964331, 13.188460, 4.423886, -3.782208, 4.071820, -1.500010, 70.722397, 15.982391, -274.570618, 13.726063, 100.771820
1759224764.005228, 10.822989, 11.438897, 2.420688, -3.231061, 3.570432, -1.141036, 71.130554, 17.792618, -270.424561, 13.726063, 100.771820
1759224764.025219, 4.812645, 6.079327, -2.199523, -3.776510, 7.787572, -0.832645, 71.470337, 19.568436, -265.274414, 13.726063, 100.771820
1759224764.044463, 6.910713, 6.774394, -36.096630, 0.736432, 0.751424, 0.206998, 71.875961, 19.335037, -261.274963, 13.726063, 100.771820
1759224764.065225, 5.429451, 2.241871, 0.355389, 0.785106, -3.842061, 0.453628, 72.042480, 19.107452, -263.430756, 13.726044, 100.771816
1759224764.085229, 2.550274, 0.392948, 1.626710, 0.496976, -4.161953, 0.602333, 71.373550, 18.945068, -266.392212, 13.726044, 100.771816
1759224764.105220, 5.679346, -0.962020, -0.438887, 0.385924, -1.530210, 1.103604, 71.527069, 17.924866, -269.147522, 13.726044, 100.771816
1759224764.125230, 9.819968, -3.970185, -7.193977, 1.168152, 2.725683, 1.821673, 72.229813, 16.838547, -269.043640, 13.726044, 100.771816
1759224764.144693, 5.074510, -1.494580, -3.308936, 1.535030, 2.315321, 2.463009, 73.287338, 15.076508, -266.866272, 13.726044, 100.771816
1759224764.165277, 2.554763, 2.529624, -0.564283, 2.013265, -0.277916, 3.134287, 74.833191, 13.002762, -267.143982, 13.726044, 100.771816
1759224764.185057, 3.722684, 8.189217, -0.304213, 2.540539, -3.107044, 3.569932, 75.100327, 10.195160, -269.177124, 13.726044, 100.771816
1759224764.205262, 13.065158, 27.817032, 0.992546, 3.316621, -4.435356, 6.245383, 75.200119, 5.866211, -273.456268, 13.726044, 100.771816
1759224764.225222, 9.172935, 48.160563, 0.835427, 4.091797, -0.507760, 4.837689, 74.640640, 0.471390, -276.171448, 13.726044, 100.771816
1759224764.244849, -6.466290, 30.636504, 6.608445, 3.524367, 7.164873, 1.535567, 76.070572, -3.259262, -273.278076, 13.726044, 100.771816
1759224764.265223, -4.718074, 25.786749, 15.408932, -1.047022, 6.841040, 1.344927, 77.715042, -4.451157, -266.861938, 13.726044, 100.771816
1759224764.285252, -7.111527, 17.585112, 6.700173, -3.683465, 2.715097, 1.917741, 78.154099, -5.151657, -263.909760, 13.726044, 100.771816
1759224764.305228, -2.577657, 13.735385, -0.869544, -4.012285, 0.389473, 0.641643, 78.003494, -5.900772, -262.803284, 13.726044, 100.771816
1759224764.325295, 9.499594, 9.995942, -13.945925, -1.276507, -0.295398, 0.199156, 78.302536, -5.948105, -263.186951, 13.726044, 100.771816
1759224764.345209, 0.592565, 6.686407, -3.522170, 0.531917, -2.893291, -0.438668, 77.868469, -5.908997, -264.845642, 13.726044, 100.771816
1759224764.365292, -4.464139, 3.756502, 0.833631, 0.551417, -3.159497, -0.982584, 77.708145, -5.487534, -267.852539, 13.726044, 100.771816
1759224764.385329, -6.742670, 1.941398, 1.979257, 0.125830, -1.859015, -1.148307, 77.057083, -4.323227, -269.578644, 13.726044, 100.771816
1759224764.405445, -6.872406, -0.930147, -0.684742, 0.226419, -1.005899, -1.275635, 77.339737, -3.690781, -270.823090, 13.726044, 100.771816
1759224764.424584, -5.171476, -3.432387, -1.734001, 0.611931, -0.850799, -1.279422, 76.664597, -2.547455, -271.362976, 13.726044, 100.771816
1759224764.445208, -5.247641, -4.686650, -1.942296, 0.451958, -0.297117, -1.293376, 77.063171, -1.567871, -271.594177, 13.726044, 100.771816
1759224764.465236, 0.660351, -3.013252, -0.542736, 0.005849, 1.442795, -1.406848, 76.738251, -0.824554, -271.465942, 13.726044, 100.771816
1759224764.485318, 5.717653, 1.727117, 2.044798, -0.422558, 3.973651, -0.560077, 77.122696, 0.775635, -269.127838, 13.726044, 100.771816
1759224764.505295, 3.014001, 4.201974, 3.563021, -0.413758, 4.089388, -0.008585, 77.889374, 0.308456, -265.344849, 13.726044, 100.771816
1759224764.525435, 1.047014, 5.727679, 1.099986, -0.213785, 1.475178, 0.249676, 78.107742, 0.406250, -263.562683, 13.726044, 100.771816
1759224764.545408, 4.139425, 24.056938, 0.509217, -0.975423, 1.456967, 1.259155, 78.532700, -0.306625, -261.922211, 13.726044, 100.771816
1759224764.565224, 0.151284, 45.756635, 2.918981, 0.966571, -0.194054, 1.041691, 78.116409, -1.385788, -261.398560, 13.726044, 100.771816
1759224764.585247, -2.589628, 10.717644, -1.444153, -0.311003, 2.666514, -0.945447, 78.449219, -0.917862, -260.341370, 13.726044, 100.771816
1759224764.605228, -1.911321, 3.937115, -1.622820, -0.177451, 3.139122, 0.280024, 78.396988, -0.857315, -257.179138, 13.726044, 100.771816
1759224764.625304, -7.758859, 9.026290, 0.206051, 0.730384, 0.043263, -1.067062, 78.224030, -0.414032, -257.132690, 13.726044, 100.771816
1759224764.645078, -4.335750, 14.408755, 0.112378, 1.881125, -1.555089, -3.224217, 78.040451, 1.864883, -257.775208, 13.726044, 100.771816
1759224764.664351, 0.873584, 23.478888, 5.860257, 2.793952, -3.276157, -3.723241, 78.158112, 5.087463, -260.713898, 13.726044, 100.771816
1759224764.685256, 3.158700, 22.192005, 8.325986, 1.314070, -5.170951, -3.300062, 76.935226, 7.848145, -264.305054, 13.726044, 100.771816
1759224764.705422, 4.718971, 19.062634, 5.119701, -0.075880, -6.593714, -2.659974, 75.634354, 9.951706, -269.287506, 13.726044, 100.771816
1759224764.725342, 6.415862, 14.121151, 4.384083, -1.010710, -6.661449, -2.146297, 73.132431, 12.181961, -274.175232, 13.726044, 100.771816
1759224764.745257, 9.794380, 14.663737, 5.072415, -2.522818, -2.109900, -1.930787, 70.919159, 13.533157, -276.993896, 13.726044, 100.771816
1759224764.764542, 11.083807, 11.779323, 1.511190, -4.035596, 3.062448, -1.983925, 71.323990, 16.434677, -273.751251, 13.726044, 100.771816
1759224764.784716, 6.821230, 8.583812, -4.822221, -3.940114, 5.192178, -1.618413, 71.477341, 18.816727, -269.325073, 13.726044, 100.771816
1759224764.805249, 2.694375, 7.416489, -18.314296, -1.365547, 9.798337, -1.710957, 71.925903, 19.872894, -262.133362, 13.726044, 100.771816
1759224764.825234, 7.362020, 2.475904, -6.714239, 0.746217, -0.724879, -0.772955, 71.662445, 20.923080, -260.454529, 13.726044, 100.771816
1759224764.844616, 5.917120, 1.049109, 0.090531, 0.944760, -4.175236, 0.004564, 71.001434, 20.769714, -263.649109, 13.726044, 100.771816
1759224764.865236, 4.568436, -1.745074, -1.264737, 0.885006, -3.282203, 0.357236, 71.145370, 20.171631, -266.130981, 13.726044, 100.771816
1759224764.885272, 6.144719, -3.165434, -3.639037, 0.994096, -0.159609, 0.533671, 71.403061, 20.132065, -267.343567, 13.726044, 100.771816
1759224764.905309, 8.359954, -3.799598, -2.801665, 1.143948, 1.626860, 1.073606, 71.707336, 19.102478, -266.955811, 13.726044, 100.771816
1759224764.925313, 6.450279, -1.987038, -0.645537, 1.536851, 0.898890, 1.987427, 72.569641, 17.925201, -266.337708, 13.726044, 100.771816
1759224764.945273, 3.551499, 1.267879, 0.772878, 1.975413, -0.976543, 2.949274, 73.780228, 15.734619, -268.134949, 13.726044, 100.771816
1759224764.964899, 6.731448, 11.826458, 1.153856, 2.702662, -3.220221, 3.531962, 74.359177, 12.801086, -271.107117, 13.726044, 100.771816
1759224764.985243, 18.668787, 46.694564, -0.238373, 2.970215, -4.004093, 6.923134, 74.243301, 8.017197, -275.525024, 13.726044, 100.771816
1759224765.004791, -0.833182, 44.060942, 0.029030, 3.589704, -0.292012, 5.812014, 74.566650, 1.987061, -277.243530, 13.726044, 100.771816
1759224765.025146, -9.745897, 32.482433, 8.494777, 3.730743, 7.492771, 2.078597, 76.915237, -1.423355, -272.793335, 13.726044, 100.771816
1759224765.045247, -8.109760, 21.272781, 12.645126, -1.149149, 8.620956, 1.224800, 78.492813, -2.169174, -265.053223, 13.726019, 100.771816
1759224765.065249, -7.132925, 17.085322, 5.904849, -3.897286, 3.804112, 1.934001, 78.942657, -3.877502, -260.620392, 13.726019, 100.771816
1759224765.084753, -1.742530, 15.542708, 0.283264, -3.527670, -0.625993, 0.806284, 79.106812, -4.318619, -260.858307, 13.726019, 100.771816
1759224765.104373, 10.451438, 11.722311, -10.965144, -1.137217, -1.687590, 0.533401, 79.371658, -4.842819, -261.920593, 13.726019, 100.771816
1759224765.125257, 2.276437, 7.906252, -4.044555, 0.496926, -3.324304, -0.279324, 78.897217, -4.861343, -265.066589, 13.726019, 100.771816
1759224765.145249, -3.812617, 4.618265, 0.170437, 0.477652, -3.271406, -0.743095, 78.801346, -4.720123, -267.453033, 13.726019, 100.771816
1759224765.165234, -6.789806, 2.121712, 1.625813, -0.007696, -1.367592, -1.034211, 78.578186, -3.727905, -269.408081, 13.726019, 100.771816
1759224765.185243, -6.648848, -0.524929, 1.672499, -0.259082, -1.027774, -0.855408, 78.375397, -2.693420, -270.824005, 13.726019, 100.771816
1759224765.205238, -4.636072, -3.211373, -2.519598, 0.412335, -1.656566, -0.407590, 78.015991, -2.229706, -271.574158, 13.726019, 100.771816
1759224765.225241, -4.728399, -4.654927, -4.592079, 0.830594, -2.045886, -0.254556, 77.762299, -1.669357, -273.281372, 13.726019, 100.771816
1759224765.245250, -3.030311, -7.959823, -5.340566, 0.643991, 0.793979, -0.184579, 77.300156, -1.904175, -274.266296, 13.726019, 100.771816
1759224765.265237, 8.265083, -4.200028, 2.499995, -1.285219, 5.026457, -0.215489, 78.395828, -1.903061, -272.371765, 13.726019, 100.771816
1759224765.285247, 4.072537, 5.021838, 8.180837, -1.812811, 4.155152, 0.068226, 79.817886, -1.576385, -268.122070, 13.726019, 100.771816
1759224765.304867, 0.653767, 5.353136, 0.621295, -0.625515, 2.661784, 0.565686, 80.332535, -1.512772, -265.640442, 13.726019, 100.771816
1759224765.324561, 5.465663, 15.746814, 0.226102, -0.051375, 0.778788, 1.189232, 80.107239, -1.984039, -262.750885, 13.726019, 100.771816
1759224765.345235, 9.305813, 56.513933, -16.269797, 1.392932, 1.484460, 0.242795, 80.636612, -2.833893, -261.899353, 13.726019, 100.771816
1759224765.365244, -7.057358, 14.239215, 2.570475, 2.127963, 0.818779, -0.007857, 80.442841, -3.226181, -260.709229, 13.726019, 100.771816
1759224765.385248, -7.718906, 5.064485, 5.368698, 1.396746, 0.722581, -1.405741, 80.312897, -3.135818, -260.035217, 13.726019, 100.771816
1759224765.405257, -7.608623, 4.699519, 9.050980, 0.644681, -1.216040, -2.797771, 80.533401, -1.128464, -259.721191, 13.726019, 100.771816
1759224765.425335, -1.373224, 14.125491, 7.297826, 0.883014, -5.161944, -3.242918, 80.094299, 1.442032, -261.761230, 13.726019, 100.771816
1759224765.445247, 2.368464, 27.976546, 5.973234, 0.768102, -7.585148, -3.326029, 79.315109, 4.026794, -267.439606, 13.726019, 100.771816
1759224765.465241, 6.818088, 27.604247, 5.867440, -0.592370, -7.968495, -2.500007, 77.585327, 6.757202, -274.767792, 13.726019, 100.771816
1759224765.485266, 6.606500, 14.199112, 3.776255, -3.692736, -2.813400, -2.522210, 74.648926, 9.385849, -278.594055, 13.726019, 100.771816
1759224765.505329, 10.039636, 10.179697, 0.075717, -3.753870, 0.385727, -2.029838, 73.712189, 12.393860, -278.753906, 13.726019, 100.771816
1759224765.525264, 10.477475, 12.363208, -0.640000, -2.844578, 1.897039, -1.768395, 73.626770, 14.969299, -276.660767, 13.726019, 100.771816
1759224765.545255, 6.929269, 7.074567, -4.439299, -1.934245, 5.318401, -1.370273, 73.938171, 16.883240, -273.618958, 13.726019, 100.771816
1759224765.565286, 1.348384, 8.728212, -11.913697, -0.727344, 4.085091, -0.665464, 74.552734, 17.701950, -268.415527, 13.726019, 100.771816
1759224765.585256, 0.983867, 7.745991, -10.720786, 0.452902, -1.445176, -0.963388, 74.692703, 18.199265, -267.465851, 13.726019, 100.771816
1759224765.605245, 4.818032, 3.695899, -0.802955, 0.574030, -2.146491, -0.591585, 73.978806, 18.714355, -268.791931, 13.726019, 100.771816
1759224765.625288, 4.480150, 1.272369, 1.132906, 0.239649, -1.861642, -0.203491, 73.461304, 19.209351, -270.798737, 13.726019, 100.771816
1759224765.645239, 3.769222, -1.433678, 0.045939, -0.377155, -0.925294, -0.044186, 73.047989, 19.122070, -272.290771, 13.726019, 100.771816
1759224765.665224, 5.902006, -3.782988, -5.703288, 0.438039, 2.873698, 0.118425, 73.092484, 18.718307, -272.062408, 13.726019, 100.771816
1759224765.685267, 10.557083, -4.829105, -5.756259, 1.706991, 3.480452, 1.288956, 74.964020, 17.530838, -268.678070, 13.726019, 100.771816
1759224765.705252, 8.127566, -3.330335, -0.489165, 2.126686, -0.101581, 2.616836, 75.910690, 14.828461, -269.874969, 13.726019, 100.771816
1759224765.725255, 4.927716, 2.644246, 0.029628, 2.256552, -3.995559, 2.582819, 76.173950, 12.661179, -273.576782, 13.726019, 100.771816
1759224765.744335, 7.930643, 15.252711, 1.819893, 3.061010, -7.494044, 3.364465, 75.634415, 10.735260, -276.413177, 13.726019, 100.771816
1759224765.764358, 22.472575, 52.566643, 5.171176, 2.261313, -4.788750, 5.987324, 73.853287, 5.986328, -282.502380, 13.726019, 100.771816
1759224765.785256, -4.124611, 36.309116, 1.571494, 3.928970, 3.833919, 1.924943, 75.381622, -0.465836, -281.536530, 13.726019, 100.771816
1759224765.805247, -5.799804, 23.739407, 10.963349, 1.691240, 7.812559, 0.170716, 77.937073, -1.222122, -275.765381, 13.726019, 100.771816
1759224765.825314, -6.514024, 20.167408, 14.491354, -3.444553, 4.125439, 1.450901, 79.576553, -1.961868, -271.627502, 13.726019, 100.771816
1759224765.845020, -10.301950, 20.025851, 5.315876, -4.758414, 1.592843, 1.857282, 79.520477, -2.551788, -269.766754, 13.726019, 100.771816
1759224765.864603, -5.887043, 17.683723, -5.437980, -2.645373, 1.223820, 0.798242, 79.492661, -2.734756, -269.075195, 13.726019, 100.771816
1759224765.885271, 6.009297, 10.920103, -8.341698, -0.381364, -1.647013, 0.419249, 79.266846, -3.196930, -269.731689, 13.726019, 100.771816
1759224765.905259, 1.233762, 8.575133, -3.114707, 0.145607, -2.603595, -0.276877, 78.594742, -3.287552, -272.202942, 13.726019, 100.771816
1759224765.925252, -2.687791, 6.159832, -0.756418, -0.092371, -2.499161, -0.915458, 78.000092, -2.461395, -275.057434, 13.726019, 100.771816
1759224765.945267, -4.605097, 2.866907, -0.301220, -0.425581, -1.324502, -1.223769, 77.486832, -1.488129, -276.151459, 13.726019, 100.771816
1759224765.964725, -5.848885, -0.150535, -2.846107, 0.282622, -0.648161, -1.118635, 77.201462, -0.715652, -276.607666, 13.726019, 100.771816
1759224765.985269, -7.519888, -4.651485, -7.797017, 1.586947, -0.813104, -1.247545, 76.727524, -0.286972, -277.272034, 13.726019, 100.771816
1759224766.005254, -5.962310, -5.742942, -4.039617, 1.083879, 0.200825, -1.380713, 76.838943, 0.494400, -277.204346, 13.726019, 100.771816
1759224766.025313, -0.825251, -2.760963, -0.420033, -0.260412, 2.533942, -0.965225, 77.502335, 1.724854, -275.088745, 13.726019, 100.771816
1759224766.045308, 5.629666, 2.582146, 4.935946, -1.164830, 4.362484, -0.258156, 78.123611, 1.805389, -271.345947, 13.725994, 100.771814
1759224766.064981, 4.616769, 5.071667, 5.331438, -0.839808, 3.255066, 0.136617, 78.502853, 2.211929, -269.752136, 13.725994, 100.771814
1759224766.085259, 1.134103, 8.829666, 2.534562, 0.006901, 0.752225, 0.520349, 79.189240, 1.494095, -267.498840, 13.725994, 100.771814
1759224766.105290, 2.146103, 19.453487, 2.117671, -0.468125, -0.246998, 0.753950, 78.965622, 0.782486, -268.234375, 13.725994, 100.771814
1759224766.125110, 1.272817, 31.554680, -0.415843, 0.060536, -0.206356, 0.384901, 79.100418, 0.605209, -268.192993, 13.725994, 100.771814
1759224766.144866, 2.008137, 27.379941, -3.440767, -0.691458, 3.363537, -0.519624, 79.893585, 0.404358, -266.620758, 13.725994, 100.771814
1759224766.165099, -2.832640, 6.903531, -0.642843, 0.209186, 1.800863, 0.317418, 79.906509, 0.596481, -264.038116, 13.725994, 100.771814
1759224766.185287, -7.784597, 9.210643, 0.598850, 0.945947, -0.892911, -0.647801, 79.430252, 1.309570, -264.220703, 13.725994, 100.771814
1759224766.205458, -5.528810, 14.332739, 1.576582, 1.782653, -0.935086, -2.151774, 79.903961, 2.752960, -265.414062, 13.725994, 100.771814
1759224766.225311, -3.959860, 22.873903, 3.193117, 2.554189, -0.065206, -3.291385, 79.038330, 5.109055, -265.610901, 13.725994, 100.771814
1759224766.245312, -0.210989, 24.016087, 7.496096, 1.875474, -1.724662, -3.263910, 78.164337, 7.715179, -267.713135, 13.725994, 100.771814
1759224766.265256, 1.624017, 20.107852, 9.248202, 0.163837, -5.912048, -2.882933, 76.441696, 9.987518, -272.509186, 13.725994, 100.771814
1759224766.285264, 4.749946, 15.143326, 6.736685, -1.482767, -8.085786, -2.196916, 72.916061, 12.504196, -277.755188, 13.725994, 100.771814
1759224766.305259, 7.958775, 15.748759, 5.706580, -2.631741, -5.737950, -1.613878, 70.463577, 14.740250, -281.062500, 13.725994, 100.771814
1759224766.325257, 10.433781, 12.608764, 1.626561, -4.627568, 1.339176, -1.524200, 70.558640, 17.209579, -278.356140, 13.725994, 100.771814
1759224766.345255, 10.555885, 9.400085, -5.091120, -4.755632, 5.796005, -1.560601, 71.906876, 19.430618, -271.709534, 13.725994, 100.771814
1759224766.365256, 8.938902, 6.466739, -26.581923, -1.379531, 10.144501, -1.189533, 72.753250, 20.772186, -264.896301, 13.725994, 100.771814
1759224766.385265, 8.299650, 1.635838, -4.564545, 0.804675, -1.694997, -0.117483, 72.296112, 20.961670, -266.693298, 13.725994, 100.771814
1759224766.405270, 4.213346, 1.316512, 0.225803, 0.726973, -4.840214, 0.496614, 72.128677, 19.805588, -270.680115, 13.725994, 100.771814
1759224766.425292, 2.231994, -0.252888, -0.172682, 0.658844, -4.319157, 0.597255, 71.241180, 19.101608, -273.688446, 13.725994, 100.771814
1759224766.445301, 4.621707, -1.947085, -3.716400, 0.910176, -1.508244, 0.784686, 71.216965, 18.596786, -274.695953, 13.725994, 100.771814
1759224766.465466, 4.786159, -2.827103, -3.256713, 1.452853, 1.357028, 1.209900, 72.191193, 17.108047, -274.586639, 13.725994, 100.771814
1759224766.484451, 3.872172, -1.736095, -0.970549, 1.802129, 1.672481, 1.768945, 72.573456, 16.483994, -274.053528, 13.725994, 100.771814
1759224766.505287, 2.833837, 1.603068, 0.313640, 2.092855, -0.132942, 2.538766, 74.061844, 12.379364, -275.154419, 13.725994, 100.771814
1759224766.525302, 3.435829, 6.123320, 1.176152, 2.401555, -1.705389, 2.979746, 73.946976, 9.429718, -277.763611, 13.725994, 100.771814
1759224766.545460, 15.478663, 35.656696, -0.569072, 2.769382, -2.324904, 4.422447, 74.434860, 4.725464, -279.803589, 13.725994, 100.771814
1759224766.565457, 5.084087, 48.002995, 0.035015, 2.496455, -0.554929, 5.579158, 74.882156, -0.375931, -280.298950, 13.725994, 100.771814
1759224766.585358, -7.483526, 27.824215, 6.196194, 3.289890, 5.313251, 2.044957, 76.908096, -2.978256, -275.345703, 13.725994, 100.771814
1759224766.605453, -2.675221, 21.475241, 11.160870, 0.521008, 6.611694, 1.037172, 78.254944, -4.251083, -270.181030, 13.725994, 100.771814
1759224766.625287, -6.486790, 18.236335, 7.126491, -2.579081, 2.295317, 1.802907, 78.493408, -5.178360, -269.197845, 13.725994, 100.771814
1759224766.645441, -5.477036, 17.427095, 1.672948, -2.618691, -1.105354, 0.838134, 78.380585, -5.261063, -270.466034, 13.725994, 100.771814
1759224766.665348, 3.570353, 14.901960, -6.335058, -2.066284, -1.004131, -0.113026, 78.307480, -4.964127, -271.368591, 13.725994, 100.771814
1759224766.684839, 4.736180, 9.255235, -5.954679, -0.588782, -1.298038, 0.094211, 77.826660, -4.684448, -272.723572, 13.725994, 100.771814
1759224766.705289, -1.409137, 6.414665, -2.080112, 0.070114, -2.612920, -0.532225, 76.660873, -4.123703, -274.567261, 13.725994, 100.771814
1759224766.725296, -4.147057, 4.756979, 0.717512, -0.208630, -2.581317, -0.981569, 76.240524, -3.489380, -276.853394, 13.725994, 100.771814
1759224766.745305, -5.898714, 2.054225, 1.467496, -0.501455, -0.860837, -0.869466, 75.775360, -2.634720, -277.142639, 13.725994, 100.771814
1759224766.765366, -6.178387, -0.471807, -0.338480, -0.368464, 0.630124, -0.327641, 76.394684, -2.617905, -277.454559, 13.725994, 100.771814
1759224766.785065, -6.920590, -3.782390, -7.132327, 0.055269, 0.265599, 0.098071, 75.888931, -2.262329, -276.399750, 13.725994, 100.771814
1759224766.805506, -6.733692, -4.629787, -6.207566, 0.565497, 0.285311, -0.192775, 76.178574, -1.835342, -276.299988, 13.725994, 100.771814
1759224766.825399, 2.602647, -2.984971, 0.219967, 0.383359, 2.234732, -0.941165, 76.717682, -1.193375, -274.675781, 13.725994, 100.771814
1759224766.845462, 9.018060, 1.520168, 7.972093, -0.405527, 3.911545, -0.711845, 77.828812, -1.191132, -270.625427, 13.725994, 100.771814
1759224766.865301, 7.264606, 4.267814, 5.936722, -0.681814, 1.532736, 0.416987, 78.355606, -1.618256, -270.575317, 13.725994, 100.771814
1759224766.885228, 0.734272, 4.783765, 0.228197, -0.531909, -0.750546, 0.300378, 78.254333, -1.318207, -270.735992, 13.725994, 100.771814
1759224766.905369, -2.146701, 16.724097, -16.281619, -0.202926, 4.547835, 0.158393, 78.839340, -1.752090, -267.780579, 13.725994, 100.771814
1759224766.925319, 3.966594, 28.132468, 2.303372, 1.597176, -1.002632, 0.404137, 78.884399, -2.411926, -268.313416, 13.725994, 100.771814
1759224766.945288, -2.240823, 30.447960, 0.553509, 0.546126, -0.176304, 0.129114, 78.854141, -2.554840, -267.312286, 13.725994, 100.771814
1759224766.965305, -4.460098, 9.652224, -0.802955, 1.423428, 1.222997, -0.431038, 78.992065, -2.325790, -266.131836, 13.725994, 100.771814
1759224766.985353, -6.065560, 5.210232, 1.412878, 1.675583, -0.518408, -1.499076, 79.085327, -1.522797, -265.971680, 13.725994, 100.771814
1759224767.005276, -4.069395, 11.245715, 2.273893, 1.763022, -2.749523, -2.451966, 78.629456, -0.135544, -267.876495, 13.725994, 100.771814
1759224767.024623, -0.574908, 21.455189, 6.533028, 1.471422, -4.382103, -2.720943, 77.315430, 1.911194, -272.605835, 13.725994, 100.771814
1759224767.045259, 1.268927, 24.631846, 7.772476, -0.260250, -7.248520, -2.913691, 74.697159, 4.137619, -278.059937, 13.725960, 100.771814
1759224767.065264, 4.808455, 21.016003, 7.995586, -1.442713, -6.589181, -2.403667, 71.313782, 6.838364, -283.233490, 13.725960, 100.771814
1759224767.085276, 7.974038, 13.211055, 6.628497, -2.481745, -4.076400, -1.722757, 68.699966, 9.169876, -286.182678, 13.725960, 100.771814
1759224767.105267, 9.259575, 14.619744, 2.583643, -4.086753, 1.625522, -1.440714, 68.471863, 11.841568, -284.635742, 13.725960, 100.771814
1759224767.125280, 11.766454, 11.726351, 0.671274, -4.557570, 4.752567, -0.971088, 70.230545, 14.432358, -281.040466, 13.725960, 100.771814
1759224767.145295, 7.982717, 8.428488, -0.767791, -4.073168, 6.213359, -1.128139, 71.793304, 16.839066, -275.035309, 13.725960, 100.771814
1759224767.165458, 2.861969, 9.816227, -22.926875, -0.843849, 10.567687, -0.814862, 73.695312, 17.504852, -266.788971, 13.725960, 100.771814
1759224767.185320, 8.766519, 7.116914, -17.124378, 0.950656, -1.766134, 0.067861, 73.649796, 17.982834, -266.549286, 13.725960, 100.771814
1759224767.205482, 5.158307, 2.827103, 0.869544, 0.785243, -5.045578, 0.222666, 72.890396, 17.741882, -270.309204, 13.725960, 100.771814
1759224767.225367, 2.713229, 0.811485, 0.258125, 0.684227, -4.795439, 0.313825, 72.262405, 17.227905, -274.529114, 13.725960, 100.771814
1759224767.245472, 4.414908, -1.746570, -2.892345, 0.626320, -0.949911, 0.283513, 71.426910, 16.947098, -275.980652, 13.725960, 100.771814
1759224767.265342, 4.797531, -3.219453, -4.026000, 0.983394, 2.135874, 0.395738, 71.852081, 16.330307, -275.040283, 13.725960, 100.771814
1759224767.285312, 2.686294, -2.477251, -1.350479, 1.223646, 2.152664, 0.627029, 72.710770, 15.418686, -274.516418, 13.725960, 100.771814
1759224767.305312, 2.075773, -1.602768, 0.418237, 1.423689, 0.850243, 1.078427, 73.842850, 14.342529, -273.770905, 13.725960, 100.771814
1759224767.325313, 4.162469, -0.191985, 1.682376, 1.821851, -1.469352, 1.983943, 73.819244, 12.347000, -275.200928, 13.725960, 100.771814
1759224767.345453, 9.099014, 8.837148, 2.905513, 3.204828, -5.935999, 3.773739, 72.482452, 8.742661, -279.580353, 13.725960, 100.771814
1759224767.365334, 23.617153, 44.649766, 2.953697, 2.995152, -3.627970, 7.560590, 71.401718, 2.286957, -284.070435, 13.725960, 100.771814
1759224767.385309, 0.838419, 44.824393, 1.316362, 3.638595, 4.250122, 3.716171, 73.169006, -2.418091, -282.262787, 13.725960, 100.771814
1759224767.405363, -7.740304, 31.410130, 8.178294, 1.205139, 8.715025, 0.986707, 76.048416, -4.633194, -275.885864, 13.725960, 100.771814
1759224767.425297, -6.447735, 20.255844, 11.498453, -4.003644, 4.999398, 1.097384, 77.812271, -4.539795, -271.465210, 13.725960, 100.771814
1759224767.445472, -7.690774, 17.725173, 5.849633, -5.121092, -0.082607, 1.505396, 77.735535, -4.486679, -270.519897, 13.725960, 100.771814
1759224767.465304, -6.605303, 18.853740, -4.332158, -2.952177, -1.330994, 0.193240, 77.498444, -4.189819, -272.872375, 13.725960, 100.771814
1759224767.485373, 6.782773, 13.643358, -15.671097, 0.332307, -1.898086, -0.081395, 77.133438, -3.956436, -273.527954, 13.725960, 100.771814
1759224767.505479, 0.467468, 9.566781, -5.741744, 1.055940, -3.362702, -0.828952, 75.789322, -4.142609, -276.339661, 13.725960, 100.771814
1759224767.525350, -3.110218, 7.700501, -1.959205, 1.024631, -2.808750, -1.345859, 75.104218, -3.357056, -279.216064, 13.725960, 100.771814
1759224767.545455, -4.543147, 3.985747, 0.552013, 0.795183, -0.973153, -1.351820, 74.155594, -2.558884, -278.823242, 13.725960, 100.771814
1759224767.565407, -4.913051, -0.385466, 1.564760, 0.687903, -0.129408, -0.997175, 73.997360, -2.004272, -279.360901, 13.725960, 100.771814
1759224767.584462, -3.987693, -3.918261, -0.258125, 0.743899, -0.230871, -0.251170, 74.139496, -1.771103, -279.338623, 13.725960, 100.771814
1759224767.605313, -4.521300, -5.724387, -3.262998, 0.314010, 1.073919, 0.266121, 74.511444, -2.176529, -278.866791, 13.725960, 100.771814
1759224767.625339, -3.288286, -5.731120, -0.512808, -0.480453, 4.424613, 0.406768, 75.589569, -2.878708, -275.818665, 13.725960, 100.771814
1759224767.645401, -1.000327, -5.440823, 0.630722, -0.744492, 7.324006, 0.135729, 76.986221, -2.859650, -270.715149, 13.725960, 100.771814
1759224767.665391, 0.173580, -0.009726, 4.115633, -0.173886, 4.862329, 0.167890, 77.770233, -3.003433, -265.607452, 13.725960, 100.771814
1759224767.684601, 0.523582, 2.245612, 4.003105, 0.437656, 1.411253, 0.628412, 78.076950, -3.407333, -264.260101, 13.725960, 100.771814
1759224767.705278, 2.697966, 7.879916, 3.988141, 1.518521, -1.834317, 0.916725, 77.739761, -4.561096, -265.674713, 13.725960, 100.771814
1759224767.725349, 5.961861, 55.252338, 2.319532, -0.947777, 0.081714, -0.961093, 77.198975, -4.065506, -266.515991, 13.725960, 100.771814
1759224767.745461, 2.277484, 27.437701, -3.289932, 0.094708, 3.945266, -1.511869, 78.037659, -2.354904, -263.201111, 13.725960, 100.771814
1759224767.765328, -0.733524, 5.825691, -0.087089, 1.082051, 2.967278, -0.986512, 77.879578, -1.605240, -259.912720, 13.725960, 100.771814
1759224767.784966, -1.803133, 3.687370, 1.239598, 1.596738, 0.050916, -1.040699, 77.549515, -0.902512, -259.932007, 13.725960, 100.771814
1759224767.805393, 0.772429, 15.283686, 0.939275, 2.933446, -2.921778, -1.548560, 77.720306, 0.198303, -262.364594, 13.725960, 100.771814
1759224767.825306, 2.619257, 26.302101, 6.729951, 2.903338, -4.745405, -2.621918, 76.702301, 1.864304, -266.621155, 13.725960, 100.771814
1759224767.845279, 8.569446, 26.698641, 11.687146, 0.245143, -6.844346, -2.492944, 74.959412, 4.208176, -271.999695, 13.725960, 100.771814
1759224767.865327, 5.710620, 13.769054, 10.020033, -2.452062, -7.257795, -2.216125, 72.415039, 6.369095, -276.724548, 13.725960, 100.771814
1759224767.884987, 6.935404, 13.549984, 7.071724, -4.269797, -2.867111, -2.364982, 70.266266, 9.822067, -278.226807, 13.725960, 100.771814
1759224767.905474, 7.262212, 8.929774, 1.732205, -4.671922, -0.502922, -2.504784, 69.967606, 13.037033, -276.775696, 13.725960, 100.771814
1759224767.925403, 4.617816, 6.321740, -4.571279, -6.129198, 1.610855, -1.989352, 70.027328, 16.518387, -273.602417, 13.725960, 100.771814
1759224767.945460, 5.585672, 5.474192, -35.864542, 0.210485, 2.004455, -0.967366, 69.434998, 17.958023, -271.957703, 13.725960, 100.771814
1759224767.965351, 5.043087, 2.411410, 1.756446, 1.074295, -3.382666, -0.069638, 68.599167, 17.437180, -273.970703, 13.725960, 100.771814
1759224767.985290, 2.450615, 1.193659, 0.030975, 0.807863, -3.428843, 0.205558, 67.504822, 17.280823, -276.224518, 13.725960, 100.771814
1759224768.005284, 2.079215, -0.311994, -0.513856, 0.789197, -2.445066, 0.254366, 66.510437, 16.691559, -277.777649, 13.725960, 100.771814
1759224768.025352, 3.612252, -1.813608, -4.705803, 0.987500, 0.133911, 0.392690, 66.504929, 16.120712, -277.443542, 13.725960, 100.771814
1759224768.045466, 3.335721, -2.671031, -3.848978, 1.600883, 2.665565, 0.658839, 67.473389, 15.590530, -276.405701, 13.725960, 100.771814
1759224768.065345, 2.640056, -0.243311, -0.438588, 1.965857, 1.409172, 1.254895, 68.009766, 14.509033, -275.851593, 13.725946, 100.771818
1759224768.085305, 3.808576, 2.341978, 0.954239, 2.484989, -0.949676, 1.980531, 68.260422, 12.846146, -276.876526, 13.725946, 100.771818
1759224768.105296, 10.851420, 15.462353, 0.939126, 3.630862, -3.540203, 3.180599, 68.026718, 9.718903, -279.979401, 13.725946, 100.771818
1759224768.125309, 20.121170, 47.786170, -0.813131, 4.086429, -1.673306, 6.645537, 68.555939, 4.547241, -281.868591, 13.725946, 100.771818
1759224768.145342, -2.364573, 31.822980, 1.158943, 3.769745, 3.625136, 4.693676, 70.498444, 0.261795, -279.662964, 13.725946, 100.771818
1759224768.165436, -6.507141, 27.602601, 8.764723, 3.074306, 8.658723, 1.957242, 73.502029, -1.887283, -273.191498, 13.725946, 100.771818
1759224768.185493, -7.854179, 20.468479, 9.184008, -2.169117, 6.766628, 1.701585, 75.149475, -2.818832, -267.516418, 13.725946, 100.771818
1759224768.204351, -7.490260, 16.206950, 1.345092, -3.554814, 1.123972, 2.068709, 75.651627, -3.831940, -266.467407, 13.725946, 100.771818
1759224768.225373, -4.330662, 16.580445, -4.291158, -2.664239, -1.263527, 0.386447, 76.196640, -3.967529, -267.282349, 13.725946, 100.771818
1759224768.245468, 6.190657, 12.435334, -5.323507, -0.984429, -0.567954, -0.460287, 76.581299, -3.328491, -268.459778, 13.725946, 100.771818
1759224768.265420, 5.423316, 7.700052, -2.072780, -0.384850, -1.607455, -0.249331, 76.157089, -3.054367, -269.617188, 13.725946, 100.771818
1759224768.285357, -2.492514, 5.444115, -0.587178, -0.486316, -1.770239, -0.763694, 75.968079, -1.805161, -270.797729, 13.725946, 100.771818
1759224768.304525, -5.385008, 2.743605, 0.176123, -0.479330, -1.522058, -1.197793, 75.736191, -1.119736, -272.304565, 13.725946, 100.771818
1759224768.325358, -6.184971, -0.438737, -3.830274, 0.076811, -1.022087, -1.575123, 75.448486, -0.007919, -272.992920, 13.725946, 100.771818
1759224768.345469, -4.732140, -2.579603, -4.388123, 0.966084, -0.593340, -1.926855, 75.604431, 1.033356, -273.160980, 13.725946, 100.771818
1759224768.365401, -0.077213, -2.365621, 1.876007, 0.388040, 0.073440, -1.485855, 75.947083, 2.392502, -273.376465, 13.725946, 100.771818
1759224768.385486, 4.625149, -1.830517, 4.429123, -0.959754, 1.556298, -0.759934, 75.852692, 3.448929, -272.054565, 13.725946, 100.771818
1759224768.404880, 5.140201, -2.072032, 0.846201, -1.039797, 3.135128, -0.324789, 77.183228, 4.083908, -269.638947, 13.725946, 100.771818
1759224768.425317, 4.013879, 2.420837, 1.404349, -0.553927, 2.473617, 0.339958, 77.310043, 3.787064, -267.101135, 13.725946, 100.771818
1759224768.445354, 4.015675, 10.137499, -0.358831, -0.403042, 1.318231, 1.340340, 78.553802, 2.644180, -265.571350, 13.725946, 100.771818
1759224768.465413, 0.675315, 31.382447, -3.173365, 0.150016, 0.334977, 1.280668, 78.541840, 1.822205, -265.430420, 13.725946, 100.771818
1759224768.485374, -3.565565, 30.094067, -8.911219, 0.128611, 2.864197, 0.502171, 79.162750, 1.560318, -263.057800, 13.725946, 100.771818
1759224768.504958, -6.046407, 11.863120, 0.193781, 1.630694, 1.829013, -0.145081, 79.264435, 1.777542, -261.827820, 13.725946, 100.771818
1759224768.525332, -5.009268, 4.287566, 1.842338, 1.754406, 1.600028, -0.612093, 79.546326, 1.970245, -260.579193, 13.725946, 100.771818
1759224768.545353, -7.179463, 7.172879, 2.548628, 1.586393, 0.437978, -1.588204, 78.959381, 3.610977, -260.567200, 13.725946, 100.771818
1759224768.565382, -3.259406, 13.783269, 4.947318, 2.057368, -2.032754, -2.996765, 78.250778, 5.822037, -262.872620, 13.725946, 100.771818
1759224768.585497, 1.171812, 26.003724, 8.110358, 1.921815, -5.564740, -3.460498, 77.578415, 8.876724, -267.813354, 13.725946, 100.771818
1759224768.605079, 4.194192, 27.421689, 10.075698, 0.179379, -8.734341, -3.023410, 74.491547, 10.998505, -275.156494, 13.725946, 100.771818
1759224768.625375, 5.124938, 16.834829, 8.597728, -1.758712, -7.651784, -2.619811, 71.442490, 13.444534, -279.694122, 13.725946, 100.771818
1759224768.645350, 9.711032, 14.830134, 7.074716, -3.767623, -1.395437, -2.244481, 70.112778, 16.397827, -278.876892, 13.725946, 100.771818
1759224768.665319, 11.644948, 13.647249, 1.462708, -5.245457, 4.182328, -1.899091, 70.638763, 19.249649, -273.655090, 13.725946, 100.771818
1759224768.685342, 9.615264, 10.588506, -7.294983, -2.757170, 10.691834, -1.830446, 71.736679, 21.452103, -266.244781, 13.725946, 100.771818
1759224768.705299, 8.156596, 11.770045, -33.437720, 1.143834, -1.440833, -0.974884, 71.289780, 22.253372, -264.055420, 13.725946, 100.771818
1759224768.725383, 8.431630, 5.166837, -1.635838, 0.328643, -4.951444, -0.808603, 70.461060, 22.659729, -267.791748, 13.725946, 100.771818
1759224768.745476, 6.117933, 2.837129, 0.974889, 0.270638, -3.523527, -0.358871, 69.326202, 23.132858, -271.321991, 13.725946, 100.771818
1759224768.765426, 4.710891, 0.330250, 0.998382, 0.507837, -2.342937, -0.029366, 69.151108, 22.990967, -273.411072, 13.725946, 100.771818
1759224768.785496, 4.141221, -2.142362, 0.418536, 0.429818, -1.352020, -0.040335, 68.426025, 22.823578, -274.943665, 13.725946, 100.771818
1759224768.805422, 6.181080, -4.105308, -2.289755, 0.737529, 1.015755, 0.147560, 68.447083, 22.406799, -274.926392, 13.725946, 100.771818
1759224768.825310, 7.686884, -3.556437, -3.687968, 1.534259, 1.709010, 1.374047, 69.394226, 21.520035, -274.507690, 13.725946, 100.771818
1759224768.845517, 7.431602, 2.833538, -2.199074, 1.745334, -0.432256, 2.301782, 70.420486, 19.794998, -274.840454, 13.725946, 100.771818
1759224768.865335, 6.123320, 14.407108, -0.103250, 2.921271, -3.905393, 3.673707, 71.215851, 16.735031, -277.888062, 13.725946, 100.771818
1759224768.885408, 13.410522, 34.239927, 0.139462, 4.436685, -5.572334, 6.642974, 70.360504, 11.475540, -282.847412, 13.725946, 100.771818
1759224768.905321, 0.339677, 34.352305, -0.268749, 5.995824, -1.881328, 4.580077, 70.070480, 4.313354, -286.901978, 13.725946, 100.771818
1759224768.925364, -7.000795, 37.422719, 8.604461, 4.300536, 6.178587, 1.162641, 72.476608, 0.198242, -284.767944, 13.725946, 100.771818
1759224768.945382, -6.738481, 26.554091, 16.567576, -1.051735, 7.880513, 0.837512, 75.044785, -0.513687, -279.113251, 13.725946, 100.771818
1759224768.965513, -6.039074, 19.262549, 10.598083, -4.359408, 4.517884, 1.945391, 76.923050, -1.109329, -274.097748, 13.725946, 100.771818
1759224768.985471, -7.901015, 13.077429, 4.591181, -5.187250, -0.068377, 1.144356, 77.611588, -1.027542, -272.720215, 13.725946, 100.771818
1759224769.005341, 6.937050, 12.271930, -23.511210, -0.465171, -1.305254, 0.688759, 77.379257, -1.265686, -272.784546, 13.725946, 100.771818
1759224769.025335, 3.277064, 10.640730, -10.276063, 1.633875, -4.369266, -0.324894, 76.094986, -1.675934, -276.666443, 13.725946, 100.771818
1759224769.045501, -3.253870, 6.543802, -0.101454, 1.220605, -4.398768, -1.226495, 74.412155, -1.221954, -279.482361, 13.725914, 100.771818
1759224769.065497, -5.034557, 2.680758, 1.850119, 0.863046, -4.449809, -1.849259, 72.433517, -0.459503, -283.411438, 13.725914, 100.771818
1759224769.085343, -3.932327, 0.557999, 2.061707, 1.106437, -4.554552, -2.259399, 70.265076, 0.386139, -286.752380, 13.725914, 100.771818
1759224769.104798, -3.042432, -1.814954, 0.448314, 1.311636, -3.846436, -2.427717, 67.579010, 1.217819, -289.954803, 13.725914, 100.771818
1759224769.125383, -1.029357, -3.598934, 0.657508, 0.748579, -1.892654, -2.010072, 65.727386, 1.989395, -290.976410, 13.725914, 100.771818
1759224769.145501, 1.551293, -4.333355, 0.543334, -0.275992, 1.152138, -1.139030, 65.948990, 2.610367, -290.963776, 13.725914, 100.771818
1759224769.165409, 6.562806, -0.594061, 1.893963, -1.476259, 3.134222, 0.101185, 67.422836, 3.409485, -289.482727, 13.725914, 100.771818
1759224769.185379, 3.657143, 1.583315, 5.011962, -1.751135, 1.369746, 0.446691, 68.718307, 4.483505, -287.901520, 13.725914, 100.771818
1759224769.205396, -0.169839, 3.068319, -0.688333, -1.102868, 3.697931, 1.122989, 69.914688, 4.433701, -285.962250, 13.725914, 100.771818
1759224769.225339, -4.331111, 11.299584, -19.740043, -0.882988, 1.933809, 2.145189, 72.390823, 3.486496, -283.439270, 13.725914, 100.771818
1759224769.245371, 1.128567, 19.104383, 5.659743, 1.446386, -3.345332, 2.427417, 70.762924, 1.301117, -285.250732, 13.725914, 100.771818
1759224769.265516, -2.559102, 33.052552, 5.745934, 1.638766, -3.678102, -0.179993, 69.175919, -0.350403, -288.023315, 13.725914, 100.771818
1759224769.285387, -6.197241, 24.254759, 6.295404, -0.050536, -0.756979, -2.754005, 68.143814, 1.602036, -288.792236, 13.725914, 100.771818
1759224769.305425, -2.110339, 7.846098, 4.695927, -1.284686, -1.360512, -3.162804, 67.227737, 3.725540, -289.653503, 13.725914, 100.771818
1759224769.325308, -0.764947, 6.806566, 4.047398, -1.769034, -3.350398, -2.651862, 65.340515, 6.766388, -291.230011, 13.725914, 100.771818
1759224769.344687, -0.908001, 13.301137, 2.272397, -1.036945, -4.735330, -1.948179, 61.849442, 8.549240, -293.460876, 13.725914, 100.771818
1759224769.365380, -2.454206, 21.321264, 3.779397, -1.119384, -3.456756, -2.047038, 58.692429, 10.317963, -294.518494, 13.725914, 100.771818
1759224769.385318, -1.135600, 28.016649, 5.770176, -2.325706, -0.497636, -2.054051, 57.316055, 12.691849, -294.010529, 13.725914, 100.771818
1759224769.404458, 1.453131, 17.812411, 1.797896, -3.962561, 2.026895, -2.295573, 57.827316, 15.831985, -292.463196, 13.725914, 100.771818
1759224769.425327, 3.653402, 11.293449, 0.785747, -5.606598, 2.460210, -2.108585, 58.521866, 20.202881, -289.309387, 13.725914, 100.771818
1759224769.445327, 2.506580, 9.070134, -9.523685, -3.562675, 7.870422, -0.960977, 61.364990, 22.785568, -284.025818, 13.725914, 100.771818
1759224769.465388, 5.516241, 7.847894, -17.935862, -0.490230, 7.036100, 0.589018, 64.916367, 22.939011, -279.741364, 13.725914, 100.771818
1759224769.485322, 2.309507, 6.784868, -2.410363, 0.362198, 1.180485, 0.206018, 65.996414, 22.656372, -278.005554, 13.725914, 100.771818
1759224769.504641, 1.784129, 2.894739, -0.451906, 0.553459, -1.514375, -0.251773, 65.958923, 22.101868, -279.521912, 13.725914, 100.771818
1759224769.525481, 3.248782, 1.407042, -0.356137, 0.403743, -2.176441, -0.038931, 64.580994, 22.085129, -280.841187, 13.725914, 100.771818
1759224769.545339, 7.341221, 0.433051, -1.468543, 0.281623, -1.060495, 1.218467, 64.743454, 21.509995, -281.573425, 13.725914, 100.771818
1759224769.565391, 12.626271, -2.311602, -7.011120, 1.308231, 2.912732, 2.846178, 67.012802, 19.913101, -280.876984, 13.725914, 100.771818
1759224769.585327, 7.977630, -2.341978, -0.720804, 2.042348, 2.561486, 2.940788, 69.173477, 17.493301, -280.248230, 13.725914, 100.771818
1759224769.604968, 6.700622, -1.205929, 0.324863, 2.729898, -0.933129, 2.521318, 69.943100, 14.557251, -281.816742, 13.725914, 100.771818
1759224769.625331, 5.913229, 10.102633, 0.022745, 3.030246, -2.827778, 2.442255, 69.498245, 11.418564, -283.958252, 13.725914, 100.771818
1759224769.645313, 18.069339, 37.581335, -0.428861, 3.324536, -2.837679, 4.831416, 68.880661, 6.990479, -286.725403, 13.725914, 100.771818
1759224769.665315, 2.894291, 41.855134, 1.045518, 2.952937, -2.239896, 5.842511, 68.506653, 1.497116, -288.555908, 13.725914, 100.771818
1759224769.685017, -9.273491, 30.788835, 10.622325, 2.414754, 4.316344, 2.307745, 70.050735, -1.385117, -287.367798, 13.725914, 100.771818
1759224769.705019, -6.575376, 20.607941, 13.092841, -0.637291, 6.779552, 1.150798, 73.666885, -2.629547, -282.245209, 13.725914, 100.771818
1759224769.725381, -9.013421, 17.233015, 4.065055, -2.827181, 1.662125, 1.973217, 74.999313, -2.665955, -280.219727, 13.725914, 100.771818
1759224769.745324, -2.949507, 16.477045, -0.023194, -2.625612, 0.760978, 0.958867, 75.341782, -2.567749, -279.583496, 13.725914, 100.771818
1759224769.765315, 6.013337, 14.006529, -2.653823, -2.040505, 1.392125, 0.109936, 75.695511, -2.336838, -278.898010, 13.725914, 100.771818
1759224769.785323, 4.658219, 9.087043, -6.490381, -1.022304, -0.395948, -0.331965, 75.315674, -1.542374, -278.996765, 13.725914, 100.771818
1759224769.805197, 0.698658, 6.757185, -3.832069, -0.317733, -1.757162, -0.658017, 75.017120, -1.026581, -280.010376, 13.725914, 100.771818
1759224769.825333, -1.953669, 4.493168, -1.242142, -0.153814, -2.069937, -1.099941, 73.812057, -0.063934, -281.519592, 13.725914, 100.771818
1759224769.845370, -2.875137, 1.989881, -1.045967, -0.211200, -1.551780, -1.514554, 73.085907, 1.244705, -282.944458, 13.725914, 100.771818
1759224769.865346, -4.072687, -0.261716, -3.150470, 0.116214, -0.719355, -1.581527, 72.286957, 2.157562, -283.538757, 13.725914, 100.771818
1759224769.885329, -5.238364, -2.634220, -4.894646, 0.887107, -0.777627, -1.717242, 71.482422, 3.052475, -284.013733, 13.725914, 100.771818
1759224769.905316, -1.934515, -2.191143, -0.048183, 0.711457, 0.137749, -1.587730, 71.716431, 3.903900, -284.515472, 13.725914, 100.771818
1759224769.925313, 2.400337, -0.872836, 2.910302, -0.125538, 1.608903, -0.749798, 72.146042, 4.400024, -283.664124, 13.725914, 100.771818
1759224769.945326, 2.255787, 0.866851, 2.768595, -0.246008, 2.814121, 0.044147, 73.702942, 4.731827, -281.271912, 13.725914, 100.771818
1759224769.965332, 1.063026, 1.552041, 2.019958, -0.174814, 2.964339, 0.437355, 74.630005, 3.994263, -278.834717, 13.725914, 100.771818
1759224769.985326, -0.244059, 5.376928, 1.871817, -0.455024, 1.500659, 0.721221, 75.616226, 3.931854, -277.932739, 13.725914, 100.771818
1759224770.005336, 1.552640, 17.455526, 1.294665, 0.047410, 0.375924, 1.045087, 76.165741, 2.859985, -278.033997, 13.725914, 100.771818
1759224770.024366, -0.855777, 37.403715, 1.543512, -0.082214, 0.659405, -0.113601, 76.424545, 2.956558, -277.148560, 13.725914, 100.771818
1759224770.045309, -2.352752, 17.196653, 0.528221, -0.922538, 5.033763, -1.297064, 77.349274, 4.231125, -273.216858, 13.725887, 100.771820
1759224770.065356, -1.206229, 6.351069, -0.274585, -0.474736, 3.292413, -0.761513, 78.061356, 5.146805, -270.359253, 13.725887, 100.771820
1759224770.085334, -3.826383, 8.409633, -0.703596, 0.236415, -0.474920, -1.487809, 77.945053, 6.149155, -270.751770, 13.725887, 100.771820
1759224770.105318, -3.370437, 12.630611, -1.267281, 1.902928, -2.466177, -2.600696, 76.744370, 8.087692, -272.779236, 13.725887, 100.771820
1759224770.124544, -1.676989, 21.566370, 0.499191, 3.126080, -3.251162, -3.803183, 75.059555, 10.025711, -275.823822, 13.725887, 100.771820
1759224770.145379, 3.543718, 24.315811, 4.165163, 2.652236, -4.959337, -3.669698, 71.732391, 11.597855, -280.418030, 13.725887, 100.771820
1759224770.165527, 7.797915, 21.106683, 7.099706, 1.002608, -7.404421, -2.189240, 67.925308, 12.567886, -285.376404, 13.725887, 100.771820
1759224770.185399, 9.408315, 15.422250, 12.157906, -2.079667, -5.327050, -0.997509, 64.794754, 14.494858, -288.374573, 13.725887, 100.771820
1759224770.205363, 9.386019, 13.803919, 8.346636, -4.742459, 2.663008, -0.712390, 66.008041, 17.104355, -284.892029, 13.725887, 100.771820
1759224770.224713, 7.280019, 11.245266, 1.639878, -4.108824, 3.796238, -1.206997, 67.069412, 19.677933, -281.020813, 13.725887, 100.771820
1759224770.245460, 5.813870, 8.650849, 0.364218, -3.659910, 2.476106, -1.372125, 67.516113, 22.292526, -276.846344, 13.725887, 100.771820
1759224770.265528, 10.558878, 8.897302, -47.946881, -2.768058, 9.082301, -0.592558, 69.522415, 23.297699, -270.362488, 13.725887, 100.771820
1759224770.285418, 7.097012, 2.729689, -2.275988, 0.987499, -0.780511, 0.514114, 69.960419, 22.532822, -271.541840, 13.725887, 100.771820
1759224770.305453, 2.167501, 0.834379, 0.925509, 1.078521, -4.250776, 0.563895, 68.855225, 22.137543, -274.946411, 13.725887, 100.771820
1759224770.324948, 2.934543, -0.260369, 0.181062, 1.100394, -4.762165, 0.718864, 67.672424, 21.313736, -278.341003, 13.725887, 100.771820
1759224770.345456, 4.053234, -2.408268, -3.752313, 1.116662, -2.723544, 0.962739, 66.887634, 20.286041, -281.217529, 13.725887, 100.771820
1759224770.364415, 5.074510, -3.724330, -2.717868, 1.640840, 1.418686, 1.198952, 68.187500, 18.571701, -280.570099, 13.725887, 100.771820
1759224770.385346, 5.084087, -1.849222, 0.199766, 1.896145, 2.045205, 1.995270, 69.910034, 16.682556, -280.559265, 13.725887, 100.771820
1759224770.405345, 6.691345, 4.172645, 0.430358, 1.298706, 0.280832, 3.246336, 71.295685, 14.072968, -280.690857, 13.725887, 100.771820
1759224770.425123, 8.964340, 16.086940, 0.484676, 1.591520, -3.111708, 4.244215, 71.204010, 10.409103, -283.591095, 13.725887, 100.771820
1759224770.445315, 12.519580, 54.178539, -2.286762, 3.993898, 1.949196, 6.579138, 71.420532, 4.001740, -285.819397, 13.725887, 100.771820
1759224770.465323, -10.171466, 40.244585, 7.191284, 2.494718, 10.023703, 2.583987, 75.200287, -0.862244, -281.283630, 13.725887, 100.771820
1759224770.485373, -8.340201, 23.387609, 15.177144, -3.051417, 5.846246, 2.146804, 78.019882, -2.764297, -272.987061, 13.725887, 100.771820
1759224770.505403, -6.453421, 16.134974, 4.994305, -4.042922, -0.127513, 2.674741, 78.472137, -4.079697, -271.494812, 13.725887, 100.771820
1759224770.525361, -6.230760, 17.487847, -9.849147, -1.575151, 1.255159, 0.599823, 78.865387, -4.695435, -271.542480, 13.725887, 100.771820
1759224770.545349, 8.749909, 14.729727, -8.256404, 0.067365, -0.782226, 0.342766, 78.804352, -5.045166, -271.319427, 13.725887, 100.771820
1759224770.565328, 4.261080, 10.939107, -4.088249, 0.603723, -2.641623, -0.492837, 78.153519, -5.285095, -273.404114, 13.725887, 100.771820
1759224770.585374, 0.203956, 7.672518, -1.019631, 0.767501, -2.471260, -1.171855, 77.283401, -4.688309, -275.885925, 13.725887, 100.771820
1759224770.605512, -2.242319, 3.930381, 0.259472, 0.749050, -1.696597, -1.465524, 76.658112, -4.122574, -277.317566, 13.725887, 100.771820
1759224770.625328, -3.566014, 0.700154, 1.918204, 0.646142, -0.737432, -1.514841, 76.374680, -3.073181, -277.834503, 13.725887, 100.771820
1759224770.645320, -4.615871, -2.688389, 2.801814, 0.280661, -0.220690, -1.467955, 76.050903, -1.906708, -278.213501, 13.725887, 100.771820
1759224770.665332, -4.001609, -4.528932, 2.838027, -0.453986, 0.958459, -1.081252, 76.182022, -0.978180, -277.913574, 13.725887, 100.771820
1759224770.685341, -3.052009, -5.264550, 1.423203, -0.977662, 2.359237, -0.864853, 76.762451, -0.013474, -276.386230, 13.725887, 100.771820
1759224770.705328, 0.056413, -4.572925, -0.675015, -0.640873, 4.262795, -0.603631, 77.954575, 0.800613, -273.764587, 13.725887, 100.771820
1759224770.725343, 3.765630, 0.475399, 2.003199, -0.273176, 3.781850, -0.357971, 78.735748, 1.354904, -269.983154, 13.725887, 100.771820
1759224770.745339, 3.374178, 3.262998, 0.968455, -0.401907, 0.638365, 0.034617, 78.712509, 0.924194, -268.116394, 13.725887, 100.771820
1759224770.765526, 4.427178, 12.018593, -2.277634, -0.225115, -0.982810, 0.911399, 78.548538, 0.531998, -269.023376, 13.725887, 100.771820
1759224770.785394, 3.431190, 31.094245, -3.509750, 1.290233, 0.890324, 0.532351, 78.685623, -0.351486, -269.837433, 13.725887, 100.771820
1759224770.805331, -2.835034, 38.465693, -1.974169, 1.725838, 1.991634, -0.242985, 78.673050, -0.713806, -267.454285, 13.725887, 100.771820
1759224770.825332, -6.364536, 11.661707, 1.058985, 1.989350, 2.472442, -0.798540, 78.795090, -0.366669, -266.169678, 13.725887, 100.771820
1759224770.845413, -5.211728, 3.518728, 3.023278, 1.201187, 1.466151, -1.228811, 79.111496, 0.567474, -264.364441, 13.725887, 100.771820
1759224770.865535, -6.999149, 7.152079, 3.770568, 0.833871, -0.407369, -2.568977, 79.109268, 1.883774, -264.314117, 13.725887, 100.771820
1759224770.885373, -3.150620, 16.486922, 2.179472, 2.128272, -3.073226, -3.430547, 78.173401, 4.682510, -265.891663, 13.725887, 100.771820
1759224770.905340, -0.224007, 26.964846, 3.056947, 2.744821, -6.400656, -3.708028, 76.477417, 7.300186, -270.326385, 13.725887, 100.771820
1759224770.925404, 5.591808, 29.303981, 7.863456, 0.982114, -8.911411, -2.805905, 73.554306, 9.229263, -276.996643, 13.725887, 100.771820
1759224770.945413, 10.725275, 17.541717, 8.448090, -2.491245, -3.279724, -1.795793, 70.308044, 11.261703, -281.091309, 13.725887, 100.771820
1759224770.965532, 11.445631, 13.044209, 8.803629, -4.884925, 1.962296, -1.680457, 70.040436, 14.148499, -279.297424, 13.725887, 100.771820
1759224770.985389, 10.439019, 11.937938, 2.559252, -3.868124, 2.761115, -1.909719, 70.593353, 16.867538, -275.421326, 13.725887, 100.771820
1759224771.005523, 8.195951, 9.080309, 0.601094, -4.533405, 4.859697, -1.871739, 70.834229, 19.227051, -271.975647, 13.725887, 100.771820
1759224771.025535, 8.876054, 8.488193, -40.318206, -0.435003, 2.607144, -0.820616, 70.883652, 20.846375, -266.940674, 13.725887, 100.771820
1759224771.045338, 8.465897, 5.001637, -7.684340, 0.670002, -4.096280, -0.048139, 70.043884, 20.729034, -269.035400, 13.725887, 100.771820
1759224771.065361, 5.128530, 2.245911, 1.321300, 0.490736, -4.150775, 0.314929, 69.539764, 20.373154, -272.066833, 13.725871, 100.771831
1759224771.085390, 2.839822, 1.031153, 0.038756, 0.670103, -2.851571, 0.355975, 68.176102, 20.183716, -274.505798, 13.725871, 100.771831
1759224771.105541, 2.369661, -2.195932, -0.805649, 0.379222, -0.306326, 0.111427, 67.928329, 19.899841, -275.403992, 13.725871, 100.771831
1759224771.125437, 3.169324, -3.075651, -2.829348, 0.822929, 1.684206, 0.264958, 68.411316, 20.038589, -274.971924, 13.725871, 100.771831
1759224771.145363, 3.875913, -2.861520, -2.359037, 1.519510, 1.204869, 0.875111, 68.607468, 18.940323, -274.755127, 13.725871, 100.771831
1759224771.165538, 5.156213, -1.222390, -0.512808, 1.844485, -0.548975, 2.034628, 69.586945, 17.671356, -274.711670, 13.725871, 100.771831
1759224771.185386, 6.209212, 5.177461, 1.817798, 2.583982, -2.599509, 3.226261, 70.047394, 15.045425, -276.777069, 13.725871, 100.771831
1759224771.205532, 14.233978, 31.451430, -1.534085, 3.520930, -0.699172, 6.199320, 70.665802, 10.441788, -279.337585, 13.725871, 100.771831
1759224771.224717, 3.247735, 53.538689, -2.692878, 4.395354, 6.188513, 4.857693, 73.046707, 4.967026, -276.976929, 13.725871, 100.771831
1759224771.245410, -8.395118, 32.039506, 6.094291, 1.588793, 7.379512, 2.390362, 75.652084, 1.994705, -271.985382, 13.725871, 100.771831
1759224771.265537, -9.964967, 24.854357, 10.048315, -2.054792, 2.995424, 2.089135, 76.847717, 0.662628, -267.830719, 13.725871, 100.771831
1759224771.285387, -6.959046, 15.622914, 4.554819, -2.425272, 0.022910, 2.398036, 77.253220, -0.885071, -267.747589, 13.725871, 100.771831
1759224771.305424, -8.015039, 16.108189, 3.346795, -2.438133, -1.123484, 0.365418, 77.772522, -0.871246, -268.354279, 13.725871, 100.771831
1759224771.324896, 7.587225, 12.017396, -8.077587, -0.753613, -0.883221, 0.321765, 76.986771, -1.158249, -268.429810, 13.725871, 100.771831
1759224771.345394, -4.145111, 7.003788, -4.167707, 0.869782, -3.411094, -0.466700, 76.544373, -0.857956, -271.563538, 13.725871, 100.771831
1759224771.365344, -4.705803, 3.989339, 0.881066, 0.996953, -4.165018, -0.986030, 75.849228, -0.426224, -274.317627, 13.725871, 100.771831
1759224771.385349, -6.484994, 2.100313, 2.380585, 0.477618, -3.421008, -1.041944, 74.127609, 0.528473, -277.840424, 13.725871, 100.771831
1759224771.405349, -6.072593, -0.718859, 2.823961, -0.124060, -0.784598, -0.465512, 73.486954, 0.964783, -279.004272, 13.725871, 100.771831
1759224771.424885, -4.348169, -4.285920, 1.591246, -1.185772, 1.474010, 0.683583, 74.270996, 1.165741, -278.744812, 13.725871, 100.771831
1759224771.445334, -10.179996, -9.117569, -12.431742, -0.483630, 2.178574, 1.020827, 74.930496, 0.652985, -276.896393, 13.725871, 100.771831
1759224771.465345, -0.545878, -7.297976, -2.555661, 0.606842, 3.405421, -0.157701, 75.800018, 0.569305, -273.843079, 13.725871, 100.771831
1759224771.484492, 7.171981, 2.243966, 8.483854, 0.113692, 4.696422, -0.210493, 77.442978, 0.652390, -270.072998, 13.725871, 100.771831
1759224771.505345, 3.373131, 3.792864, 4.437054, -0.292129, 4.005426, 0.378333, 78.205414, 0.607346, -266.531189, 13.725871, 100.771831
1759224771.525086, 1.565808, 11.811944, -17.223288, -0.669607, 3.337109, -0.083209, 78.535049, 0.567566, -263.883484, 13.725871, 100.771831
1759224771.545336, 3.180398, 7.079505, 6.699425, 0.535940, 1.916654, 0.725229, 79.298676, 0.242844, -262.209961, 13.725871, 100.771831
1759224771.565344, 2.617461, 43.749397, 4.276044, 2.809808, -2.833431, 2.248842, 78.959518, -1.867096, -263.817902, 13.725871, 100.771831
1759224771.585352, -4.911405, 19.539978, 6.069900, 1.149208, -0.419615, -0.628017, 79.029541, -1.653503, -264.144470, 13.725871, 100.771831
1759224771.605357, -3.918560, 8.324041, 4.068646, -0.808836, 2.094321, -1.896218, 79.299820, -0.394028, -263.129822, 13.725871, 100.771831
1759224771.625287, -3.951480, 9.684097, 2.041356, -1.140088, 1.377814, -2.981047, 78.755722, 2.247406, -261.108398, 13.725871, 100.771831
1759224771.645337, -0.468515, 16.941371, -0.049530, 0.217191, -1.132809, -3.748160, 78.598389, 5.592987, -261.675293, 13.725871, 100.771831
1759224771.665350, 3.001730, 23.027432, 2.111387, 1.363182, -4.024215, -3.410587, 77.756577, 7.959290, -265.287537, 13.725871, 100.771831
1759224771.685354, 6.936750, 24.385842, 3.310882, 0.967451, -5.819350, -2.831956, 76.016739, 10.368088, -269.787231, 13.725871, 100.771831
1759224771.705346, 7.464971, 17.317261, 1.998410, -0.923680, -4.292549, -2.623592, 74.234055, 12.314163, -273.826538, 13.725871, 100.771831
1759224771.725350, 8.743475, 15.415965, 1.478868, -1.861632, -2.423807, -2.473700, 72.673569, 15.295044, -275.278595, 13.725871, 100.771831
1759224771.745350, 11.818228, 14.870387, 4.089446, -1.817908, 0.008638, -1.815659, 72.093124, 17.084854, -274.303192, 13.725871, 100.771831
1759224771.765367, 10.550648, 9.897330, 3.127127, -1.512934, 2.179597, -1.369595, 71.884140, 18.480621, -273.116638, 13.725871, 100.771831
1759224771.785357, 5.630264, 5.298518, -1.202039, -3.292303, 4.096824, -0.976106, 72.645859, 20.038742, -269.036743, 13.725871, 100.771831
1759224771.805350, 10.575189, 6.316802, -31.181783, -1.124833, 5.053966, -0.503215, 73.115707, 20.537186, -264.110931, 13.725871, 100.771831
1759224771.825364, 7.516446, 2.553715, -0.739808, 0.820449, -3.464124, 0.486190, 72.872620, 20.222153, -266.323425, 13.725871, 100.771831
1759224771.844469, 1.876007, 0.024391, 1.030853, 0.882739, -5.006855, 0.588776, 72.246979, 19.821350, -270.238586, 13.725871, 100.771831
1759224771.865354, 1.621024, -2.294842, 0.076315, 0.665781, -3.652398, 0.310763, 72.073868, 19.070984, -273.306366, 13.725871, 100.771831
1759224771.885364, 1.828871, -3.646968, -2.446126, 0.123220, -1.040318, -0.329140, 71.361877, 19.390167, -275.091400, 13.725871, 100.771831
1759224771.905365, 3.356222, -3.177704, -4.781370, 0.862898, 1.881968, -0.400399, 71.773758, 19.482849, -274.361938, 13.725871, 100.771831
1759224771.925377, 4.297293, -0.193033, -0.382923, 1.749064, 1.371312, 0.484172, 72.126801, 18.901779, -273.674133, 13.725871, 100.771831
1759224771.945370, 4.716577, 3.298162, 0.921468, 2.508877, -0.930784, 1.724916, 72.563095, 16.641129, -275.567810, 13.725871, 100.771831
1759224771.965379, 11.584943, 21.267244, 1.132757, 3.858740, -4.288887, 2.909457, 72.531921, 13.447357, -279.672791, 13.725871, 100.771831
1759224771.985441, 17.083227, 48.737267, 0.823605, 2.947201, -3.077734, 6.221687, 72.729309, 7.854874, -283.614075, 13.725871, 100.771831
1759224772.005567, -2.109292, 28.822297, 1.317559, 3.226336, 0.243985, 3.853189, 73.238007, 3.091782, -284.235962, 13.725871, 100.771831
1759224772.025384, -6.255001, 25.922470, 9.694721, 3.473493, 4.312977, 1.441666, 75.286728, 0.409927, -281.220886, 13.725871, 100.771831
1759224772.044837, -4.416105, 23.105692, 13.728203, 0.005964, 4.551839, 1.346366, 76.912140, -1.304230, -277.826233, 13.725871, 100.771831
1759224772.065556, -9.412505, 19.826833, 7.094319, -3.219818, 3.645677, 1.730876, 78.335632, -1.660339, -274.356201, 13.725841, 100.771830
1759224772.085429, -8.346486, 16.759561, 1.692701, -4.609206, 1.877701, 1.174968, 78.673691, -1.787323, -272.619568, 13.725841, 100.771830
1759224772.105464, 5.719598, 10.239103, -11.974749, -2.851199, -0.269714, 0.258879, 78.894272, -1.311554, -272.785095, 13.725841, 100.771830
1759224772.125509, 3.683330, 6.765565, -7.794024, -0.190006, -2.116189, 0.006724, 78.098282, -1.197205, -274.582825, 13.725841, 100.771830
1759224772.145457, -4.630835, 5.359271, -1.395969, 0.319000, -2.642716, -0.581974, 77.459839, -0.919708, -276.464020, 13.725841, 100.771830
1759224772.165451, -7.719505, 3.654450, 0.650026, -0.222611, -1.880372, -0.977413, 76.221619, -0.705978, -278.142517, 13.725841, 100.771830
1759224772.185376, -8.479364, 1.319055, -0.541090, -0.273193, -0.909720, -1.135301, 76.103455, 0.560699, -278.914429, 13.725841, 100.771830
1759224772.205359, -7.291541, -2.205359, -4.262427, 0.640419, -0.149043, -1.502263, 75.651093, 1.219559, -279.574707, 13.725841, 100.771830
1759224772.225377, -3.770718, -4.521599, -3.483713, 0.681568, 1.373067, -1.171672, 75.507004, 2.679184, -279.837280, 13.725841, 100.771830
1759224772.245256, 1.901894, -4.587889, 1.025167, -0.322816, 3.301322, -0.461515, 76.513855, 2.794067, -277.356506, 13.725841, 100.771830
1759224772.265356, 5.002984, -1.632397, 5.196016, -1.125244, 4.018618, -0.032239, 77.560333, 3.232758, -274.060059, 13.725841, 100.771830
