SamplingTime,AccelerationX,AccelerationY,AccelerationZ,GyroX,GyroY,GyroZ,duration,subject,activity
1759486006.79144,-4.954052,8.034043,-2.740313,-0.001082,-0.02193,0.015281,30.01992,1,IDLE
1759486006.81144,-4.953304,8.051102,-2.719663,-0.003767,-0.012514,0.013833,30.03992,1,IDLE
1759486006.83097,-4.934749,8.078785,-2.701557,-0.007364,-0.012528,0.011123,30.05945,1,IDLE
1759486006.85143,-4.93445,8.072201,-2.743456,-0.005499,-0.012489,0.012345,30.07991,1,IDLE
1759486006.87141,-4.96333,8.051401,-2.72939,-0.001024,-0.012328,0.012525,30.09989,1,IDLE
1759486006.89141,-4.951957,8.038382,-2.698864,-0.003648,-0.009295,0.009636,30.11989,1,IDLE
1759486006.91141,-4.923376,8.062175,-2.68794,-0.007889,-0.000894,0.005892,30.13989,1,IDLE
1759486006.93099,-4.901679,8.079682,-2.688539,-0.011469,0.00367,0.005545,30.15947,1,IDLE
1759486006.95142,-4.864718,8.117391,-2.675071,-0.011534,0.002975,0.005094,30.17990,1,IDLE
1759486006.97144,-4.885069,8.109161,-2.705897,-0.004682,-0.008402,0.008668,30.19992,1,IDLE
1759486006.99140,-4.879084,8.122179,-2.712032,0.004784,-0.017265,0.007568,30.21988,1,IDLE
1759486007.01143,-4.89315,8.084321,-2.708141,0.008238,-0.018198,0.005007,30.23991,1,IDLE
1759486007.03101,-4.910807,8.066514,-2.69647,0.003123,-0.011836,0.004984,30.25949,1,IDLE
1759486007.05143,-4.92996,8.067861,-2.703652,0.000982,-0.007891,0.004583,30.27991,1,IDLE
1759486007.07142,-4.940585,8.067262,-2.709039,-0.002688,-0.003537,0.002075,30.29990,1,IDLE
1759486007.09140,-4.950461,8.078635,-2.700211,-0.005461,-0.000247,0.002711,30.31988,1,IDLE
1759486007.11142,-4.919037,8.074894,-2.701557,-0.00564,-0.00085,0.002276,30.33990,1,IDLE
1759486007.13103,-4.927716,8.054394,-2.707393,-0.003334,-0.001537,0.0018,30.35951,1,IDLE
1759486007.15143,-4.923676,8.068011,-2.703054,0.000137,0.002319,0.000931,30.37991,1,IDLE
1759486007.17142,-4.933701,8.087164,-2.693327,0.000549,0.00212,0.000098,30.39990,1,IDLE
1759486007.19140,-4.923227,8.092851,-2.659808,-0.001441,-0.002488,0.000709,30.41988,1,IDLE
1759486007.21141,-4.917391,8.071003,-2.681057,0.000215,-0.00837,0.001092,30.43989,1,IDLE
1759486007.23105,-4.916792,8.061576,-2.686145,-0.003407,-0.009041,0.005599,30.45953,1,IDLE
1759486007.25141,-4.922179,8.062175,-2.702455,-0.006142,-0.005178,0.007479,30.47989,1,IDLE
1759486007.27141,-4.933402,8.075343,-2.742558,-0.004647,-0.001796,0.010313,30.49989,1,IDLE
1759486007.29140,-4.942081,8.074595,-2.733131,-0.001919,0.01258,0.007895,30.51988,1,IDLE
1759486007.31141,-4.966921,8.06023,-2.687791,-0.003283,0.013402,-0.002061,30.53989,1,IDLE
1759486007.33106,-4.916044,8.084022,-2.65487,-0.007344,0.005266,-0.004826,30.55954,1,IDLE
1759486007.35141,-4.896891,8.074744,-2.700659,-0.001209,-0.000717,-0.002041,30.57989,1,IDLE
1759486007.37141,-4.902577,8.092102,-2.697068,0.000577,-0.007517,0.003926,30.59989,1,IDLE
1759486007.39140,-4.907664,8.100332,-2.722806,-0.000849,-0.005163,0.007469,30.61988,1,IDLE
1759486007.41142,-4.903624,8.096292,-2.723704,-0.002066,0.003705,0.007526,30.63990,1,IDLE
1759486007.43105,-4.91784,8.054693,-2.709338,-0.002578,0.006262,0.00477,30.65953,1,IDLE
1759486007.45143,-4.939986,8.054244,-2.694075,0.000293,-0.001779,-0.00232,30.67991,1,IDLE
1759486007.47143,-4.928763,8.067262,-2.708441,0.000289,-0.007344,-0.000443,30.69991,1,IDLE
1759486007.49093,-4.931906,8.072949,-2.696769,-0.002496,-0.007747,0.001598,30.71941,1,IDLE
1759486007.51143,-4.918738,8.062923,-2.734478,-0.003204,-0.00275,0.003523,30.73991,1,IDLE
1759486007.53108,-4.952256,8.059032,-2.734777,-0.003745,0.001693,0.005535,30.75956,1,IDLE
1759486007.55142,-4.972308,8.047959,-2.727744,-0.003555,0.006776,0.000357,30.77990,1,IDLE
1759486007.57143,-4.959289,8.057536,-2.685696,-0.007067,0.008813,-0.005366,30.79991,1,IDLE
1759486007.59140,-4.905869,8.06008,-2.701408,-0.003926,0.004934,-0.001852,30.81988,1,IDLE
1759486007.61142,-4.914398,8.073398,-2.697816,-0.001988,0.000114,-0.001195,30.83990,1,IDLE
1759486007.63108,-4.905121,8.08881,-2.701258,-0.003826,-0.005077,0.001419,30.85956,1,IDLE
1759486007.65143,-4.90527,8.087613,-2.692729,-0.002394,-0.002026,0.003925,30.87991,1,IDLE
1759486007.67142,-4.918139,8.08492,-2.716521,-0.001966,0.000932,0.003572,30.89990,1,IDLE
1759486007.69140,-4.910508,8.07235,-2.713229,-0.001362,0.001305,0.003271,30.91988,1,IDLE
1759486007.71142,-4.910657,8.072799,-2.705448,-0.004182,0.003257,0.006758,30.93990,1,IDLE
1759486007.73112,-4.925172,8.071452,-2.696919,-0.007531,0.000976,0.009584,30.95960,1,IDLE
1759486007.75143,-4.947318,8.070255,-2.704999,-0.001478,-0.005451,0.006092,30.97991,1,IDLE
1759486007.77144,-4.973804,8.064569,-2.722357,0.000002,-0.004044,-0.000401,30.99992,1,IDLE
1759486007.79142,-4.953603,8.051102,-2.730587,-0.004892,0.011977,-0.002433,31.01990,1,IDLE
1759486007.81145,-4.925322,8.050353,-2.726846,-0.005171,0.011443,-0.00695,31.03993,1,IDLE
1759486007.83114,-4.909311,8.067711,-2.70874,-0.001444,-0.004125,-0.003302,31.05962,1,IDLE
1759486007.85143,-4.885668,8.077438,-2.678513,-0.001892,-0.015436,0.005409,31.07991,1,IDLE
1759486007.87147,-4.89719,8.08881,-2.718466,-0.002286,-0.005466,0.013541,31.09995,1,IDLE
1759486007.89139,-4.944326,8.048558,-2.735525,-0.005532,0.011404,0.013339,31.11987,1,IDLE
1759486007.91143,-4.985626,8.044966,-2.69228,-0.00214,0.009787,0.003558,31.13991,1,IDLE
1759486007.93116,-4.995352,8.042872,-2.670882,-0.003843,-0.001091,-0.007515,31.15964,1,IDLE
1759486007.95145,-4.976797,8.069956,-2.680608,-0.006657,-0.005141,-0.010179,31.17993,1,IDLE
1759486007.97142,-4.93445,8.083423,-2.71697,-0.004554,-0.000446,-0.005579,31.19990,1,IDLE
1759486007.99140,-4.909311,8.075941,-2.752733,0.00009,0.00551,0.002682,31.21988,1,IDLE
1759486008.01141,-4.897788,8.068909,-2.724751,0.001873,0.005561,0.005948,31.23989,1,IDLE
1759486008.03118,-4.909311,8.069507,-2.68405,-0.000537,0.004502,0.007302,31.25966,1,IDLE
1759486008.05143,-4.92996,8.06397,-2.665644,-0.00325,-0.007646,0.005899,31.27991,1,IDLE
1759486008.07143,-4.954501,8.067412,-2.703054,0.000304,-0.011692,0.004151,31.29991,1,IDLE
1759486008.09140,-4.976348,8.04751,-2.742408,-0.001757,-0.004956,0.003521,31.31988,1,IDLE
1759486008.11142,-4.962432,8.053496,-2.754828,-0.001978,0.003096,0.001786,31.33990,1,IDLE
1759486008.13119,-4.923526,8.05993,-2.730437,-0.005236,0.007598,0.000911,31.35967,1,IDLE
1759486008.15143,-4.912603,8.06008,-2.703652,-0.005481,0.008446,0.003495,31.37991,1,IDLE
1759486008.17143,-4.92607,8.06397,-2.699163,-0.006561,0.000012,0.00814,31.39991,1,IDLE
1759486008.19139,-4.945074,8.064868,-2.709039,-0.002241,-0.00253,0.00711,31.41987,1,IDLE
1759486008.21143,-4.948516,8.054094,-2.710984,-0.002501,-0.003669,0.004627,31.43991,1,IDLE
1759486008.23121,-4.957494,8.042273,-2.702904,-0.004811,0.004175,-0.001367,31.45969,1,IDLE
1759486008.25142,-4.938639,8.06427,-2.709787,-0.007753,0.012463,-0.00054,31.47990,1,IDLE
1759486008.27144,-4.898237,8.088212,-2.694225,-0.008766,0.008588,0.000754,31.49992,1,IDLE
1759486008.29143,-4.902278,8.086566,-2.674772,-0.007426,-0.004493,0.006595,31.51991,1,IDLE
1759486008.31143,-4.913201,8.06831,-2.705897,-0.004201,-0.016588,0.009515,31.53991,1,IDLE
1759486008.33120,-4.940585,8.066963,-2.756624,-0.000184,-0.010145,0.012354,31.55968,1,IDLE
1759486008.35143,-4.972906,8.046014,-2.75423,-0.002457,0.004252,0.012236,31.57991,1,IDLE
1759486008.37141,-4.951957,8.068011,-2.714276,-0.003755,0.012425,0.009766,31.59989,1,IDLE
1759486008.39140,-4.915895,8.083573,-2.674323,-0.004526,0.002457,0.003795,31.61988,1,IDLE
1759486008.41143,-4.907216,8.073098,-2.691681,-0.001398,-0.015469,0.002773,31.63991,1,IDLE
1759486008.43124,-4.93445,8.06816,-2.721908,-0.001177,-0.019681,0.011055,31.65972,1,IDLE
1759486008.45145,-4.946121,8.078186,-2.722058,-0.005326,-0.011591,0.018684,31.67993,1,IDLE
1759486008.47143,-4.939837,8.074595,-2.726696,-0.009444,0.001324,0.020881,31.69991,1,IDLE
1759486008.49140,-4.930709,8.050802,-2.718466,-0.010043,0.013132,0.017401,31.71988,1,IDLE
1759486008.51143,-4.942231,8.033594,-2.662652,-0.007913,0.00258,0.006022,31.73991,1,IDLE
1759486008.53126,-4.912603,8.08073,-2.695273,-0.004975,-0.011135,0.004548,31.75974,1,IDLE
1759486008.55143,-4.922479,8.084172,-2.70455,-0.00161,-0.013191,0.012344,31.77991,1,IDLE
1759486008.57143,-4.952107,8.079982,-2.727894,-0.003385,-0.006663,0.014567,31.79991,1,IDLE
1759486008.59140,-4.950461,8.063222,-2.703203,-0.005008,0.001528,0.01193,31.81988,1,IDLE
1759486008.61140,-4.922778,8.054244,-2.705897,-0.006898,0.001314,0.010373,31.83988,1,IDLE
1759486008.63127,-4.895693,8.077438,-2.695871,-0.004482,0.001451,0.008481,31.85975,1,IDLE
1759486008.65143,-4.89704,8.075044,-2.675371,-0.003195,-0.006364,0.009614,31.87991,1,IDLE
1759486008.67142,-4.897339,8.09315,-2.68375,-0.00335,-0.010573,0.009119,31.89990,1,IDLE
1759486008.69140,-4.904073,8.095245,-2.692429,-0.005356,-0.014668,0.012826,31.91988,1,IDLE
1759486008.71141,-4.918588,8.064719,-2.736423,-0.004565,-0.009227,0.016572,31.93989,1,IDLE
1759486008.73129,-4.927566,8.067562,-2.739865,-0.004519,-0.002402,0.017091,31.95977,1,IDLE
1759486008.75142,-4.942081,8.054992,-2.715773,-0.007324,0.00568,0.015921,31.97990,1,IDLE
1759486008.77142,-4.948516,8.055142,-2.668338,-0.008747,0.005387,0.012386,31.99990,1,IDLE
1759486008.79142,-4.921282,8.078635,-2.672228,-0.010943,-0.000907,0.010714,32.01990,1,IDLE
1759486008.81117,-4.872799,8.097489,-2.682703,-0.008916,-0.006292,0.008308,32.03965,1,IDLE
1759486008.83129,-4.825065,8.134749,-2.701258,-0.002743,-0.010194,0.009039,32.05977,1,IDLE
1759486008.85140,-4.847211,8.109161,-2.703503,0.003712,-0.01459,0.012672,32.07988,1,IDLE
1759486008.87141,-4.895245,8.10557,-2.681655,0.001875,-0.015756,0.008739,32.09989,1,IDLE
1759486008.89140,-4.93011,8.095394,-2.678363,-0.001578,-0.015249,0.010139,32.11988,1,IDLE
1759486008.91140,-4.923825,8.072201,-2.706346,-0.004839,-0.006094,0.011929,32.13988,1,IDLE
1759486008.93130,-4.934001,8.044966,-2.708441,-0.007516,-0.003396,0.012111,32.15978,1,IDLE
1759486008.95140,-4.931307,8.053346,-2.703203,-0.00802,0.002992,0.008693,32.17988,1,IDLE
1759486008.97140,-4.933253,8.093599,-2.666841,-0.006055,0.000449,0.002758,32.19988,1,IDLE
1759486008.99139,-4.914847,8.107216,-2.644545,-0.005028,-0.006496,0.003084,32.21987,1,IDLE
1759486009.01142,-4.884471,8.123975,-2.669984,-0.003761,-0.011337,0.006789,32.23990,1,IDLE
1759486009.03134,-4.898836,8.116942,-2.686893,-0.002531,-0.010271,0.009633,32.25982,1,IDLE
1759486009.05142,-4.906018,8.091803,-2.702754,-0.003837,-0.003707,0.011609,32.27990,1,IDLE
1759486009.07142,-4.915895,8.042722,-2.71697,-0.003707,0.00777,0.010768,32.29990,1,IDLE
1759486009.09140,-4.9343,8.04347,-2.695721,-0.001373,0.014676,0.009209,32.31988,1,IDLE
1759486009.11143,-4.943278,8.083723,-2.622698,-0.002021,0.000148,0.000022,32.33991,1,IDLE
1759486009.13136,-4.928464,8.098686,-2.63856,-0.005391,-0.008652,-0.002505,32.35984,1,IDLE
1759486009.15141,-4.913949,8.10527,-2.698714,-0.005798,-0.005074,0.000183,32.37989,1,IDLE
1759486009.17142,-4.916493,8.085668,-2.752883,-0.00485,0.007407,0.002938,32.39990,1,IDLE
1759486009.19139,-4.914847,8.066365,-2.735076,-0.004821,0.015945,0.004723,32.41987,1,IDLE
1759486009.21143,-4.884321,8.078036,-2.705598,-0.003556,0.017624,0.004185,32.43991,1,IDLE
1759486009.23137,-4.872799,8.113949,-2.652027,-0.003298,0.010194,0.00318,32.45985,1,IDLE
1759486009.25142,-4.872949,8.135048,-2.665944,-0.004389,0.002794,0.003725,32.47990,1,IDLE
1759486009.27143,-4.865766,8.127417,-2.676119,-0.003982,-0.001952,0.004871,32.49991,1,IDLE
1759486009.29140,-4.909909,8.09734,-2.686294,-0.001659,-0.008769,0.007419,32.51988,1,IDLE
1759486009.31143,-4.915895,8.074744,-2.707543,-0.000541,-0.00233,0.005363,32.53991,1,IDLE
1759486009.33139,-4.902577,8.08073,-2.720412,-0.002467,0.008982,-0.000262,32.55987,1,IDLE
1759486009.35142,-4.878934,8.093898,-2.679112,-0.004659,0.010323,-0.00141,32.57990,1,IDLE
1759486009.37141,-4.867562,8.107964,-2.668637,-0.001464,0.003422,-0.00282,32.59989,1,IDLE
1759486009.39139,-4.878934,8.112603,-2.687791,0.003782,-0.01031,0.000717,32.61987,1,IDLE
1759486009.41141,-4.893599,8.111854,-2.709039,0.00578,-0.011203,0.000304,32.63989,1,IDLE
1759486009.43141,-4.9135,8.065766,-2.695422,-0.000261,-0.004944,-0.000402,32.65989,1,IDLE
1759486009.45141,-4.893,8.076241,-2.724302,-0.002147,0.007572,-0.000791,32.67989,1,IDLE
1759486009.47143,-4.904971,8.072649,-2.707842,-0.005034,0.006102,-0.001222,32.69991,1,IDLE
1759486009.49139,-4.897489,8.088212,-2.685696,-0.002407,-0.002182,-0.000459,32.71987,1,IDLE
1759486009.51143,-4.920982,8.071752,-2.693477,0.001174,-0.007489,0.001686,32.73991,1,IDLE
1759486009.53142,-4.933402,8.063671,-2.719065,0.000215,0.001493,0.003269,32.75990,1,IDLE
1759486009.55142,-4.952107,8.073547,-2.715324,-0.003438,0.014236,0.004014,32.77990,1,IDLE
1759486009.57140,-4.948964,8.072649,-2.711284,-0.006369,0.018395,-0.001341,32.79988,1,IDLE
1759486009.59140,-4.924125,8.085219,-2.674623,-0.004147,0.006513,-0.004091,32.81988,1,IDLE
1759486009.61142,-4.907066,8.076241,-2.676568,-0.001821,-0.001357,0.000915,32.83990,1,IDLE
1759486009.63141,-4.90108,8.069058,-2.661305,-0.007456,-0.008219,0.003085,32.85989,1,IDLE
1759486009.65094,-4.894796,8.084321,-2.714276,-0.009131,0.003686,0.006405,32.87942,1,IDLE
1759486009.67141,-4.917989,8.071602,-2.732233,-0.006614,0.012768,0.005668,32.89989,1,IDLE
1759486009.69139,-4.935647,8.078336,-2.703353,-0.002308,0.006807,-0.000859,32.91987,1,IDLE
1759486009.71146,-4.921581,8.088212,-2.687491,0.001695,-0.003957,-0.005981,32.93994,1,IDLE
1759486009.73142,-4.907365,8.104373,-2.694824,-0.000481,-0.003245,-0.001603,32.95990,1,IDLE
1759486009.75141,-4.907066,8.088062,-2.682404,-0.003932,0.001272,0.002363,32.97989,1,IDLE
1759486009.77146,-4.915895,8.09734,-2.743007,-0.004384,0.009792,0.001868,32.99994,1,IDLE
1759486009.79139,-4.916044,8.096891,-2.752883,-0.003795,0.015234,-0.002059,33.01987,1,IDLE
1759486009.81142,-4.884321,8.090307,-2.695721,-0.001578,0.008155,-0.003848,33.03990,1,IDLE
1759486009.83142,-4.862474,8.075642,-2.685546,0.003215,-0.008842,0.001457,33.05990,1,IDLE
1759486009.85141,-4.863072,8.088661,-2.650381,0.002461,-0.016525,0.005662,33.07989,1,IDLE
1759486009.87142,-4.895693,8.085219,-2.696619,-0.000579,-0.01092,0.006749,33.09990,1,IDLE
1759486009.89139,-4.943877,8.082974,-2.719963,-0.000914,-0.003443,0.004763,33.11987,1,IDLE
1759486009.91141,-4.958541,8.041375,-2.716072,-0.0011,-0.000889,-0.001778,33.13989,1,IDLE
1759486009.93141,-4.945972,8.048259,-2.713079,-0.003709,0.004359,-0.00505,33.15989,1,IDLE
1759486009.95141,-4.908712,8.062324,-2.697517,-0.006808,0.008968,-0.002416,33.17989,1,IDLE
1759486009.97141,-4.880879,8.091953,-2.680758,-0.004998,0.0016,0.002277,33.19989,1,IDLE
1759486009.99100,-4.878036,8.095394,-2.692729,0.000545,-0.008964,0.005052,33.21948,1,IDLE
1759486010.01141,-4.914249,8.077737,-2.697367,0.003236,-0.011028,0.005778,33.23989,1,IDLE
1759486010.03141,-4.940585,8.061127,-2.690035,-0.000021,-0.008935,0.002037,33.25989,1,IDLE
1759486010.05141,-4.957045,8.058883,-2.697816,-0.004025,-0.001145,0.002389,33.27989,1,IDLE
1759486010.07144,-4.95061,8.067262,-2.714426,-0.00797,0.006978,0.002481,33.29992,1,IDLE
1759486010.09139,-4.949264,8.08911,-2.718317,-0.006188,0.007934,0.001082,33.31987,1,IDLE
1759486010.11146,-4.907515,8.06846,-2.694075,-0.002538,0.004141,0.002064,33.33994,1,IDLE
1759486010.13098,-4.927866,8.057985,-2.698265,0.00091,0.001441,0.005416,33.35946,1,IDLE
1759486010.15141,-4.933552,8.080281,-2.680907,-0.004321,0.000235,0.00185,33.37989,1,IDLE
1759486010.17141,-4.914249,8.070255,-2.70036,-0.004619,0.001996,-0.000312,33.39989,1,IDLE
1759486010.19123,-4.928314,8.086566,-2.705897,-0.004008,-0.001469,0.003793,33.41971,1,IDLE
1759486010.21111,-4.918139,8.08896,-2.709937,-0.004573,-0.008017,0.004701,33.43959,1,IDLE
1759486010.23141,-4.914398,8.0517,-2.722656,-0.003447,-0.002323,0.0075,33.45989,1,IDLE
1759486010.25140,-4.929212,8.03509,-2.72924,-0.006886,0.013713,0.009138,33.47988,1,IDLE
1759486010.27141,-4.952256,8.082675,-2.681506,-0.009193,0.017099,0.001661,33.49989,1,IDLE
1759486010.29139,-4.93011,8.103774,-2.66759,-0.008068,0.003706,-0.004419,33.51987,1,IDLE
1759486010.31047,-4.897938,8.10961,-2.705149,-0.003537,-0.005725,0.002478,33.53895,1,IDLE
1759486010.33099,-4.911405,8.070555,-2.698116,-0.002906,-0.011088,0.004494,33.55947,1,IDLE
1759486010.35141,-4.916343,8.047959,-2.738368,-0.002984,0.001483,0.004695,33.57989,1,IDLE
1759486010.37141,-4.9138,8.070854,-2.735974,-0.005935,0.015982,0.004093,33.59989,1,IDLE
1759486010.39077,-4.896591,8.097639,-2.685995,-0.006277,0.009754,0.003474,33.61925,1,IDLE
1759486010.41128,-4.897489,8.105719,-2.682553,0.001474,-0.008754,0.004662,33.63976,1,IDLE
1759486010.43141,-4.897938,8.074595,-2.703951,0.00169,-0.019746,0.008462,33.65989,1,IDLE
1759486010.45142,-4.935796,8.058135,-2.734029,-0.001544,-0.007638,0.0096,33.67990,1,IDLE
1759486010.47141,-4.951808,8.046014,-2.723105,-0.005317,0.007171,0.003887,33.69989,1,IDLE
1759486010.49139,-4.923376,8.072201,-2.690783,-0.008265,0.009343,0.002134,33.71987,1,IDLE
1759486010.51147,-4.912453,8.104223,-2.685696,-0.003302,-0.000742,0.003524,33.73995,1,IDLE
1759486010.53141,-4.893599,8.109909,-2.693178,-0.002117,-0.015799,0.007673,33.75989,1,IDLE
1759486010.55140,-4.894496,8.085818,-2.722955,0.000867,-0.01457,0.010711,33.77988,1,IDLE
1759486010.57141,-4.927417,8.063671,-2.723404,-0.00552,-0.00609,0.01637,33.79989,1,IDLE
1759486010.59138,-4.92188,8.039879,-2.704251,-0.01084,0.001639,0.018049,33.81986,1,IDLE
1759486010.61144,-4.923975,8.059182,-2.677316,-0.007326,-0.007698,0.0168,33.83992,1,IDLE
1759486010.63141,-4.915146,8.07639,-2.67163,-0.00463,-0.020334,0.019067,33.85989,1,IDLE
1759486010.65141,-4.927566,8.089858,-2.696769,-0.003617,-0.017324,0.013774,33.87989,1,IDLE
1759486010.67141,-4.948516,8.100332,-2.695422,-0.005798,-0.002512,0.006687,33.89989,1,IDLE
1759486010.69138,-4.929063,8.092252,-2.702754,-0.007162,0.012326,0.008573,33.91986,1,IDLE
1759486010.71111,-4.907365,8.08896,-2.68809,-0.007153,0.013256,0.00468,33.93959,1,IDLE
1759486010.73141,-4.858733,8.094497,-2.700809,-0.006295,0.006844,0.007977,33.95989,1,IDLE
1759486010.75141,-4.844218,8.087912,-2.686294,-0.000866,-0.006889,0.009288,33.97989,1,IDLE
1759486010.77141,-4.911854,8.08492,-2.695721,0.00224,-0.021787,0.008976,33.99989,1,IDLE
1759486010.79138,-4.951359,8.097938,-2.7044,-0.001303,-0.021929,0.009136,34.01986,1,IDLE
1759486010.81140,-4.934899,8.048857,-2.722357,-0.01036,-0.012635,0.010676,34.03988,1,IDLE
1759486010.83141,-4.921431,8.04332,-2.771438,-0.009053,0.015333,0.011579,34.05989,1,IDLE
1759486010.85141,-4.928763,8.05589,-2.695871,-0.005949,0.01028,0.005575,34.07989,1,IDLE
1759486010.87140,-4.910059,8.102278,-2.655768,-0.00357,-0.008053,0.001262,34.09988,1,IDLE
1759486010.89139,-4.892551,8.124873,-2.661754,-0.002563,-0.014738,0.005855,34.11987,1,IDLE
1759486010.91140,-4.906467,8.123077,-2.668936,-0.006556,-0.009439,0.008659,34.13988,1,IDLE
1759486010.93139,-4.904672,8.092551,-2.71263,-0.008622,0.001988,0.009277,34.15987,1,IDLE
1759486010.95139,-4.88881,8.077438,-2.717569,-0.005501,0.006376,0.007452,34.17987,1,IDLE
1759486010.97139,-4.882226,8.081927,-2.678962,-0.003133,-0.003418,0.008368,34.19987,1,IDLE
1759486010.99092,-4.864718,8.085369,-2.666392,-0.001281,-0.012384,0.009392,34.21940,1,IDLE
1759486011.01140,-4.873697,8.096442,-2.678812,0.001821,-0.025993,0.013543,34.23988,1,IDLE
1759486011.03112,-4.927417,8.064868,-2.695273,0.001607,-0.024314,0.01066,34.25960,1,IDLE
1759486011.05141,-4.971709,8.060529,-2.720262,-0.004404,-0.013754,0.007136,34.27989,1,IDLE
1759486011.07140,-4.958092,8.052299,-2.722058,-0.00743,0.001896,0.004655,34.29988,1,IDLE
1759486011.09139,-4.935198,8.081777,-2.694824,-0.010121,0.010011,0.003825,34.31987,1,IDLE
1759486011.11140,-4.906467,8.093748,-2.685995,-0.013174,0.015564,0.004806,34.33988,1,IDLE
1759486011.13140,-4.899734,8.096741,-2.686145,-0.012273,0.010018,0.0106,34.35988,1,IDLE
1759486011.15140,-4.889259,8.088062,-2.676418,-0.005765,0.002498,0.010839,34.37988,1,IDLE
1759486011.17140,-4.866963,8.102427,-2.660407,-0.003238,-0.007299,0.009792,34.39988,1,IDLE
1759486011.19093,-4.82297,8.12607,-2.674174,-0.00242,-0.008289,0.015048,34.41941,1,IDLE
1759486011.21140,-4.847061,8.143278,-2.666542,-0.00209,-0.008004,0.017027,34.43988,1,IDLE
1759486011.23142,-4.894796,8.104672,-2.677765,-0.003913,-0.006327,0.01314,34.45990,1,IDLE
1759486011.25140,-4.943578,8.093,-2.693627,-0.001356,-0.003504,0.010774,34.47988,1,IDLE
1759486011.27140,-4.953903,8.080281,-2.678812,-0.004998,0.000586,0.006529,34.49988,1,IDLE
1759486011.29092,-4.911854,8.065766,-2.694375,-0.006555,0.001424,0.002796,34.51940,1,IDLE
1759486011.31140,-4.866813,8.083573,-2.692579,-0.003687,0.000859,0.00085,34.53988,1,IDLE
1759486011.33141,-4.853196,8.103026,-2.664148,0.0001,-0.002939,0.000659,34.55989,1,IDLE
1759486011.35140,-4.873547,8.107216,-2.653973,0.00066,-0.009987,0.004856,34.57988,1,IDLE
1759486011.37141,-4.905869,8.107665,-2.669834,-0.000257,-0.016275,0.005188,34.59989,1,IDLE
1759486011.39071,-4.937143,8.107964,-2.698565,-0.001608,-0.00712,0.005151,34.61919,1,IDLE
1759486011.41140,-4.90946,8.081628,-2.699013,-0.006629,-0.005408,-0.001029,34.63988,1,IDLE
1759486011.43119,-4.873397,8.085967,-2.744054,-0.002047,0.008781,0.002049,34.65967,1,IDLE
1759486011.45140,-4.908263,8.081328,-2.661006,-0.00416,0.002734,0.00302,34.67988,1,IDLE
1759486011.47141,-4.900781,8.084022,-2.657564,-0.002636,-0.006731,0.003645,34.69989,1,IDLE
1759486011.49138,-4.906767,8.088511,-2.656666,-0.002236,-0.010887,0.001878,34.71986,1,IDLE
1759486011.51140,-4.933851,8.112303,-2.699911,-0.000525,-0.005567,0.000153,34.73988,1,IDLE
1759486011.53140,-4.914249,8.098237,-2.701108,-0.002036,0.002445,-0.00207,34.75988,1,IDLE
1759486011.55139,-4.89719,8.113501,-2.684499,-0.001866,0.012806,-0.000639,34.77987,1,IDLE
1759486011.57139,-4.87639,8.091205,-2.63452,-0.002902,0.004821,0.001956,34.79987,1,IDLE
1759486011.59139,-4.873098,8.078036,-2.644845,-0.000012,-0.010826,0.005744,34.81987,1,IDLE
1759486011.61139,-4.914997,8.094048,-2.676717,0.004541,-0.01732,0.00443,34.83987,1,IDLE
1759486011.63056,-4.940734,8.085369,-2.722058,-0.000782,-0.005109,0.003688,34.85904,1,IDLE
1759486011.65139,-4.918738,8.05589,-2.71682,-0.003859,0.009366,0.004134,34.87987,1,IDLE
1759486011.67140,-4.93415,8.062474,-2.703203,-0.006533,0.014154,0.000895,34.89988,1,IDLE
1759486011.69138,-4.941333,8.073547,-2.658911,-0.007355,0.009474,-0.000883,34.91986,1,IDLE
1759486011.71140,-4.897339,8.089708,-2.662652,-0.008815,0.005338,-0.002422,34.93988,1,IDLE
1759486011.73141,-4.871003,8.106318,-2.693028,-0.003433,0.000563,0.000239,34.95989,1,IDLE
1759486011.75139,-4.871602,8.098537,-2.703353,0.001093,0.001917,0.002551,34.97987,1,IDLE
1759486011.77141,-4.866963,8.11365,-2.670133,-0.001834,0.005479,0.005481,34.99989,1,IDLE
1759486011.79139,-4.879832,8.110657,-2.666841,-0.003075,0.002263,0.005606,35.01987,1,IDLE
1759486011.81141,-4.899434,8.081328,-2.683002,-0.004618,-0.001833,0.004054,35.03989,1,IDLE
1759486011.83039,-4.910807,8.081478,-2.687491,-0.003001,-0.002246,0.000772,35.05887,1,IDLE
1759486011.85141,-4.919486,8.07654,-2.695721,-0.0041,0.002619,-0.001457,35.07989,1,IDLE
1759486011.87141,-4.914398,8.094497,-2.686743,-0.003749,0.006422,-0.004817,35.09989,1,IDLE
1759486011.89138,-4.889558,8.101829,-2.684199,-0.004808,0.00882,-0.002564,35.11986,1,IDLE
1759486011.91141,-4.869806,8.109909,-2.673126,-0.003079,0.008443,0.002394,35.13989,1,IDLE
1759486011.93141,-4.854543,8.097938,-2.669984,0.000984,-0.002231,0.000899,35.15989,1,IDLE
1759486011.95141,-4.8725,8.079682,-2.683002,0.002148,-0.014226,0.000902,35.17989,1,IDLE
1759486011.97141,-4.905719,8.091803,-2.694375,0.004869,-0.013799,0.006135,35.19989,1,IDLE
1759486011.99139,-4.922928,8.088361,-2.691532,-0.004389,-0.010961,0.001596,35.21987,1,IDLE
1759486012.01140,-4.924723,8.064868,-2.720861,-0.005464,0.001288,0.005109,35.23988,1,IDLE
1759486012.03141,-4.911106,8.057237,-2.713528,-0.004062,0.014799,0.004767,35.25989,1,IDLE
1759486012.05142,-4.919935,8.095694,-2.6631,-0.006065,0.010933,0.000573,35.27990,1,IDLE
1759486012.07141,-4.908562,8.127866,-2.660856,-0.003642,-0.000277,-0.004827,35.29989,1,IDLE
1759486012.09138,-4.914997,8.096591,-2.686145,0.001618,-0.000442,-0.001181,35.31986,1,IDLE
1759486012.11143,-4.951059,8.077438,-2.688539,-0.000926,0.001883,0.001467,35.33991,1,IDLE
1759486012.13141,-4.91784,8.061876,-2.687641,-0.006381,0.008117,0.000295,35.35989,1,IDLE
1759486012.15140,-4.881478,8.064868,-2.689586,-0.004902,0.012059,0.005138,35.37988,1,IDLE
1759486012.17141,-4.900332,8.081029,-2.671331,0.000654,0.004229,0.006323,35.39989,1,IDLE
1759486012.19138,-4.943727,8.098686,-2.65502,0.000728,-0.012237,0.003027,35.41986,1,IDLE
1759486012.21140,-4.949413,8.098686,-2.686145,-0.001038,-0.010869,0.003238,35.43988,1,IDLE
1759486012.23043,-4.949114,8.057536,-2.723105,-0.002915,0.003396,0.001997,35.45891,1,IDLE
1759486012.25047,-4.934599,8.037784,-2.705448,-0.003417,0.009134,-0.001278,35.47895,1,IDLE
1759486012.27139,-4.915146,8.080431,-2.696919,-0.007156,0.018615,-0.002732,35.49987,1,IDLE
1759486012.29138,-4.875492,8.10138,-2.674623,-0.010991,0.019001,-0.000762,35.51986,1,IDLE
1759486012.31140,-4.879832,8.11365,-2.699462,-0.005325,0.006993,0.001843,35.53988,1,IDLE
1759486012.33141,-4.898088,8.098088,-2.678064,0.004027,-0.012867,0.003662,35.55989,1,IDLE
1759486012.35140,-4.898836,8.076241,-2.681955,-0.000184,-0.008482,0.00342,35.57988,1,IDLE
1759486012.37040,-4.91365,8.079832,-2.694973,-0.007368,0.00553,0.003802,35.59888,1,IDLE
1759486012.39047,-4.910059,8.076839,-2.714875,-0.011247,0.011776,0.00238,35.61895,1,IDLE
1759486012.41094,-4.934899,8.073697,-2.71682,-0.005802,0.008737,-0.001572,35.63942,1,IDLE
1759486012.43140,-4.934899,8.085069,-2.712481,-0.003256,0.005524,-0.004274,35.65988,1,IDLE
1759486012.45146,-4.919935,8.075343,-2.694225,-0.003335,0.009135,-0.003973,35.67994,1,IDLE
1759486012.47143,-4.90527,8.095843,-2.697816,-0.005552,0.011558,0.00114,35.69991,1,IDLE
1759486012.49138,-4.893599,8.094796,-2.685845,-0.003937,0.011352,0.00936,35.71986,1,IDLE
1759486012.51141,-4.890905,8.079982,-2.678663,-0.001232,0.002733,0.009967,35.73989,1,IDLE
1759486012.53140,-4.923077,8.090456,-2.688988,0.002178,-0.003882,0.007864,35.75988,1,IDLE
1759486012.55140,-4.932205,8.066664,-2.688539,0.000308,-0.007604,-0.001629,35.77988,1,IDLE
1759486012.57141,-4.924873,8.06397,-2.707692,-0.001739,-0.001708,-0.001909,35.79989,1,IDLE
1759486012.59138,-4.926968,8.082077,-2.702605,-0.005818,0.000084,0.000587,35.81986,1,IDLE
1759486012.61141,-4.918887,8.093748,-2.707692,-0.007477,-0.003794,0.003148,35.83989,1,IDLE
1759486012.63141,-4.873996,8.076241,-2.748843,-0.004054,0.006813,0.009995,35.85989,1,IDLE
1759486012.65141,-4.889858,8.071153,-2.695273,-0.001563,0.004571,0.005681,35.87989,1,IDLE
1759486012.67141,-4.931158,8.069058,-2.682703,-0.002887,-0.002832,-0.005184,35.89989,1,IDLE
1759486012.69138,-4.922479,8.078934,-2.668936,-0.003313,-0.006404,-0.003141,35.91986,1,IDLE
1759486012.71140,-4.939837,8.094197,-2.718766,-0.004312,-0.001259,0.000134,35.93988,1,IDLE
1759486012.73141,-4.912004,8.113351,-2.720711,-0.002644,0.004479,0.002044,35.95989,1,IDLE
1759486012.75140,-4.888212,8.085668,-2.727594,-0.000357,0.006835,0.004091,35.97988,1,IDLE
1759486012.77140,-4.891354,8.067562,-2.705298,0.003888,-0.000077,0.004348,35.99988,1,IDLE
1759486012.79138,-4.91784,8.05604,-2.673575,0.000951,-0.006459,0.001343,36.01986,1,IDLE
1759486012.81145,-4.909909,8.096292,-2.675071,-0.004865,-0.008752,0.002814,36.03993,1,IDLE
1759486012.83140,-4.924125,8.082825,-2.698714,-0.009397,-0.001406,0.00749,36.05988,1,IDLE
1759486012.85139,-4.934001,8.075193,-2.724601,-0.006581,-0.001606,0.006467,36.07987,1,IDLE
1759486012.87138,-4.949862,8.045715,-2.737919,0.002065,-0.003407,0.002183,36.09986,1,IDLE
1759486012.89138,-4.958392,8.047361,-2.710536,-0.00047,0.002691,-0.000165,36.11986,1,IDLE
1759486012.91138,-4.939088,8.071452,-2.678962,-0.00802,0.010995,-0.000903,36.13986,1,IDLE
1759486012.93058,-4.924873,8.081628,-2.672977,-0.009695,0.014207,-0.000812,36.15906,1,IDLE
1759486012.95138,-4.902876,8.091055,-2.681207,-0.009339,0.007531,0.000726,36.17986,1,IDLE
1759486012.97139,-4.887912,8.087912,-2.7047,0.000359,-0.004161,0.003099,36.19987,1,IDLE
1759486012.99138,-4.882226,8.087763,-2.702305,0.002182,-0.006053,0.006701,36.21986,1,IDLE
1759486013.01043,-4.88073,8.086416,-2.707094,0.001212,-0.006896,0.008447,36.23891,1,IDLE
1759486013.03140,-4.917989,8.068759,-2.710386,-0.003553,-0.003086,0.008468,36.25988,1,IDLE
1759486013.05061,-4.94657,8.071452,-2.717419,-0.005065,0.00588,0.004265,36.27909,1,IDLE
1759486013.07066,-4.941183,8.080281,-2.717718,-0.00533,0.008024,0.003168,36.29914,1,IDLE
1759486013.09137,-4.936844,8.069058,-2.709787,-0.003689,0.00088,0.0005,36.31985,1,IDLE
1759486013.11140,-4.926968,8.056638,-2.713528,-0.001322,-0.005501,0.005707,36.33988,1,IDLE
1759486013.13140,-4.90542,8.057087,-2.709638,-0.002678,0.002085,0.008565,36.35988,1,IDLE
1759486013.15140,-4.903624,8.082077,-2.685696,-0.006563,0.008792,0.009562,36.37988,1,IDLE
1759486013.17140,-4.90961,8.094048,-2.663549,-0.008,0.005896,0.008838,36.39988,1,IDLE
1759486013.19092,-4.882076,8.081179,-2.697517,-0.000918,-0.006934,0.005911,36.41940,1,IDLE
1759486013.21145,-4.903325,8.10542,-2.681655,0.00038,-0.022366,0.004922,36.43993,1,IDLE
1759486013.23059,-4.908413,8.092402,-2.71263,0.002252,-0.017298,0.008351,36.45907,1,IDLE
1759486013.25064,-4.903026,8.083124,-2.727445,-0.006303,-0.005934,0.012942,36.47912,1,IDLE
1759486013.27140,-4.904522,8.056788,-2.740463,-0.008132,0.012543,0.015833,36.49988,1,IDLE
1759486013.29091,-4.932055,8.057686,-2.694075,-0.006906,0.009652,0.008346,36.51939,1,IDLE
1759486013.31140,-4.926369,8.087015,-2.669385,-0.006251,-0.007012,0.000868,36.53988,1,IDLE
1759486013.33140,-4.916044,8.108114,-2.680758,-0.001708,-0.021081,0.005849,36.55988,1,IDLE
1759486013.35140,-4.924125,8.087015,-2.716371,-0.002182,-0.014907,0.009218,36.57988,1,IDLE
1759486013.37078,-4.922329,8.045266,-2.732682,-0.005615,-0.000802,0.012386,36.59926,1,IDLE
1759486013.39137,-4.936395,8.041525,-2.715324,-0.001285,0.006508,0.006113,36.61985,1,IDLE
1759486013.41139,-4.906168,8.069357,-2.674174,-0.004572,-0.001381,0.008074,36.63987,1,IDLE
1759486013.43140,-4.907365,8.096741,-2.663998,-0.004042,-0.008378,0.009464,36.65988,1,IDLE
1759486013.45140,-4.897339,8.105719,-2.668188,-0.006345,-0.015745,0.014403,36.67988,1,IDLE
1759486013.47062,-4.91784,8.07654,-2.704251,-0.005937,-0.009003,0.015186,36.69910,1,IDLE
1759486013.49137,-4.936694,8.043769,-2.709638,-0.00633,-0.005125,0.010682,36.71985,1,IDLE
1759486013.51140,-4.924125,8.05604,-2.719514,-0.002355,-0.000087,0.007135,36.73988,1,IDLE
1759486013.53118,-4.891354,8.078635,-2.67986,-0.006742,0.000243,0.005434,36.75966,1,IDLE
1759486013.55139,-4.881029,8.104223,-2.671031,-0.009073,-0.001876,0.009457,36.77987,1,IDLE
1759486013.57140,-4.885368,8.113501,-2.689886,-0.00638,-0.008822,0.011284,36.79988,1,IDLE
1759486013.59137,-4.91365,8.101081,-2.707692,-0.0025,-0.010446,0.012675,36.81985,1,IDLE
1759486013.61140,-4.921282,8.085518,-2.714725,-0.001845,-0.003779,0.01073,36.83988,1,IDLE
1759486013.63122,-4.919037,8.079682,-2.674024,-0.004624,-0.001883,0.007118,36.85970,1,IDLE
1759486013.65140,-4.88462,8.099883,-2.681356,-0.005909,0.000093,0.009352,36.87988,1,IDLE
1759486013.67140,-4.871003,8.089708,-2.664746,-0.00754,-0.003665,0.015013,36.89988,1,IDLE
1759486013.69137,-4.896891,8.093748,-2.683451,-0.004438,-0.009256,0.017758,36.91985,1,IDLE
1759486013.71140,-4.905869,8.095694,-2.688838,-0.003877,-0.00936,0.01507,36.93988,1,IDLE
1759486013.73140,-4.911705,8.082077,-2.686444,-0.005077,-0.007226,0.014941,36.95988,1,IDLE
1759486013.75139,-4.913201,8.078485,-2.689586,-0.006294,-0.002271,0.015471,36.97987,1,IDLE
1759486013.77140,-4.897788,8.085518,-2.709338,-0.007146,0.005495,0.014295,36.99988,1,IDLE
1759486013.79137,-4.885069,8.115595,-2.667889,-0.006846,0.000874,0.010399,37.01985,1,IDLE
1759486013.81139,-4.885518,8.103325,-2.670732,-0.003193,-0.003222,0.007099,37.03987,1,IDLE
1759486013.83068,-4.898387,8.091354,-2.682853,-0.001634,-0.0099,0.005186,37.05916,1,IDLE
1759486013.85139,-4.907814,8.120085,-2.669086,-0.000931,-0.003203,0.008499,37.07987,1,IDLE
1759486013.87139,-4.889109,8.119785,-2.654421,-0.006788,-0.005859,0.010185,37.09987,1,IDLE
1759486013.89137,-4.850802,8.107665,-2.692729,-0.008676,0.000531,0.014607,37.11985,1,IDLE
1759486013.91140,-4.854842,8.085219,-2.669684,-0.005776,0.002508,0.016124,37.13988,1,IDLE
1759486013.93140,-4.860379,8.097938,-2.659958,-0.004011,-0.014905,0.017947,37.15988,1,IDLE
1759486013.95140,-4.895693,8.110208,-2.685546,0.000235,-0.020359,0.016027,37.17988,1,IDLE
1759486013.97140,-4.951508,8.100033,-2.706795,-0.000349,-0.013132,0.013337,37.19988,1,IDLE
1759486013.99137,-4.981735,8.09719,-2.726696,-0.004433,0.006494,0.006653,37.21985,1,IDLE
1759486014.01140,-4.981585,8.079982,-2.681057,-0.009375,0.021869,-0.000285,37.23988,1,IDLE
1759486014.03139,-4.932504,8.066215,-2.681356,-0.011409,0.026301,-0.005075,37.25987,1,IDLE
1759486014.05139,-4.854543,8.106318,-2.668188,-0.00938,0.017084,0.000685,37.27987,1,IDLE
1759486014.07139,-4.815188,8.132355,-2.653075,-0.003387,0.002072,0.005114,37.29987,1,IDLE
1759486014.09137,-4.825813,8.141183,-2.648436,-0.001218,-0.005546,0.012608,37.31985,1,IDLE
1759486014.11138,-4.865616,8.120234,-2.661006,-0.002282,-0.002235,0.01551,37.33986,1,IDLE
1759486014.13139,-4.897339,8.098088,-2.647538,-0.005718,0.001342,0.009344,37.35987,1,IDLE
1759486014.15140,-4.906018,8.087464,-2.697966,-0.005081,0.00253,0.002949,37.37988,1,IDLE
1759486014.17140,-4.885967,8.091504,-2.687791,-0.009222,0.001385,0.003832,37.39988,1,IDLE
1759486014.19137,-4.871751,8.104822,-2.709787,-0.007932,0.00152,0.005736,37.41985,1,IDLE
1759486014.21111,-4.86427,8.112902,-2.703652,-0.006774,0.001164,0.007195,37.43959,1,IDLE
1759486014.23131,-4.882825,8.111406,-2.697218,-0.004155,0.003273,0.002808,37.45979,1,IDLE
1759486014.25140,-4.879533,8.099435,-2.685995,-0.002208,0.002263,0.001275,37.47988,1,IDLE
1759486014.27140,-4.85604,8.125472,-2.683002,-0.003142,0.007089,0.0027,37.49988,1,IDLE
1759486014.29137,-4.867861,8.106468,-2.661305,-0.003903,0.007731,0.004599,37.51985,1,IDLE
1759486014.31113,-4.837036,8.133702,-2.649034,-0.003987,0.002497,0.003427,37.53961,1,IDLE
1759486014.33075,-4.851999,8.121431,-2.637961,-0.001488,-0.007608,0.006326,37.55923,1,IDLE
1759486014.35079,-4.859032,8.113501,-2.646491,0.001126,-0.016317,0.008358,37.57927,1,IDLE
1759486014.37140,-4.900183,8.093299,-2.685845,0.002368,-0.0158,0.006503,37.59988,1,IDLE
1759486014.39137,-4.914847,8.102278,-2.710984,-0.001041,-0.00077,0.003596,37.61985,1,IDLE
1759486014.41139,-4.900183,8.110208,-2.718766,-0.003013,0.009836,0.003069,37.63987,1,IDLE
1759486014.43077,-4.865167,8.107515,-2.688389,-0.000875,0.000001,0.001968,37.65925,1,IDLE
1759486014.45140,-4.866963,8.110657,-2.682553,0.000322,-0.014919,-0.000683,37.67988,1,IDLE
1759486014.47140,-4.862474,8.114847,-2.691681,0.001981,-0.012837,0.003056,37.69988,1,IDLE
1759486014.49137,-4.856189,8.112603,-2.674772,-0.004915,-0.014074,0.000756,37.71985,1,IDLE
1759486014.51140,-4.858883,8.096143,-2.712481,-0.003045,0.004941,0.007006,37.73988,1,IDLE
1759486014.53102,-4.867861,8.120982,-2.666692,-0.005578,0.005871,0.005002,37.75950,1,IDLE
1759486014.55141,-4.887314,8.119037,-2.658162,-0.00079,-0.000111,0.001307,37.77989,1,IDLE
1759486014.57142,-4.90557,8.112303,-2.665195,0.002574,-0.010098,0.000149,37.79990,1,IDLE
1759486014.59120,-4.920234,8.095095,-2.676568,0.004379,-0.01119,0.001789,37.81968,1,IDLE
1759486014.61141,-4.922179,8.063073,-2.687042,-0.002021,-0.000523,0.00116,37.83989,1,IDLE
1759486014.63139,-4.903175,8.063821,-2.666542,-0.008523,0.011633,-0.002374,37.85987,1,IDLE
1759486014.65140,-4.881179,8.081029,-2.674922,-0.007532,0.009349,-0.000368,37.87988,1,IDLE
1759486014.67140,-4.886566,8.115595,-2.662203,-0.000782,-0.003077,0.001306,37.89988,1,IDLE
1759486014.69137,-4.892551,8.150012,-2.657713,0.003036,-0.016999,-0.000468,37.91985,1,IDLE
1759486014.71140,-4.877587,8.133851,-2.67567,0.001515,-0.010295,0.006334,37.93988,1,IDLE
1759486014.73104,-4.885219,8.089259,-2.685845,-0.005448,0.003395,0.007666,37.95952,1,IDLE
1759486014.75139,-4.893299,8.091205,-2.704101,-0.006197,0.015206,0.005269,37.97987,1,IDLE
1759486014.77139,-4.915745,8.081328,-2.682404,-0.003846,0.011525,0.001812,37.99987,1,IDLE
1759486014.79091,-4.919935,8.095394,-2.65921,-0.003843,0.009092,-0.000749,38.01939,1,IDLE
1759486014.81139,-4.86412,8.119187,-2.651578,-0.005119,0.003572,-0.001633,38.03987,1,IDLE
1759486014.83139,-4.856937,8.125172,-2.674922,-0.004977,0.006525,0.000587,38.05987,1,IDLE
1759486014.85139,-4.836587,8.116044,-2.682853,-0.005354,0.006667,0.003125,38.07987,1,IDLE
1759486014.87144,-4.868759,8.115147,-2.707842,-0.002345,0.004766,0.001254,38.09992,1,IDLE
1759486014.89137,-4.876839,8.099883,-2.681655,0.000588,0.000416,0.001181,38.11985,1,IDLE
1759486014.91138,-4.879832,8.103176,-2.671031,-0.000199,-0.005144,-0.002696,38.13986,1,IDLE
1759486014.93085,-4.887015,8.097789,-2.675371,-0.003552,-0.007193,-0.003627,38.15933,1,IDLE
1759486014.95138,-4.891055,8.082974,-2.711134,-0.005059,0.000003,-0.000482,38.17986,1,IDLE
1759486014.97140,-4.914697,8.081029,-2.731784,-0.003957,0.006106,0.000426,38.19988,1,IDLE
1759486014.99137,-4.952256,8.097639,-2.676867,-0.001114,0.018885,-0.000371,38.21985,1,IDLE
1759486015.01139,-4.952855,8.094347,-2.647538,-0.000963,0.013946,-0.00601,38.23987,1,IDLE
1759486015.03086,-4.885518,8.113351,-2.631377,-0.003429,0.014868,-0.007489,38.25934,1,IDLE
1759486015.05140,-4.859032,8.111256,-2.659509,-0.00372,0.013004,-0.002046,38.27988,1,IDLE
1759486015.07139,-4.851101,8.086117,-2.653075,0.000197,0.002147,-0.000682,38.29987,1,IDLE
1759486015.09090,-4.870704,8.104073,-2.668637,0.0042,-0.011493,-0.000391,38.31938,1,IDLE
1759486015.11141,-4.887164,8.110807,-2.684798,0.004545,-0.013946,0.002358,38.33989,1,IDLE
1759486015.13139,-4.900183,8.083872,-2.689886,0.00037,-0.016204,0.003294,38.35987,1,IDLE
1759486015.15139,-4.881628,8.081777,-2.75408,-0.000726,0.007296,0.008036,38.37987,1,IDLE
1759486015.17140,-4.924424,8.072799,-2.719065,-0.005695,0.01681,-0.000012,38.39988,1,IDLE
1759486015.19091,-4.929212,8.08896,-2.695572,-0.004956,0.012178,-0.009669,38.41939,1,IDLE
1759486015.21140,-4.915745,8.114099,-2.686594,-0.002144,0.003821,-0.011682,38.43988,1,IDLE
1759486015.23139,-4.901679,8.125621,-2.698864,0.000868,0.003035,-0.006675,38.45987,1,IDLE
1759486015.25140,-4.864718,8.1138,-2.696619,0.000022,0.004041,-0.001641,38.47988,1,IDLE
1759486015.27139,-4.864868,8.094945,-2.705598,-0.000176,0.007612,0.001422,38.49987,1,IDLE
1759486015.29039,-4.875043,8.075193,-2.6634,0.000273,0.002649,0.000614,38.51887,1,IDLE
1759486015.31140,-4.889409,8.08073,-2.672977,0.003504,-0.002259,-0.001675,38.53988,1,IDLE
1759486015.33092,-4.913351,8.107665,-2.666093,0.00058,-0.012818,-0.003434,38.55940,1,IDLE
1759486015.35140,-4.926818,8.085818,-2.701108,0.00057,-0.012718,-0.002187,38.57988,1,IDLE
1759486015.37140,-4.948366,8.050653,-2.728193,-0.003357,0.000783,-0.001352,38.59988,1,IDLE
1759486015.39137,-4.944625,8.054992,-2.728642,-0.003194,0.005724,-0.003683,38.61985,1,IDLE
1759486015.41140,-4.913051,8.057237,-2.689736,-0.004002,0.005543,-0.005923,38.63988,1,IDLE
1759486015.43139,-4.893449,8.093748,-2.687791,-0.003356,0.004831,-0.001835,38.65987,1,IDLE
1759486015.45139,-4.88043,8.116493,-2.688988,-0.002255,0.001072,-0.000188,38.67987,1,IDLE
1759486015.47139,-4.917391,8.105121,-2.699911,-0.001798,-0.000434,-0.001005,38.69987,1,IDLE
1759486015.49137,-4.919187,8.06427,-2.704251,-0.000904,-0.00155,-0.001843,38.71985,1,IDLE
1759486015.51097,-4.910657,8.073697,-2.700061,-0.004397,0.004613,0.000371,38.73945,1,IDLE
1759486015.53095,-4.9135,8.070405,-2.694674,-0.006077,0.010163,0.001599,38.75943,1,IDLE
1759486015.55140,-4.910807,8.076839,-2.709338,-0.006887,0.013001,0.00178,38.77988,1,IDLE
1759486015.57140,-4.923825,8.074445,-2.709937,-0.006308,0.016703,0.00021,38.79988,1,IDLE
1759486015.59137,-4.94268,8.072949,-2.688838,-0.006725,0.018911,-0.003308,38.81985,1,IDLE
1759486015.61055,-4.926668,8.064719,-2.694375,-0.006069,0.014521,-0.004467,38.83903,1,IDLE
1759486015.63037,-4.891504,8.090307,-2.686444,-0.005416,0.008227,-0.000419,38.85885,1,IDLE
1759486015.65139,-4.884321,8.093898,-2.678363,-0.003505,0.000405,0.005886,38.87987,1,IDLE
1759486015.67139,-4.920533,8.068759,-2.705897,-0.000959,0.00235,0.006137,38.89987,1,IDLE
1759486015.69137,-4.945972,8.065018,-2.72116,0.000772,0.005188,0.003699,38.91985,1,IDLE
1759486015.71138,-4.962133,8.042273,-2.708291,-0.005661,0.010471,-0.003003,38.93986,1,IDLE
1759486015.73041,-4.953454,8.049456,-2.705448,-0.008392,0.010187,-0.005535,38.95889,1,IDLE
1759486015.75138,-4.918588,8.071901,-2.693028,-0.010065,0.013848,-0.006633,38.97986,1,IDLE
1759486015.77138,-4.88492,8.100183,-2.706645,-0.013126,0.015321,-0.00249,38.99986,1,IDLE
1759486015.79137,-4.841674,8.106318,-2.739715,-0.008907,0.015076,0.003636,39.01985,1,IDLE
1759486015.81139,-4.862175,8.093449,-2.710536,-0.001348,0.01086,0.004068,39.03987,1,IDLE
1759486015.83043,-4.879383,8.106767,-2.666093,0.002433,0.00285,-0.002173,39.05891,1,IDLE
1759486015.85139,-4.903924,8.116493,-2.675071,0.002713,-0.009403,-0.000352,39.07987,1,IDLE
1759486015.87138,-4.882226,8.105121,-2.709787,0.006021,-0.014605,0.005649,39.09986,1,IDLE
1759486015.89136,-4.903325,8.076989,-2.716072,0.008139,-0.02199,0.010511,39.11984,1,IDLE
1759486015.91138,-4.934749,8.028955,-2.721758,0.005362,-0.019141,0.012799,39.13986,1,IDLE
1759486015.93044,-4.943428,8.028207,-2.712032,0.001348,-0.010385,0.006918,39.15892,1,IDLE
1759486015.95137,-4.973505,8.033594,-2.692878,-0.006917,0.000849,0.003398,39.17985,1,IDLE
1759486015.97138,-4.978293,8.061576,-2.702754,-0.011516,0.003703,-0.004658,39.19986,1,IDLE
1759486015.99136,-4.933103,8.110059,-2.706346,-0.009127,0.005316,-0.001696,39.21984,1,IDLE
1759486016.01137,-4.900183,8.096741,-2.734029,-0.003861,0.004562,0.001686,39.23985,1,IDLE
1759486016.03046,-4.891354,8.079234,-2.707692,-0.001721,-0.001096,0.003877,39.25894,1,IDLE
1759486016.05138,-4.866215,8.087164,-2.701707,0.001595,-0.006441,0.006144,39.27986,1,IDLE
1759486016.07099,-4.87235,8.087912,-2.65517,0.002063,-0.013203,0.005792,39.29947,1,IDLE
1759486016.09074,-4.894347,8.093449,-2.701108,0.000801,-0.014114,0.007063,39.31922,1,IDLE
1759486016.11138,-4.92188,8.082526,-2.707543,0.00194,-0.014172,0.008402,39.33986,1,IDLE
1759486016.13047,-4.940585,8.073248,-2.732383,0.001231,-0.012292,0.005384,39.35895,1,IDLE
1759486016.15139,-4.957494,8.046313,-2.719963,0.000555,-0.005893,0.005535,39.37987,1,IDLE
1759486016.17140,-4.949114,8.053346,-2.718915,-0.003577,0.007389,0.003518,39.39988,1,IDLE
1759486016.19108,-4.949563,8.056189,-2.691382,-0.011816,0.016083,-0.000874,39.41956,1,IDLE
1759486016.21140,-4.925471,8.068609,-2.678663,-0.010927,0.016308,-0.000555,39.43988,1,IDLE
1759486016.23049,-4.89315,8.087314,-2.675371,-0.00775,0.001097,0.000401,39.45897,1,IDLE
1759486016.25139,-4.88462,8.098986,-2.702754,-0.000777,-0.010239,0.007501,39.47987,1,IDLE
1759486016.27049,-4.879383,8.081927,-2.702305,0.000716,-0.012161,0.011642,39.49897,1,IDLE
1759486016.29137,-4.916942,8.075792,-2.697667,-0.002746,-0.006512,0.015322,39.51985,1,IDLE
1759486016.31139,-4.951059,8.069208,-2.693477,-0.002292,-0.002474,0.015048,39.53987,1,IDLE
1759486016.33049,-4.959439,8.065018,-2.700809,-0.003075,-0.002177,0.01311,39.55897,1,IDLE
1759486016.35114,-4.95076,8.072949,-2.712182,-0.007482,0.002687,0.005292,39.57962,1,IDLE
1759486016.37139,-4.942081,8.074295,-2.71278,-0.00815,0.007779,0.00434,39.59987,1,IDLE
1759486016.39137,-4.895245,8.101978,-2.701857,-0.008676,0.000242,0.004859,39.61985,1,IDLE
1759486016.41139,-4.886715,8.109011,-2.705448,-0.003523,-0.005205,0.012623,39.63987,1,IDLE
1759486016.43052,-4.860529,8.093,-2.709787,-0.004124,-0.012715,0.018681,39.65900,1,IDLE
1759486016.45116,-4.893898,8.049156,-2.746449,-0.002129,-0.000193,0.019845,39.67964,1,IDLE
1759486016.47086,-4.95091,8.046463,-2.709787,-0.005264,0.007283,0.013188,39.69934,1,IDLE
1759486016.49042,-4.959289,8.074595,-2.668637,-0.004869,-0.002581,0.001642,39.71890,1,IDLE
1759486016.51140,-4.916493,8.108413,-2.665195,-0.00577,-0.010544,0.007268,39.73988,1,IDLE
1759486016.53054,-4.906318,8.092701,-2.689287,-0.007215,-0.011642,0.015655,39.75902,1,IDLE
1759486016.55140,-4.918738,8.050503,-2.711583,-0.005451,-0.007182,0.016537,39.77988,1,IDLE
1759486016.57142,-4.953005,8.045116,-2.738069,-0.006385,0.004145,0.010392,39.79990,1,IDLE
1759486016.59136,-4.934599,8.038083,-2.721309,-0.012683,0.020455,0.004739,39.81984,1,IDLE
1759486016.61138,-4.913949,8.081179,-2.678513,-0.01807,0.024606,0.00561,39.83986,1,IDLE
1759486016.63058,-4.870105,8.122479,-2.666243,-0.014227,0.010233,0.012691,39.85906,1,IDLE
1759486016.65138,-4.879832,8.114997,-2.662502,-0.003802,-0.010435,0.017442,39.87986,1,IDLE
1759486016.67139,-4.890755,8.09734,-2.688389,0.000929,-0.021319,0.016569,39.89987,1,IDLE
1759486016.69136,-4.878036,8.079682,-2.709488,0.000465,-0.010535,0.01527,39.91984,1,IDLE
1759486016.71138,-4.891803,8.087314,-2.7047,-0.003565,0.003502,0.015097,39.93986,1,IDLE
1759486016.73057,-4.894047,8.101829,-2.65083,-0.007219,0.001898,0.012908,39.95905,1,IDLE
1759486016.75045,-4.885368,8.107665,-2.658611,-0.005872,-0.011592,0.009036,39.97893,1,IDLE
1759486016.77138,-4.854394,8.125322,-2.704849,-0.001739,-0.021923,0.008964,39.99986,1,IDLE
1759486016.79135,-4.852598,8.092701,-2.733729,0.001194,-0.016614,0.01034,40.01983,1,IDLE
1759486016.81108,-4.861576,8.105121,-2.735525,-0.001691,-0.00511,0.012765,40.03956,1,IDLE
1759486016.83059,-4.882376,8.104822,-2.698415,-0.002594,-0.000391,0.013292,40.05907,1,IDLE
1759486016.85138,-4.896292,8.10961,-2.678663,-0.003364,-0.003995,0.014028,40.07986,1,IDLE
1759486016.87138,-4.921282,8.092551,-2.671331,-0.002393,-0.008955,0.013481,40.09986,1,IDLE
1759486016.89135,-4.915146,8.078036,-2.696021,-0.003035,-0.009941,0.010692,40.11983,1,IDLE
1759486016.91137,-4.917391,8.065916,-2.691382,-0.004265,-0.003611,0.007751,40.13985,1,IDLE
1759486016.93063,-4.890755,8.076839,-2.681955,-0.006086,-0.001844,0.006596,40.15911,1,IDLE
1759486016.95136,-4.840328,8.087314,-2.655469,-0.003157,-0.010488,0.010024,40.17984,1,IDLE
1759486016.97135,-4.857087,8.106318,-2.664597,-0.000374,-0.016787,0.010254,40.19983,1,IDLE
1759486016.99135,-4.87669,8.093299,-2.67552,-0.001132,-0.023419,0.005722,40.21983,1,IDLE
1759486017.01081,-4.890606,8.096442,-2.680907,-0.000541,-0.021781,0.00374,40.23929,1,IDLE
1759486017.03064,-4.898237,8.118139,-2.707094,-0.005034,-0.014939,0.005551,40.25912,1,IDLE
1759486017.05137,-4.88881,8.13011,-2.698714,-0.008196,-0.004102,0.008685,40.27985,1,IDLE
1759486017.07138,-4.878784,8.096292,-2.714276,-0.011866,-0.002994,0.007129,40.29986,1,IDLE
1759486017.09135,-4.871153,8.07235,-2.719065,-0.005674,-0.00363,0.006119,40.31983,1,IDLE
1759486017.11138,-4.901529,8.079084,-2.69213,0.000133,-0.003683,0.00373,40.33986,1,IDLE
1759486017.13064,-4.928913,8.110807,-2.662203,-0.002523,-0.006281,-0.00134,40.35912,1,IDLE
1759486017.15137,-4.915895,8.129362,-2.673425,-0.000276,-0.001869,0.001365,40.37985,1,IDLE
1759486017.17138,-4.893299,8.109161,-2.667889,-0.000666,-0.001259,0.004151,40.39986,1,IDLE
1759486017.19135,-4.893748,8.091953,-2.6631,-0.002754,0.000657,0.008156,40.41983,1,IDLE
1759486017.21137,-4.889109,8.079832,-2.642151,-0.006382,-0.001962,0.005931,40.43985,1,IDLE
1759486017.23067,-4.889858,8.094048,-2.653973,-0.00513,-0.001024,0.006017,40.45915,1,IDLE
1759486017.25138,-4.896591,8.095843,-2.6631,-0.004166,-0.002223,0.004592,40.47986,1,IDLE
1759486017.27138,-4.923676,8.110957,-2.668338,-0.005549,-0.004341,0.002622,40.49986,1,IDLE
1759486017.29135,-4.917241,8.10123,-2.69198,-0.004201,-0.002809,0.006013,40.51983,1,IDLE
1759486017.31137,-4.920683,8.077438,-2.706196,-0.004975,0.004399,0.00878,40.53985,1,IDLE
1759486017.33069,-4.903774,8.075193,-2.721758,-0.007081,0.014705,0.004189,40.55917,1,IDLE
1759486017.35138,-4.89719,8.078934,-2.688838,-0.007325,0.020777,-0.001708,40.57986,1,IDLE
1759486017.37138,-4.862624,8.123077,-2.65921,-0.010257,0.020423,-0.002174,40.59986,1,IDLE
1759486017.39135,-4.839879,8.151658,-2.669535,-0.004998,0.00873,0.001201,40.61983,1,IDLE
1759486017.41045,-4.844218,8.142829,-2.664148,-0.000309,-0.008662,0.00592,40.63893,1,IDLE
1759486017.43071,-4.846612,8.120833,-2.682703,-0.000164,-0.008661,0.007473,40.65919,1,IDLE
1759486017.45138,-4.858733,8.093299,-2.683601,-0.003801,-0.001966,0.005332,40.67986,1,IDLE
1759486017.47138,-4.875043,8.103475,-2.699762,-0.005904,0.008934,0.003389,40.69986,1,IDLE
1759486017.49135,-4.88492,8.115296,-2.681805,-0.003595,0.004779,-0.00162,40.71983,1,IDLE
1759486017.51138,-4.873996,8.126968,-2.655918,-0.000283,-0.006955,-0.001487,40.73986,1,IDLE
1759486017.53072,-4.86831,8.115147,-2.68824,0.003651,-0.013475,0.000509,40.75920,1,IDLE
1759486017.55137,-4.875343,8.110208,-2.702156,0.002575,-0.010893,0.001898,40.77985,1,IDLE
1759486017.57138,-4.880281,8.071153,-2.710984,0.001157,0.000915,0.005026,40.79986,1,IDLE
1759486017.59135,-4.889558,8.075642,-2.683451,-0.000417,0.005161,0.001949,40.81983,1,IDLE
1759486017.61074,-4.927417,8.108562,-2.651429,-0.0015,0.005694,0.000731,40.83922,1,IDLE
1759486017.63074,-4.902577,8.111555,-2.633921,-0.003052,-0.004939,-0.004146,40.85922,1,IDLE
1759486017.65138,-4.907365,8.095843,-2.660557,-0.004886,-0.008682,-0.001121,40.87986,1,IDLE
1759486017.67139,-4.921431,8.073248,-2.697367,-0.005069,-0.00727,0.001574,40.89987,1,IDLE
1759486017.69136,-4.907365,8.066065,-2.730138,-0.006526,0.000407,0.002529,40.91984,1,IDLE
1759486017.71139,-4.906467,8.075642,-2.748992,-0.001614,0.023166,0.005317,40.93987,1,IDLE
1759486017.73076,-4.919935,8.091953,-2.636615,-0.004891,0.024282,0.000516,40.95924,1,IDLE
1759486017.75139,-4.904372,8.120833,-2.615366,-0.004806,0.001543,-0.006956,40.97987,1,IDLE
1759486017.77138,-4.869357,8.125322,-2.663998,-0.000616,-0.012733,-0.003647,40.99986,1,IDLE
1759486017.79136,-4.873547,8.088661,-2.71682,0.003896,-0.005275,0.003427,41.01984,1,IDLE
1759486017.81138,-4.906018,8.076241,-2.707543,-0.002137,0.004972,0.002925,41.03986,1,IDLE
1759486017.83078,-4.889708,8.099584,-2.706795,-0.005926,0.020911,-0.001308,41.05926,1,IDLE
1759486017.85138,-4.872649,8.114698,-2.671779,-0.008774,0.019676,-0.002339,41.07986,1,IDLE
1759486017.87138,-4.882376,8.113351,-2.653374,-0.005114,-0.002728,-0.003101,41.09986,1,IDLE
1759486017.89136,-4.897489,8.103774,-2.706346,0.005033,-0.016353,-0.000983,41.11984,1,IDLE
1759486017.91138,-4.905719,8.079982,-2.750788,0.006208,-0.006637,0.000821,41.13986,1,IDLE
1759486017.93079,-4.935497,8.073847,-2.72924,-0.003794,0.018041,0.003782,41.15927,1,IDLE
1759486017.95138,-4.932654,8.052149,-2.688688,-0.008666,0.030255,0.001253,41.17986,1,IDLE
1759486017.97138,-4.941183,8.068759,-2.658162,-0.009434,0.027337,-0.006399,41.19986,1,IDLE
1759486017.99136,-4.895693,8.109011,-2.658312,-0.010232,0.016696,-0.012131,41.21984,1,IDLE
1759486018.01138,-4.868609,8.10123,-2.675221,-0.007523,0.002833,-0.013197,41.23986,1,IDLE
1759486018.03081,-4.81459,8.111854,-2.720412,0.002492,-0.005851,-0.00755,41.25929,1,IDLE
1759486018.05138,-4.825513,8.123227,-2.694674,0.001113,-0.008673,-0.001185,41.27986,1,IDLE
1759486018.07138,-4.85185,8.118139,-2.685097,-0.002217,0.001404,0.000663,41.29986,1,IDLE
1759486018.09077,-4.916942,8.096891,-2.680608,-0.004538,-0.00067,0.001603,41.31925,1,IDLE
1759486018.11139,-4.925621,8.100332,-2.70036,0.00064,-0.005902,-0.002391,41.33987,1,IDLE
1759486018.13082,-4.915895,8.073996,-2.69228,0.00513,-0.010253,-0.002235,41.35930,1,IDLE
1759486018.15138,-4.887314,8.07654,-2.687342,0.003972,-0.01055,-0.002804,41.37986,1,IDLE
1759486018.17138,-4.868609,8.087464,-2.666093,0.001563,-0.014509,0.000591,41.39986,1,IDLE
1759486018.19119,-4.896292,8.088361,-2.674174,0.005447,-0.011895,0.010455,41.41967,1,IDLE
1759486018.21138,-4.951359,8.08911,-2.677166,0.006335,-0.013062,0.008317,41.43986,1,IDLE
1759486018.23084,-4.964976,8.075343,-2.683601,0.004687,-0.008995,0.003247,41.45932,1,IDLE
1759486018.25137,-4.936844,8.067412,-2.690185,-0.002387,-0.000177,-0.002261,41.47985,1,IDLE
1759486018.27138,-4.948665,8.051401,-2.714725,-0.005742,0.007363,-0.001126,41.49986,1,IDLE
1759486018.29136,-4.93026,8.065018,-2.706645,-0.009804,-0.002326,-0.002103,41.51984,1,IDLE
1759486018.31138,-4.932504,8.066065,-2.737919,-0.005029,0.005891,0.003685,41.53986,1,IDLE
1759486018.33084,-4.931906,8.061726,-2.73328,-0.002662,0.009584,-0.000967,41.55932,1,IDLE
1759486018.35139,-4.924125,8.087912,-2.709937,0.000926,0.01473,-0.006356,41.57987,1,IDLE
1759486018.37137,-4.890755,8.11365,-2.65921,-0.004449,0.008776,-0.004806,41.59985,1,IDLE
1759486018.39136,-4.881179,8.119336,-2.673874,-0.004544,0.002295,-0.000594,41.61984,1,IDLE
1759486018.41138,-4.862474,8.092102,-2.687042,-0.002565,-0.006951,0.003356,41.63986,1,IDLE
1759486018.43087,-4.886266,8.071602,-2.720711,0.000986,-0.004931,0.003048,41.65935,1,IDLE
1759486018.45117,-4.909759,8.061576,-2.700959,0.001348,0.000484,0.00416,41.67965,1,IDLE
1759486018.47138,-4.928614,8.086266,-2.680458,-0.003544,0.00383,0.002611,41.69986,1,IDLE
1759486018.49136,-4.928763,8.094796,-2.671331,-0.003588,-0.000651,0.002242,41.71984,1,IDLE
1759486018.51138,-4.934599,8.081628,-2.700809,-0.002912,-0.004602,0.00352,41.73986,1,IDLE
1759486018.53088,-4.951508,8.051102,-2.722656,-0.003163,-0.002954,0.004601,41.75936,1,IDLE
1759486018.55137,-4.945822,8.046313,-2.720112,0.000014,0.00385,-0.000478,41.77985,1,IDLE
1759486018.57138,-4.932355,8.048259,-2.698265,-0.001569,0.008473,-0.000498,41.79986,1,IDLE
1759486018.59088,-4.906318,8.08477,-2.66325,-0.005538,0.00574,0.000867,41.81936,1,IDLE
1759486018.61138,-4.883274,8.10542,-2.687342,-0.003421,0.002909,0.004844,41.83986,1,IDLE
1759486018.63090,-4.870854,8.103924,-2.71263,0.000135,-0.006632,0.007675,41.85938,1,IDLE
1759486018.65139,-4.895245,8.078635,-2.713229,0.002272,-0.010154,0.009014,41.87987,1,IDLE
1759486018.67139,-4.910208,8.039131,-2.700211,-0.00175,-0.005854,0.010624,41.89987,1,IDLE
1759486018.69135,-4.925322,8.046912,-2.664298,-0.007702,-0.001119,0.007976,41.91983,1,IDLE
1759486018.71138,-4.945224,8.073248,-2.695721,-0.009378,0.002804,0.005829,41.93986,1,IDLE
1759486018.73092,-4.935647,8.09704,-2.717868,-0.007298,0.000806,0.006786,41.95940,1,IDLE
1759486018.75143,-4.908113,8.082077,-2.718466,-0.002711,-0.001949,0.008978,41.97991,1,IDLE
1759486018.77140,-4.906018,8.080431,-2.71697,-0.000711,-0.002551,0.01069,41.99988,1,IDLE
1759486018.79135,-4.912453,8.065467,-2.700061,-0.001557,0.001834,0.013365,42.01983,1,IDLE
1759486018.81138,-4.924723,8.076989,-2.686444,-0.005202,0.00325,0.010739,42.03986,1,IDLE
1759486018.83092,-4.897639,8.08462,-2.662652,-0.006757,-0.002547,0.008172,42.05940,1,IDLE
1759486018.85138,-4.878934,8.098986,-2.675371,-0.005695,-0.016537,0.008478,42.07986,1,IDLE
1759486018.87101,-4.883872,8.095993,-2.697966,-0.003563,-0.01506,0.015222,42.09949,1,IDLE
1759486018.89089,-4.90138,8.088361,-2.684349,-0.005944,-0.019804,0.017721,42.11937,1,IDLE
1759486018.91143,-4.906617,8.067562,-2.742259,-0.004241,-0.00649,0.021314,42.13991,1,IDLE
1759486018.93092,-4.951359,8.04766,-2.707393,-0.007077,0.003776,0.015712,42.15940,1,IDLE
1759486018.95136,-4.93415,8.07669,-2.689437,-0.00752,0.000349,0.008042,42.17984,1,IDLE
1759486018.97136,-4.919037,8.122329,-2.666991,-0.004861,-0.00718,0.005892,42.19984,1,IDLE
1759486018.99089,-4.896442,8.120833,-2.674473,-0.003469,-0.008444,0.008931,42.21937,1,IDLE
1759486019.01138,-4.903774,8.104822,-2.697367,-0.003098,-0.00566,0.012586,42.23986,1,IDLE
1759486019.03096,-4.896741,8.07639,-2.718466,-0.004623,0.00136,0.011181,42.25944,1,IDLE
1759486019.05138,-4.898387,8.066065,-2.69617,-0.003176,0.005089,0.011148,42.27986,1,IDLE
1759486019.07138,-4.901529,8.075343,-2.648885,-0.005978,-0.00228,0.012205,42.29986,1,IDLE
1759486019.09135,-4.899135,8.106916,-2.651429,-0.005618,-0.010354,0.013462,42.31983,1,IDLE
1759486019.11139,-4.909311,8.110358,-2.690933,-0.007178,-0.009433,0.014656,42.33987,1,IDLE
1759486019.13097,-4.908413,8.103475,-2.72535,-0.009291,0.00117,0.015775,42.35945,1,IDLE
1759486019.15138,-4.881478,8.072799,-2.719514,-0.009783,0.0094,0.012208,42.37986,1,IDLE
1759486019.17140,-4.862773,8.074744,-2.687491,-0.007079,0.00507,0.010346,42.39988,1,IDLE
1759486019.19087,-4.883722,8.105121,-2.672228,-0.005739,-0.001074,0.010205,42.41935,1,IDLE
1759486019.21138,-4.899434,8.109311,-2.660706,-0.003081,-0.010992,0.008723,42.43986,1,IDLE
1759486019.23099,-4.896591,8.108562,-2.695572,-0.003646,-0.010994,0.006613,42.45947,1,IDLE
1759486019.25137,-4.892401,8.119037,-2.693178,-0.001145,-0.005721,0.005189,42.47985,1,IDLE
1759486019.27138,-4.873846,8.115895,-2.690933,-0.000547,-0.003167,0.008262,42.49986,1,IDLE
1759486019.29134,-4.885219,8.093449,-2.669684,-0.001227,-0.007214,0.007091,42.51982,1,IDLE
1759486019.31136,-4.867861,8.098986,-2.644246,-0.003092,-0.005852,0.011979,42.53984,1,IDLE
1759486019.33099,-4.875642,8.092102,-2.694075,-0.005625,-0.004305,0.013958,42.55947,1,IDLE
1759486019.35138,-4.891055,8.095544,-2.682254,-0.006852,0.001711,0.01366,42.57986,1,IDLE
1759486019.37137,-4.934599,8.103774,-2.68809,-0.007993,0.003336,0.013653,42.59985,1,IDLE
1759486019.39089,-4.912603,8.067412,-2.670283,-0.006308,0.002598,0.008532,42.61937,1,IDLE
1759486019.41138,-4.906168,8.087164,-2.663699,-0.002158,-0.002666,0.004684,42.63986,1,IDLE
1759486019.43102,-4.857686,8.112154,-2.67567,-0.000194,-0.006279,0.003594,42.65950,1,IDLE
1759486019.45137,-4.861277,8.131158,-2.671331,-0.00321,-0.010754,0.007462,42.67985,1,IDLE
1759486019.47138,-4.89719,8.118439,-2.663549,-0.006204,-0.003802,0.012277,42.69986,1,IDLE
1759486019.49089,-4.895693,8.094347,-2.670882,-0.009322,-0.006904,0.015819,42.71937,1,IDLE
1759486019.51137,-4.865916,8.083274,-2.7252,-0.00686,0.002919,0.01739,42.73985,1,IDLE
1759486019.53104,-4.85574,8.095394,-2.690783,-0.008744,0.010164,0.015258,42.75952,1,IDLE
1759486019.55138,-4.861277,8.120833,-2.666692,-0.008191,0.006613,0.007287,42.77986,1,IDLE
1759486019.57138,-4.892701,8.132205,-2.668038,-0.002695,0.002299,0.002319,42.79986,1,IDLE
1759486019.59094,-4.914997,8.129063,-2.65083,-0.002004,-0.004198,-0.000223,42.81942,1,IDLE
1759486019.61138,-4.898686,8.12203,-2.672378,-0.002369,0.002472,-0.002178,42.83986,1,IDLE
1759486019.63106,-4.835689,8.116793,-2.696919,-0.002856,0.008542,0.001881,42.85954,1,IDLE
1759486019.65137,-4.813094,8.103026,-2.669086,-0.002186,0.008138,0.005694,42.87985,1,IDLE
1759486019.67138,-4.831798,8.112453,-2.655319,0.001149,-0.006529,0.009654,42.89986,1,IDLE
1759486019.69094,-4.891953,8.120833,-2.658761,0.004537,-0.015656,0.008318,42.91942,1,IDLE
1759486019.71137,-4.932804,8.128015,-2.683601,0.002818,-0.012477,0.003517,42.93985,1,IDLE
1759486019.73108,-4.927566,8.097639,-2.711583,-0.001882,-0.000562,0.000356,42.95956,1,IDLE
1759486019.75137,-4.892551,8.070255,-2.713379,-0.003376,0.01123,0.000542,42.97985,1,IDLE
1759486019.77137,-4.849455,8.07639,-2.684499,-0.01037,0.014646,-0.002549,42.99985,1,IDLE
1759486019.79135,-4.862175,8.112752,-2.666243,-0.00928,0.006371,-0.002087,43.01983,1,IDLE
1759486019.81138,-4.832247,8.152107,-2.670882,-0.003381,-0.007333,-0.000509,43.03986,1,IDLE
1759486019.83107,-4.851251,8.141483,-2.686893,0.003918,-0.017661,0.00141,43.05955,1,IDLE
1759486019.85137,-4.842871,8.135647,-2.698265,0.005465,-0.009363,0.003134,43.07985,1,IDLE
1759486019.87137,-4.850054,8.135048,-2.680009,0.001799,-0.002424,0.003883,43.09985,1,IDLE
1759486019.89136,-4.889109,8.095245,-2.674174,0.001336,-0.000761,0.002095,43.11984,1,IDLE
1759486019.91137,-4.927866,8.085518,-2.68405,0.000172,-0.001165,-0.001474,43.13985,1,IDLE
1759486019.93110,-4.931008,8.075493,-2.667739,-0.000811,0.001291,-0.001951,43.15958,1,IDLE
1759486019.95137,-4.906916,8.099734,-2.690933,-0.004667,0.00717,-0.004396,43.17985,1,IDLE
1759486019.97137,-4.890905,8.115296,-2.699911,-0.006084,0.016066,-0.001547,43.19985,1,IDLE
1759486019.99135,-4.879383,8.112004,-2.691532,-0.002209,0.01625,-0.001179,43.21983,1,IDLE
1759486020.01137,-4.893898,8.079832,-2.67971,-0.001737,0.007336,-0.003364,43.23985,1,IDLE
1759486020.03112,-4.896741,8.082077,-2.67971,-0.000455,-0.001039,-0.005857,43.25960,1,IDLE
1759486020.05137,-4.883872,8.100632,-2.686294,-0.002254,0.001956,-0.000145,43.27985,1,IDLE
1759486020.07140,-4.870255,8.116643,-2.662502,-0.007785,-0.002751,0.00156,43.29988,1,IDLE
1759486020.09135,-4.836287,8.105121,-2.701707,-0.006554,0.004731,0.00661,43.31983,1,IDLE
1759486020.11138,-4.875792,8.095843,-2.708141,-0.005613,0.012116,0.001191,43.33986,1,IDLE
1759486020.13115,-4.90946,8.101679,-2.721758,-0.000111,0.010413,-0.006101,43.35963,1,IDLE
1759486020.15137,-4.897938,8.102727,-2.669535,0.001283,-0.002065,-0.007381,43.37985,1,IDLE
1759486020.17137,-4.893299,8.108862,-2.692429,0.002867,-0.00497,-0.000708,43.39985,1,IDLE
1759486020.19135,-4.900183,8.108114,-2.668038,-0.001108,-0.00294,0.002126,43.41983,1,IDLE
1759486020.21137,-4.882974,8.119187,-2.702455,-0.00318,0.004541,0.001191,43.43985,1,IDLE
1759486020.23115,-4.850054,8.084022,-2.71263,-0.001816,0.009986,-0.001478,43.45963,1,IDLE
1759486020.25135,-4.870405,8.073847,-2.668787,0.002898,-0.001303,-0.003557,43.47983,1,IDLE
1759486020.27126,-4.884471,8.09704,-2.657863,0.002533,-0.012412,-0.003207,43.49974,1,IDLE
1759486020.29135,-4.894047,8.096741,-2.671181,-0.002098,-0.009292,0.001195,43.51983,1,IDLE
1759486020.31136,-4.911256,8.111705,-2.705897,-0.005679,-0.000711,0.00501,43.53984,1,IDLE
1759486020.33115,-4.910358,8.093748,-2.713528,-0.003383,0.008076,0.000736,43.55963,1,IDLE
1759486020.35136,-4.908263,8.083723,-2.70889,-0.002912,0.006163,-0.003916,43.57984,1,IDLE
1759486020.37136,-4.899883,8.085069,-2.695721,-0.001386,0.002437,-0.005577,43.59984,1,IDLE
1759486020.39135,-4.887912,8.086266,-2.696769,-0.002977,-0.003179,-0.006287,43.61983,1,IDLE
1759486020.41142,-4.879682,8.085668,-2.73328,-0.002366,0.001185,-0.000009,43.63990,1,IDLE
1759486020.43118,-4.920384,8.08058,-2.720861,-0.003128,0.009447,0.005174,43.65966,1,IDLE
1759486020.45137,-4.931607,8.09704,-2.709039,-0.004361,0.013537,0.006671,43.67985,1,IDLE
1759486020.47138,-4.925771,8.095095,-2.701258,-0.002374,0.010108,0.002816,43.69986,1,IDLE
1759486020.49135,-4.894496,8.08088,-2.675371,-0.000286,0.004339,0.001214,43.71983,1,IDLE
1759486020.51137,-4.890307,8.059481,-2.661454,-0.002443,-0.000961,-0.000521,43.73985,1,IDLE
1759486020.53123,-4.891204,8.085967,-2.668637,-0.007011,-0.001971,-0.001611,43.75971,1,IDLE
1759486020.55137,-4.88058,8.106468,-2.699462,-0.004644,-0.001502,0.00095,43.77985,1,IDLE
1759486020.57138,-4.868759,8.108413,-2.723853,0.001542,-0.002684,0.006966,43.79986,1,IDLE
1759486020.59135,-4.88043,8.102727,-2.705747,0.006173,-0.009727,0.007262,43.81983,1,IDLE
1759486020.61137,-4.921282,8.06846,-2.693627,0.005867,-0.005991,-0.001788,43.83985,1,IDLE
1759486020.63124,-4.896591,8.092252,-2.673575,-0.001866,-0.006124,-0.002202,43.85972,1,IDLE
1759486020.65045,-4.881029,8.102278,-2.678064,-0.005524,-0.005082,0.001605,43.87893,1,IDLE
1759486020.67137,-4.866813,8.086865,-2.694375,-0.007772,-0.014196,0.006858,43.89985,1,IDLE
1759486020.69135,-4.878934,8.06397,-2.770391,-0.002064,-0.001639,0.012787,43.91983,1,IDLE
1759486020.71140,-4.934001,8.046313,-2.751686,0.000699,0.003787,0.006153,43.93988,1,IDLE
1759486020.73127,-4.983082,8.058434,-2.680458,0.00122,0.001005,-0.004611,43.95975,1,IDLE
1759486020.75137,-4.947318,8.100931,-2.656516,-0.005198,0.003442,-0.007314,43.97985,1,IDLE
1759486020.77137,-4.905121,8.096143,-2.674922,-0.008948,0.005346,-0.003823,43.99985,1,IDLE
1759486020.79135,-4.878635,8.090307,-2.689137,-0.008126,0.002908,0.003287,44.01983,1,IDLE
1759486020.81137,-4.870255,8.082526,-2.730288,-0.003348,0.004719,0.007008,44.03985,1,IDLE
1759486020.83129,-4.889109,8.070704,-2.695422,-0.003857,0.005541,0.008256,44.05977,1,IDLE
1759486020.85138,-4.899734,8.102876,-2.665944,-0.002022,-0.001854,0.006575,44.07986,1,IDLE
1759486020.87138,-4.897489,8.112902,-2.655469,-0.003182,-0.008547,0.006045,44.09986,1,IDLE
1759486020.89135,-4.915296,8.103325,-2.694225,-0.008051,-0.00139,0.007099,44.11983,1,IDLE
1759486020.91142,-4.919037,8.073996,-2.713229,-0.007913,0.004283,0.002232,44.13990,1,IDLE
1759486020.93130,-4.906168,8.075193,-2.726098,-0.00169,0.00597,0.001054,44.15978,1,IDLE
1759486020.95136,-4.891504,8.071901,-2.707244,0.002416,0.004873,0.002268,44.17984,1,IDLE
1759486020.97136,-4.884471,8.076839,-2.647837,-0.001648,0.001319,0.003714,44.19984,1,IDLE
1759486020.99135,-4.88073,8.107365,-2.662352,-0.003839,-0.00227,0.00794,44.21983,1,IDLE
1759486021.01137,-4.888361,8.110059,-2.669834,-0.002943,-0.006301,0.007795,44.23985,1,IDLE
1759486021.03133,-4.895245,8.092402,-2.720412,-0.00066,-0.011803,0.008435,44.25981,1,IDLE
1759486021.05135,-4.904073,8.075792,-2.729091,0.000919,-0.008382,0.008355,44.27983,1,IDLE
1759486021.07141,-4.915446,8.070704,-2.715324,-0.002959,0.005693,0.008441,44.29989,1,IDLE
1759486021.09135,-4.931158,8.0725,-2.684648,-0.007137,0.013656,0.005897,44.31983,1,IDLE
1759486021.11136,-4.899285,8.086566,-2.652327,-0.010256,0.003469,0.002883,44.33984,1,IDLE
1759486021.13133,-4.882525,8.110807,-2.692579,-0.007515,-0.005161,0.00134,44.35981,1,IDLE
1759486021.15138,-4.878784,8.103924,-2.712331,-0.003116,-0.010665,0.006516,44.37986,1,IDLE
1759486021.17138,-4.876091,8.08462,-2.7252,0.001021,-0.004727,0.009101,44.39986,1,IDLE
1759486021.19135,-4.914099,8.09704,-2.697367,0.000346,0.000812,0.010146,44.41983,1,IDLE
1759486021.21138,-4.909909,8.089708,-2.681955,-0.001794,-0.000084,0.006724,44.43986,1,IDLE
1759486021.23135,-4.889858,8.082974,-2.683002,-0.001667,-0.01262,0.006452,44.45983,1,IDLE
1759486021.25137,-4.898088,8.087015,-2.689736,-0.004189,-0.018109,0.008126,44.47985,1,IDLE
1759486021.27136,-4.907814,8.059032,-2.685097,-0.005402,-0.014309,0.010626,44.49984,1,IDLE
1759486021.29135,-4.933851,8.076241,-2.7047,-0.009428,-0.012528,0.011988,44.51983,1,IDLE
1759486021.31136,-4.931457,8.075941,-2.709488,-0.007363,0.001951,0.01134,44.53984,1,IDLE
1759486021.33136,-4.915595,8.084172,-2.641553,-0.007718,0.005797,0.007411,44.55984,1,IDLE
1759486021.35138,-4.912752,8.113501,-2.651878,-0.010526,0.006942,0.003397,44.57986,1,IDLE
1759486021.37136,-4.895245,8.096741,-2.67986,-0.009088,0.00512,0.011584,44.59984,1,IDLE
1759486021.39135,-4.913949,8.089708,-2.693627,-0.00615,0.001969,0.01338,44.61983,1,IDLE
1759486021.41138,-4.90961,8.082974,-2.686594,-0.001364,-0.003743,0.011654,44.63986,1,IDLE
1759486021.43138,-4.848258,8.097938,-2.684948,0.001868,-0.012444,0.009655,44.65986,1,IDLE
1759486021.45138,-4.845565,8.116493,-2.654272,-0.000507,-0.012524,0.010424,44.67986,1,IDLE
1759486021.47138,-4.875492,8.10976,-2.666392,-0.005738,-0.010613,0.009449,44.69986,1,IDLE
1759486021.49135,-4.90557,8.116044,-2.702605,-0.009323,-0.000909,0.010649,44.71983,1,IDLE
1759486021.51140,-4.909759,8.100931,-2.747795,-0.008781,0.01275,0.007219,44.73988,1,IDLE
1759486021.53090,-4.862624,8.092102,-2.734777,-0.006872,0.013794,0.006586,44.75938,1,IDLE
1759486021.55137,-4.812196,8.097489,-2.684499,-0.003916,0.002103,0.009734,44.77985,1,IDLE
1759486021.57137,-4.817283,8.12622,-2.64275,-0.001724,-0.016288,0.012778,44.79985,1,IDLE
1759486021.59135,-4.850353,8.100332,-2.653374,-0.000911,-0.029485,0.015545,44.81983,1,IDLE
1759486021.61137,-4.907515,8.090007,-2.695721,0.00166,-0.025315,0.016017,44.83985,1,IDLE
1759486021.63091,-4.958392,8.061726,-2.724153,-0.000673,-0.006232,0.008758,44.85939,1,IDLE
1759486021.65114,-4.951059,8.089409,-2.698415,-0.005678,0.012259,0.006554,44.87962,1,IDLE
1759486021.67084,-4.912004,8.10527,-2.653823,-0.010265,0.019911,0.005156,44.89932,1,IDLE
1759486021.69117,-4.886266,8.10542,-2.623147,-0.011281,0.013144,0.004267,44.91965,1,IDLE
1759486021.71136,-4.876989,8.091504,-2.633323,-0.007992,-0.002147,0.005319,44.93984,1,IDLE
1759486021.73093,-4.853945,8.113501,-2.654571,-0.003702,-0.011217,0.004409,44.95941,1,IDLE
1759486021.75136,-4.850802,8.110957,-2.706046,-0.000786,-0.013933,0.007695,44.97984,1,IDLE
1759486021.77136,-4.83509,8.111106,-2.701108,-0.002427,-0.006377,0.013349,44.99984,1,IDLE
1759486021.79133,-4.86008,8.125322,-2.700659,-0.00687,0.002921,0.012446,45.01981,1,IDLE
1759486021.81136,-4.897489,8.112154,-2.702006,-0.00645,0.005314,0.009445,45.03984,1,IDLE
1759486021.83095,-4.914249,8.085069,-2.712481,-0.000189,-0.0036,0.006416,45.05943,1,IDLE
1759486021.85136,-4.932055,8.090007,-2.693776,0.000779,-0.005058,0.003612,45.07984,1,IDLE
1759486021.87136,-4.903325,8.095245,-2.680009,-0.008079,0.007486,0.000827,45.09984,1,IDLE
1759486021.89134,-4.841076,8.11784,-2.659509,-0.017371,0.01362,0.001418,45.11982,1,IDLE
1759486021.91136,-4.817732,8.131906,-2.694674,-0.012309,0.02162,0.006784,45.13984,1,IDLE
1759486021.93096,-4.8312,8.123975,-2.639009,-0.002212,0.003294,0.006896,45.15944,1,IDLE
1759486021.95136,-4.869208,8.117391,-2.633622,0.006976,-0.019792,0.005361,45.17984,1,IDLE
1759486021.97064,-4.904672,8.090756,-2.65098,0.006784,-0.026394,0.005946,45.19912,1,IDLE
1759486021.99040,-4.944625,8.086266,-2.666093,0.0004,-0.008774,0.004742,45.21888,1,IDLE
1759486022.01136,-4.966322,8.085818,-2.705897,-0.008535,0.013787,0.001893,45.23984,1,IDLE
1759486022.03096,-4.90123,8.091055,-2.706046,-0.011161,0.024492,-0.001259,45.25944,1,IDLE
1759486022.05136,-4.862175,8.090905,-2.664896,-0.008189,0.018014,-0.001517,45.27984,1,IDLE
1759486022.07135,-4.84751,8.128165,-2.65487,-0.00278,-0.001051,-0.001147,45.29983,1,IDLE
1759486022.09133,-4.838233,8.159888,-2.645742,0.000992,-0.01521,0.004871,45.31981,1,IDLE
1759486022.11088,-4.851999,8.119935,-2.6839,0.000958,-0.011668,0.011684,45.33936,1,IDLE
1759486022.13100,-4.889558,8.076091,-2.7047,0.000534,0.002688,0.011846,45.35948,1,IDLE
1759486022.15136,-4.902876,8.07654,-2.707094,-0.002077,0.01134,0.004464,45.37984,1,IDLE
1759486022.17136,-4.877587,8.100033,-2.651878,-0.004057,0.010962,-0.003502,45.39984,1,IDLE
1759486022.19134,-4.875193,8.13864,-2.649932,-0.000846,-0.000375,-0.005969,45.41982,1,IDLE
1759486022.21083,-4.838532,8.129811,-2.659958,0.002284,-0.009071,-0.002894,45.43931,1,IDLE
1759486022.23106,-4.8517,8.119636,-2.685247,0.001803,-0.008221,0.001304,45.45954,1,IDLE
1759486022.25135,-4.853346,8.080131,-2.690185,-0.003379,-0.006175,0.002936,45.47983,1,IDLE
1759486022.27136,-4.855142,8.085069,-2.69617,-0.003406,0.002981,0.002651,45.49984,1,IDLE
1759486022.29071,-4.871153,8.10946,-2.685696,-0.000448,0.005726,0.000606,45.51919,1,IDLE
1759486022.31136,-4.87654,8.106767,-2.652476,-0.00472,-0.002085,0.000755,45.53984,1,IDLE
1759486022.33105,-4.904073,8.115895,-2.668487,-0.006145,-0.005689,-0.003011,45.55953,1,IDLE
1759486022.35136,-4.916493,8.098986,-2.717419,-0.004477,-0.000027,-0.005663,45.57984,1,IDLE
1759486022.37135,-4.912303,8.071602,-2.73747,0.001763,0.009756,-0.004295,45.59983,1,IDLE
1759486022.39133,-4.914847,8.076839,-2.696021,0.003839,0.01011,-0.004964,45.61981,1,IDLE
1759486022.41136,-4.904073,8.106767,-2.649483,0.00225,0.007206,-0.005464,45.63984,1,IDLE
1759486022.43105,-4.865766,8.108712,-2.644396,-0.002527,0.002148,-0.002056,45.65953,1,IDLE
1759486022.45136,-4.860529,8.098686,-2.647987,-0.00445,-0.000699,0.000158,45.67984,1,IDLE
1759486022.47136,-4.898537,8.098237,-2.681207,-0.006392,-0.005748,0.000181,45.69984,1,IDLE
1759486022.49134,-4.892401,8.101978,-2.714576,-0.002181,-0.007559,0.000461,45.71982,1,IDLE
1759486022.51135,-4.887463,8.074146,-2.7252,0.001818,0.002265,0.00352,45.73983,1,IDLE
1759486022.53107,-4.911405,8.079682,-2.66744,-0.000214,0.006307,-0.002453,45.75955,1,IDLE
1759486022.55136,-4.919935,8.107964,-2.651429,-0.004317,0.006258,-0.006957,45.77984,1,IDLE
1759486022.57066,-4.875043,8.15076,-2.677316,-0.005472,0.005204,-0.003571,45.79914,1,IDLE
1759486022.59039,-4.854244,8.139388,-2.702156,0.000932,0.002703,0.003506,45.81887,1,IDLE
1759486022.61136,-4.870554,8.093,-2.707393,0.005146,-0.005498,0.006365,45.83984,1,IDLE
1759486022.63108,-4.869357,8.073398,-2.688539,0.002906,-0.007557,0.007092,45.85956,1,IDLE
1759486022.65136,-4.898986,8.054693,-2.692579,-0.002173,0.004356,0.00819,45.87984,1,IDLE
1759486022.67136,-4.936993,8.083723,-2.672677,-0.00755,0.007347,0.002836,45.89984,1,IDLE
1759486022.69133,-4.935946,8.096292,-2.698415,-0.005464,0.006124,-0.004965,45.91981,1,IDLE
1759486022.71102,-4.913351,8.094796,-2.693178,-0.002111,0.002983,-0.003413,45.93950,1,IDLE
1759486022.73110,-4.903325,8.065168,-2.696619,-0.002059,0.000515,-0.002494,45.95958,1,IDLE
1759486022.75136,-4.871003,8.065018,-2.669984,-0.004027,0.000015,-0.003169,45.97984,1,IDLE
1759486022.77136,-4.856937,8.092102,-2.693028,-0.006109,0.00428,0.001158,45.99984,1,IDLE
1759486022.79133,-4.86427,8.122928,-2.693327,-0.002903,0.002827,0.005772,46.01981,1,IDLE
1759486022.81135,-4.884171,8.122928,-2.670283,0.0046,-0.006894,0.001569,46.03983,1,IDLE
1759486022.83111,-4.903774,8.097639,-2.684798,0.005018,-0.010131,-0.001027,46.05959,1,IDLE
1759486022.85125,-4.902876,8.079682,-2.685845,0.002579,-0.008828,-0.002475,46.07973,1,IDLE
1759486022.87083,-4.903924,8.089708,-2.670882,-0.003702,-0.00185,0.000644,46.09931,1,IDLE
1759486022.89056,-4.89285,8.092102,-2.695871,-0.007039,0.002989,0.001753,46.11904,1,IDLE
1759486022.91136,-4.869058,8.108114,-2.702754,-0.006222,-0.000417,0.003311,46.13984,1,IDLE
1759486022.93111,-4.88073,8.097639,-2.715773,0.000222,-0.004459,-0.001746,46.15959,1,IDLE
1759486022.95140,-4.923526,8.084172,-2.703054,0.00333,-0.008703,-0.004075,46.17988,1,IDLE
1759486022.97134,-4.938639,8.083573,-2.669535,0.000937,-0.009494,0.000826,46.19982,1,IDLE
1759486022.99113,-4.94687,8.073098,-2.696919,0.000403,-0.006711,0.000817,46.21961,1,IDLE
1759486023.01134,-4.923676,8.06846,-2.703802,-0.003303,0.0106,0.004696,46.23982,1,IDLE
1759486023.03115,-4.925172,8.064419,-2.67986,-0.00436,0.015748,0.001244,46.25963,1,IDLE
1759486023.05135,-4.92203,8.079084,-2.673126,-0.00602,0.011521,-0.003275,46.27983,1,IDLE
1759486023.07136,-4.898237,8.080431,-2.654721,-0.002777,-0.001242,-0.007865,46.29984,1,IDLE
1759486023.09134,-4.868609,8.097938,-2.65487,-0.005558,-0.005567,-0.005679,46.31982,1,IDLE
1759486023.11136,-4.852598,8.10123,-2.684199,-0.006481,-0.004022,0.001394,46.33984,1,IDLE
1759486023.13117,-4.859332,8.123077,-2.688389,-0.005572,-0.00301,0.011085,46.35965,1,IDLE
1759486023.15135,-4.884321,8.099734,-2.720861,-0.000919,-0.004552,0.009553,46.37983,1,IDLE
1759486023.17135,-4.946271,8.054843,-2.724601,0.005952,-0.009577,0.000536,46.39983,1,IDLE
1759486023.19060,-5.006276,8.059332,-2.70036,-0.001826,-0.010347,-0.010442,46.41908,1,IDLE
1759486023.21038,-4.986374,8.077438,-2.751237,-0.005723,0.008977,-0.014112,46.43886,1,IDLE
1759486023.23118,-4.981885,8.087015,-2.766201,-0.0052,0.02703,-0.014026,46.45966,1,IDLE
1759486023.25135,-4.932055,8.074445,-2.721459,-0.002132,0.029074,-0.00845,46.47983,1,IDLE
1759486023.27135,-4.878336,8.075941,-2.676269,0.000686,0.020062,-0.002464,46.49983,1,IDLE
1759486023.29133,-4.832546,8.09704,-2.648436,0.003052,0.010197,0.003655,46.51981,1,IDLE
1759486023.31135,-4.816086,8.104223,-2.598906,-0.002106,-0.006467,0.007693,46.53983,1,IDLE
1759486023.33120,-4.832546,8.12622,-2.622698,-0.003656,-0.021353,0.007293,46.55968,1,IDLE
1759486023.35035,-4.873098,8.108413,-2.660706,-0.002246,-0.028586,0.008961,46.57883,1,IDLE
1759486023.37135,-4.925471,8.068011,-2.715773,0.003645,-0.028178,0.004894,46.59983,1,IDLE
1759486023.39133,-4.936096,8.060978,-2.734328,0.005777,-0.019351,0.001925,46.61981,1,IDLE
1759486023.41136,-4.944625,8.086416,-2.705149,-0.00003,-0.003509,0.002656,46.63984,1,IDLE
1759486023.43126,-4.937891,8.095993,-2.685546,-0.006616,0.003845,0.001071,46.65974,1,IDLE
1759486023.45037,-4.912603,8.098387,-2.701108,-0.003241,0.000421,-0.000863,46.67885,1,IDLE
1759486023.47088,-4.894496,8.081628,-2.731784,0.003394,-0.01146,0.001808,46.69936,1,IDLE
1759486023.49133,-4.90527,8.036736,-2.767847,0.009475,-0.010059,0.007438,46.71981,1,IDLE
1759486023.51135,-4.952855,8.027609,-2.710236,0.004739,-0.000529,0.011019,46.73983,1,IDLE
1759486023.53124,-5.018845,8.021623,-2.659659,-0.006412,0.010515,0.01054,46.75972,1,IDLE
1759486023.55039,-5.038747,8.033744,-2.671331,-0.013836,0.020029,0.00271,46.77887,1,IDLE
1759486023.57136,-5.007772,8.025663,-2.681955,-0.013937,0.027199,-0.000431,46.79984,1,IDLE
1759486023.59134,-4.930709,8.063821,-2.674623,-0.013839,0.015983,-0.001304,46.81982,1,IDLE
1759486023.61135,-4.869657,8.099883,-2.66729,-0.014608,0.014204,0.005965,46.83983,1,IDLE
1759486023.63125,-4.850054,8.107066,-2.673276,-0.015737,0.009153,0.009161,46.85973,1,IDLE
1759486023.65041,-4.820126,8.137891,-2.668038,-0.006982,0.003528,0.015441,46.87889,1,IDLE
1759486023.67136,-4.828357,8.157943,-2.664148,0.001672,-0.011196,0.017717,46.89984,1,IDLE
1759486023.69134,-4.833444,8.163031,-2.680907,0.005834,-0.018988,0.021366,46.91982,1,IDLE
1759486023.71136,-4.826112,8.133702,-2.702754,0.005,-0.029191,0.018161,46.93984,1,IDLE
1759486023.73127,-4.873248,8.064868,-2.724751,0.005731,-0.03255,0.013464,46.95975,1,IDLE
1759486023.75042,-4.943428,8.03928,-2.729839,0.003456,-0.022201,0.012302,46.97890,1,IDLE
1759486023.77136,-4.972757,8.063522,-2.699911,-0.000433,-0.018035,0.009143,46.99984,1,IDLE
1759486023.79134,-4.957344,8.087464,-2.716671,-0.001505,-0.007853,0.005123,47.01982,1,IDLE
1759486023.81136,-4.92592,8.07235,-2.713977,-0.001699,-0.008597,0.003776,47.03984,1,IDLE
1759486023.83128,-4.9135,8.064719,-2.692579,0.002467,-0.013353,0.007204,47.05976,1,IDLE
1759486023.85044,-4.92622,8.081029,-2.665046,0.001632,-0.017766,0.012496,47.07892,1,IDLE
1759486023.87136,-4.936694,8.080281,-2.673126,-0.000991,-0.013446,0.017537,47.09984,1,IDLE
1759486023.89133,-4.931607,8.071303,-2.666243,-0.00114,-0.012233,0.01629,47.11981,1,IDLE
1759486023.91074,-4.942829,8.063821,-2.686594,-0.002275,-0.015033,0.013274,47.13922,1,IDLE
1759486023.93127,-4.93834,8.053047,-2.69228,0.001361,-0.015731,0.010612,47.15975,1,IDLE
1759486023.95043,-4.966771,8.056339,-2.687641,0.00115,-0.01347,0.00809,47.17891,1,IDLE
1759486023.97133,-4.987721,8.059332,-2.663699,-0.001242,-0.012436,0.009358,47.19981,1,IDLE
1759486023.99136,-4.964377,8.081179,-2.666841,-0.007737,-0.00108,0.010694,47.21984,1,IDLE
1759486024.01134,-4.923526,8.104971,-2.672228,-0.014878,0.011792,0.009403,47.23982,1,IDLE
1759486024.03133,-4.879682,8.10153,-2.698415,-0.01166,0.016221,0.008079,47.25981,1,IDLE
1759486024.05048,-4.873547,8.093599,-2.680758,-0.008025,0.011113,0.006502,47.27896,1,IDLE
1759486024.07136,-4.873098,8.104672,-2.668188,-0.005275,0.002745,0.005643,47.29984,1,IDLE
1759486024.09135,-4.858883,8.133702,-2.644396,-0.003276,-0.005793,0.005962,47.31983,1,IDLE
1759486024.11137,-4.834791,8.15929,-2.646341,-0.001562,-0.014972,0.009316,47.33985,1,IDLE
1759486024.13135,-4.830601,8.143727,-2.674922,0.001272,-0.014266,0.006848,47.35983,1,IDLE
1759486024.15050,-4.838233,8.124274,-2.6839,0.010146,-0.018347,0.007782,47.37898,1,IDLE
1759486024.17138,-4.877138,8.123377,-2.678663,0.015609,-0.031434,0.0106,47.39986,1,IDLE
1759486024.19134,-4.908113,8.128464,-2.663699,0.014492,-0.038507,0.016136,47.41982,1,IDLE
1759486024.21101,-4.911705,8.070555,-2.69228,0.005311,-0.031028,0.01477,47.43949,1,IDLE
1759486024.23137,-4.931756,8.009951,-2.741062,-0.004721,-0.00338,0.013951,47.45985,1,IDLE
1759486024.25052,-4.963928,7.991097,-2.709638,-0.007182,0.007254,0.007641,47.47900,1,IDLE
1759486024.27136,-4.972757,8.05185,-2.640655,-0.006021,-0.010239,0.003423,47.49984,1,IDLE
1759486024.29134,-4.951359,8.114099,-2.628235,-0.010082,-0.012563,0.00333,47.51982,1,IDLE
1759486024.31137,-4.886266,8.10946,-2.660108,-0.017874,0.007112,0.004675,47.53985,1,IDLE
1759486024.33136,-4.865317,8.098088,-2.687342,-0.017715,0.01357,0.008566,47.55984,1,IDLE
1759486024.35053,-4.875792,8.063522,-2.677466,-0.006077,-0.010336,0.005916,47.57901,1,IDLE
1759486024.37137,-4.915146,8.069806,-2.664746,0.007641,-0.038474,0.003541,47.59985,1,IDLE
1759486024.39134,-4.988918,8.070704,-2.651279,0.006393,-0.035512,0.001077,47.61982,1,IDLE
1759486024.41137,-4.998644,8.10961,-2.65906,-0.011176,0.000006,-0.006122,47.63985,1,IDLE
1759486024.43135,-4.927267,8.149563,-2.698714,-0.018789,0.036248,-0.006197,47.65983,1,IDLE
1759486024.45055,-4.827459,8.162432,-2.700809,-0.009474,0.043098,0.003316,47.67903,1,IDLE
1759486024.47138,-4.78556,8.137443,-2.63033,0.004951,0.017838,0.003847,47.69986,1,IDLE
1759486024.49134,-4.812944,8.107216,-2.553566,0.007742,-0.020519,0.005548,47.71982,1,IDLE
1759486024.51135,-4.844667,8.102427,-2.610578,0.005459,-0.031492,0.00661,47.73983,1,IDLE
1759486024.53134,-4.928763,8.100183,-2.669834,0.000875,-0.021653,0.005884,47.75982,1,IDLE
1759486024.55057,-4.974104,8.10138,-2.726248,0.001312,-0.004877,0.004188,47.77905,1,IDLE
1759486024.57134,-4.986972,8.070704,-2.718017,0.002178,0.004496,0.00029,47.79982,1,IDLE
1759486024.59134,-4.991462,8.061277,-2.67163,0.003545,0.004422,-0.001784,47.81982,1,IDLE
1759486024.61134,-4.944026,8.072799,-2.670283,0.000305,0.00306,-0.003132,47.83982,1,IDLE
1759486024.63141,-4.900931,8.069507,-2.67582,-0.001504,0.009163,-0.000734,47.85989,1,IDLE
1759486024.65058,-4.917241,8.086416,-2.660706,-0.008695,0.01157,0.003214,47.87906,1,IDLE
1759486024.67137,-4.92592,8.048707,-2.64679,-0.009538,0.015919,0.003667,47.89985,1,IDLE
1759486024.69133,-4.909311,8.086117,-2.656367,-0.008995,0.011319,-0.001279,47.91981,1,IDLE
1759486024.71136,-4.892401,8.127267,-2.66759,-0.006062,0.009526,-0.002558,47.93984,1,IDLE
1759486024.73136,-4.861127,8.127267,-2.667889,-0.004983,0.011876,0.001135,47.95984,1,IDLE
1759486024.75060,-4.871452,8.10946,-2.676568,-0.001458,-0.000495,0.005066,47.97908,1,IDLE
1759486024.77136,-4.893898,8.087912,-2.664298,0.001023,-0.008791,0.002268,47.99984,1,IDLE
1759486024.79133,-4.920384,8.069956,-2.670882,-0.002763,-0.002866,0.003854,48.01981,1,IDLE
1759486024.81136,-4.92607,8.075642,-2.713229,-0.007444,0.015185,0.003327,48.03984,1,IDLE
1759486024.83136,-4.931158,8.100632,-2.693926,-0.004921,0.02006,0.001493,48.05984,1,IDLE
1759486024.85060,-4.923825,8.084321,-2.67163,-0.002192,0.008854,-0.000647,48.07908,1,IDLE
1759486024.87136,-4.940585,8.054992,-2.677466,-0.001409,0.004704,-0.002227,48.09984,1,IDLE
1759486024.89133,-4.941932,8.063372,-2.691382,-0.004688,0.006895,-0.002074,48.11981,1,IDLE
1759486024.91135,-4.922778,8.093898,-2.687342,-0.008989,0.017262,-0.004642,48.13983,1,IDLE
1759486024.93134,-4.878784,8.1138,-2.697218,-0.01028,0.027003,-0.003334,48.15982,1,IDLE
1759486024.95062,-4.872799,8.122479,-2.684648,-0.008146,0.027947,-0.003542,48.17910,1,IDLE
1759486024.97134,-4.841225,8.136395,-2.660108,0.00009,0.010315,-0.007634,48.19982,1,IDLE
1759486024.99133,-4.847361,8.127866,-2.670133,0.004327,-0.001863,-0.00947,48.21981,1,IDLE
1759486025.01134,-4.830451,8.114698,-2.664746,0.006809,-0.014075,-0.003747,48.23982,1,IDLE
1759486025.03134,-4.845715,8.084172,-2.64275,0.006176,-0.0251,0.002157,48.25982,1,IDLE
1759486025.05063,-4.863372,8.082077,-2.634819,0.003861,-0.032688,0.004634,48.27911,1,IDLE
1759486025.07042,-4.878485,8.078186,-2.706795,0.007038,-0.026578,0.009024,48.29890,1,IDLE
1759486025.09136,-4.95899,8.069806,-2.677915,0.005603,-0.016116,0.001173,48.31984,1,IDLE
1759486025.11137,-4.957344,8.092851,-2.67971,0.002893,-0.013457,-0.003043,48.33985,1,IDLE
1759486025.13135,-4.978593,8.083423,-2.671181,-0.000026,-0.016728,-0.007081,48.35983,1,IDLE
1759486025.15070,-4.977096,8.057386,-2.697667,-0.000694,-0.013442,-0.00246,48.37918,1,IDLE
1759486025.17141,-4.970662,8.050503,-2.700061,0.000566,-0.006593,0.002255,48.39989,1,IDLE
1759486025.19133,-4.972009,8.033744,-2.717419,-0.002127,0.005594,-0.000841,48.41981,1,IDLE
1759486025.21135,-4.978593,8.017433,-2.695422,-0.003878,0.014266,-0.002729,48.43983,1,IDLE
1759486025.23136,-4.944475,8.055291,-2.643797,-0.005642,0.010003,-0.005335,48.45984,1,IDLE
1759486025.25067,-4.959439,8.072201,-2.650681,-0.003386,-0.002928,-0.005089,48.47915,1,IDLE
1759486025.27135,-4.949264,8.09734,-2.689736,-0.00428,0.006834,-0.002127,48.49983,1,IDLE
1759486025.29133,-4.930409,8.077139,-2.705747,-0.006331,0.019158,0.000333,48.51981,1,IDLE
1759486025.31140,-4.925621,8.056189,-2.69198,-0.003073,0.02364,-0.003157,48.53988,1,IDLE
1759486025.33136,-4.892401,8.079982,-2.649483,-0.002566,0.012676,-0.006689,48.55984,1,IDLE
1759486025.35069,-4.867412,8.110059,-2.627936,-0.002518,-0.001108,-0.006858,48.57917,1,IDLE
1759486025.37139,-4.863372,8.115147,-2.665195,-0.002904,-0.013661,-0.004378,48.59987,1,IDLE
1759486025.39133,-4.903924,8.087763,-2.731934,0.000583,-0.007824,-0.000189,48.61981,1,IDLE
1759486025.41143,-4.954651,8.057985,-2.740613,-0.00073,0.002022,-0.001302,48.63991,1,IDLE
1759486025.43070,-4.981885,8.034791,-2.721459,-0.002226,0.00747,-0.002791,48.65918,1,IDLE
1759486025.45070,-5.003133,8.038682,-2.69198,-0.000121,0.006792,-0.00747,48.67918,1,IDLE
1759486025.47125,-5.007922,8.045864,-2.690933,-0.004635,0.016495,-0.008941,48.69973,1,IDLE
1759486025.49133,-4.977545,8.056937,-2.674174,-0.010062,0.030562,-0.009154,48.71981,1,IDLE
1759486025.51134,-4.931307,8.081777,-2.644096,-0.011078,0.028908,-0.009872,48.73982,1,IDLE
1759486025.53136,-4.882226,8.104522,-2.655768,-0.002413,0.014958,-0.006582,48.75984,1,IDLE
1759486025.55072,-4.841225,8.097639,-2.662352,0.004829,-0.005538,0.000309,48.77920,1,IDLE
1759486025.57135,-4.840028,8.089409,-2.665046,0.008447,-0.009287,0.007318,48.79983,1,IDLE
1759486025.59133,-4.887015,8.074445,-2.655469,0.003914,-0.010542,0.0117,48.81981,1,IDLE
1759486025.61049,-4.948516,8.069058,-2.681356,-0.000782,-0.013163,0.010567,48.83897,1,IDLE
1759486025.63136,-4.991761,8.054094,-2.709488,0.001868,-0.013145,0.001256,48.85984,1,IDLE
1759486025.65075,-5.004031,8.032397,-2.739715,0.003789,-0.011011,-0.007765,48.87923,1,IDLE
1759486025.67136,-4.992958,8.023119,-2.735375,-0.000861,-0.003234,-0.010788,48.89984,1,IDLE
1759486025.69133,-4.967071,8.030901,-2.721309,-0.007401,0.003189,-0.009474,48.91981,1,IDLE
1759486025.71135,-4.929063,8.044368,-2.750339,-0.009467,0.016531,-0.004074,48.93983,1,IDLE
1759486025.73136,-4.938191,8.054094,-2.722058,-0.006815,0.01946,0.000206,48.95984,1,IDLE
1759486025.75076,-4.968268,8.074595,-2.690484,-0.001354,0.012655,-0.00787,48.97924,1,IDLE
1759486025.77136,-4.987571,8.082226,-2.664746,-0.000236,0.004781,-0.009902,48.99984,1,IDLE
1759486025.79085,-4.99191,8.059781,-2.659509,0.000933,0.004873,-0.006858,49.01933,1,IDLE
1759486025.81135,-4.965275,8.032696,-2.704251,-0.001963,0.009157,-0.005717,49.03983,1,IDLE
1759486025.83122,-4.956746,8.025364,-2.684349,-0.00574,0.008796,-0.004288,49.05970,1,IDLE
1759486025.85077,-4.921431,8.028207,-2.668188,-0.006782,0.007781,-0.003066,49.07925,1,IDLE
1759486025.87135,-4.928763,8.065766,-2.680159,-0.004429,0.001348,0.001187,49.09983,1,IDLE
1759486025.89133,-4.935796,8.069956,-2.696919,-0.004497,-0.004017,0.002996,49.11981,1,IDLE
1759486025.91135,-4.944625,8.066514,-2.710087,-0.001328,-0.003213,0.008036,49.13983,1,IDLE
1759486025.93124,-4.942979,8.059481,-2.719065,-0.002753,-0.001551,0.005831,49.15972,1,IDLE
1759486025.95079,-4.938191,8.0517,-2.703802,-0.003561,0.005125,0.006927,49.17927,1,IDLE
1759486025.97135,-4.932205,8.06427,-2.68794,-0.006632,0.004298,0.006722,49.19983,1,IDLE
1759486025.99133,-4.928015,8.055142,-2.690185,-0.004282,0.000298,0.010173,49.21981,1,IDLE
1759486026.01107,-4.928913,8.05185,-2.675071,-0.003665,-0.008122,0.011267,49.23955,1,IDLE
1759486026.03126,-4.939238,8.056489,-2.697218,-0.003451,-0.013242,0.014758,49.25974,1,IDLE
1759486026.05080,-4.959738,8.040328,-2.704251,-0.003328,-0.013666,0.017552,49.27928,1,IDLE
1759486026.07136,-4.985925,8.04766,-2.710386,-0.002243,-0.011722,0.014015,49.29984,1,IDLE
1759486026.09132,-4.971111,8.053346,-2.704101,-0.003404,-0.007991,0.00932,49.31980,1,IDLE
1759486026.11109,-4.941632,8.058584,-2.708141,-0.003885,-0.001107,0.009805,49.33957,1,IDLE
1759486026.13111,-4.919935,8.065467,-2.685247,-0.007449,0.000504,0.01623,49.35959,1,IDLE
1759486026.15083,-4.910508,8.071452,-2.685845,-0.004494,-0.005842,0.020286,49.37931,1,IDLE
1759486026.17135,-4.939986,8.05589,-2.688539,-0.002623,-0.017661,0.020426,49.39983,1,IDLE
1759486026.19133,-4.951957,8.032098,-2.704999,-0.000617,-0.015652,0.024009,49.41981,1,IDLE
1759486026.21112,-4.97575,8.030003,-2.699911,-0.004983,-0.011206,0.022662,49.43960,1,IDLE
1759486026.23128,-4.96333,8.063671,-2.698265,-0.010006,-0.001637,0.021792,49.45976,1,IDLE
1759486026.25084,-4.967819,8.071303,-2.707692,-0.009813,0.007789,0.017778,49.47932,1,IDLE
1759486026.27135,-4.95061,8.071752,-2.695123,-0.007502,0.00317,0.013049,49.49983,1,IDLE
1759486026.29133,-4.918289,8.06397,-2.680309,-0.003543,-0.010142,0.011775,49.51981,1,IDLE
1759486026.31135,-4.915895,8.060529,-2.667141,-0.003196,-0.017529,0.014818,49.53983,1,IDLE
1759486026.33133,-4.891055,8.078934,-2.6839,-0.006297,-0.021793,0.018213,49.55981,1,IDLE
1759486026.35085,-4.899285,8.106617,-2.706495,-0.007678,-0.007873,0.024123,49.57933,1,IDLE
1759486026.37135,-4.931307,8.118738,-2.707244,-0.008824,0.014809,0.027587,49.59983,1,IDLE
1759486026.39132,-4.944775,8.096741,-2.632425,-0.008015,0.01226,0.022544,49.61980,1,IDLE
1759486026.41114,-4.90961,8.073098,-2.642002,-0.007743,-0.006902,0.020067,49.63962,1,IDLE
1759486026.43135,-4.881328,8.054693,-2.633023,-0.005386,-0.021796,0.020337,49.65983,1,IDLE
1759486026.45087,-4.895394,8.06023,-2.677615,-0.007075,-0.025792,0.019194,49.67935,1,IDLE
1759486026.47135,-4.920533,8.102876,-2.731335,-0.007298,-0.012857,0.021971,49.69983,1,IDLE
1759486026.49132,-4.951059,8.118439,-2.739266,-0.00667,0.00221,0.023287,49.71980,1,IDLE
1759486026.51135,-4.957943,8.090606,-2.685097,-0.003787,0.00475,0.017593,49.73983,1,IDLE
1759486026.53136,-4.951808,8.067412,-2.682254,-0.002658,-0.003558,0.009845,49.75984,1,IDLE
1759486026.55089,-4.931008,8.057686,-2.705598,-0.001825,-0.004394,0.009313,49.77937,1,IDLE
1759486026.57135,-4.922778,8.06816,-2.673126,-0.004009,-0.002199,0.006583,49.79983,1,IDLE
1759486026.59132,-4.887613,8.079682,-2.656067,-0.010092,0.002364,0.003141,49.81980,1,IDLE
1759486026.61097,-4.840178,8.10138,-2.665195,-0.012274,0.000472,0.004098,49.83945,1,IDLE
1759486026.63086,-4.799477,8.120085,-2.666841,-0.007086,-0.01155,0.004368,49.85934,1,IDLE
1759486026.65090,-4.811298,8.129661,-2.677316,0.003252,-0.028573,0.00677,49.87938,1,IDLE
1759486026.67135,-4.881328,8.127716,-2.644695,0.007994,-0.035906,0.006118,49.89983,1,IDLE
1759486026.69107,-4.921132,8.116194,-2.67163,0.00652,-0.031774,-0.003071,49.91955,1,IDLE
1759486026.71088,-4.911106,8.112453,-2.698864,0.00428,-0.030329,-0.010399,49.93936,1,IDLE
1759486026.73134,-4.918887,8.080431,-2.693178,0.005875,-0.032005,-0.015724,49.95982,1,IDLE
1759486026.75094,-4.92996,8.051251,-2.704251,0.00746,-0.034743,-0.009505,49.97942,1,IDLE
1759486026.77083,-4.977246,8.062773,-2.717569,0.009608,-0.024288,-0.003884,49.99931,1,IDLE
1759486026.79132,-5.030367,8.072649,-2.697816,0.005189,0.000257,0.000267,50.01980,1,IDLE
1759486026.81135,-5.034258,8.045266,-2.63871,-0.004753,0.020339,0.005724,50.03983,1,IDLE
1759486026.83135,-4.991611,8.06412,-2.612673,-0.012402,0.038781,0.00746,50.05983,1,IDLE
1759486026.85093,-4.925022,8.052149,-2.58065,-0.017768,0.036206,0.003984,50.07941,1,IDLE
1759486026.87135,-4.887015,8.081628,-2.58903,-0.010861,0.02133,0.002631,50.09983,1,IDLE
1759486026.89132,-4.887463,8.094347,-2.575114,-0.00892,-0.000942,0.000701,50.11980,1,IDLE
1759486026.91135,-4.895095,8.113351,-2.637512,-0.007955,-0.009267,0.00263,50.13983,1,IDLE
1759486026.93135,-4.902128,8.094197,-2.676269,-0.006038,-0.005781,0.011013,50.15983,1,IDLE
1759486026.95094,-4.891354,8.087464,-2.716371,-0.000586,-0.006073,0.013357,50.17942,1,IDLE
1759486026.97134,-4.916792,8.073847,-2.748544,-0.002941,-0.003819,0.006319,50.19982,1,IDLE
1759486026.99133,-4.890606,8.103624,-2.746299,-0.00477,0.008615,-0.000227,50.21981,1,IDLE
1759486027.01134,-4.860379,8.112752,-2.720561,-0.007119,0.01125,-0.004357,50.23982,1,IDLE
1759486027.03134,-4.852448,8.132355,-2.706196,-0.002575,0.007638,-0.003777,50.25982,1,IDLE
1759486027.05097,-4.876839,8.134899,-2.679411,-0.000981,0.003972,-0.003004,50.27945,1,IDLE
1759486027.07137,-4.848109,8.150611,-2.656666,-0.002193,0.00317,-0.002629,50.29985,1,IDLE
1759486027.09132,-4.836736,8.14687,-2.658611,0.001333,0.00332,-0.003642,50.31980,1,IDLE
1759486027.11134,-4.805312,8.1138,-2.631677,0.005342,-0.01264,-0.00101,50.33982,1,IDLE
1759486027.13055,-4.824316,8.103475,-2.622848,0.007632,-0.033179,-0.000392,50.35903,1,IDLE
1759486027.15099,-4.897339,8.104373,-2.649483,0.010779,-0.03728,0.00288,50.37947,1,IDLE
1759486027.17136,-4.974403,8.089259,-2.672228,0.012602,-0.039124,0.00102,50.39984,1,IDLE
1759486027.19132,-5.027524,8.066514,-2.675969,0.015281,-0.028884,0.001864,50.41980,1,IDLE
1759486027.21128,-5.0374,8.028057,-2.666841,0.010504,-0.016297,-0.001239,50.43976,1,IDLE
1759486027.23135,-4.990863,8.013992,-2.69647,0.007536,-0.00643,-0.007203,50.45983,1,IDLE
1759486027.25100,-4.944176,8.034342,-2.672977,0.002663,-0.006981,-0.012733,50.47948,1,IDLE
1759486027.27135,-4.947618,8.045415,-2.661604,0.000405,-0.006527,-0.01546,50.49983,1,IDLE
1759486027.29133,-4.955698,8.05993,-2.677915,-0.003718,-0.002145,-0.012451,50.51981,1,IDLE
1759486027.31136,-4.976049,8.085369,-2.697667,-0.001289,0.009179,-0.010048,50.53984,1,IDLE
1759486027.33135,-4.98368,8.070704,-2.697816,-0.00342,0.02125,-0.006453,50.55983,1,IDLE
1759486027.35102,-4.970662,8.066514,-2.683601,-0.005459,0.031856,-0.004046,50.57950,1,IDLE
1759486027.37135,-4.976797,8.046463,-2.658013,-0.006278,0.026314,-0.0034,50.59983,1,IDLE
1759486027.39132,-4.994005,8.016535,-2.662652,-0.003804,0.012102,0.001188,50.61980,1,IDLE
1759486027.41135,-4.989067,7.994688,-2.658761,-0.009796,0.014212,0.003924,50.63983,1,IDLE
1759486027.43135,-5.022137,8.008156,-2.661903,-0.016059,0.025493,0.007823,50.65983,1,IDLE
1759486027.45103,-5.017648,8.041525,-2.659509,-0.024362,0.032871,0.007598,50.67951,1,IDLE
1759486027.47135,-4.974852,8.061277,-2.675221,-0.024528,0.040844,0.006797,50.69983,1,IDLE
1759486027.49132,-4.923526,8.098836,-2.690484,-0.016902,0.040514,0.008704,50.71980,1,IDLE
1759486027.51135,-4.911256,8.112154,-2.673725,-0.01127,0.035104,0.00969,50.73983,1,IDLE
1759486027.53135,-4.904522,8.106916,-2.605939,-0.016399,0.027615,0.004288,50.75983,1,IDLE
1759486027.55105,-4.904223,8.089558,-2.635268,-0.01859,0.026856,-0.001016,50.77953,1,IDLE
1759486027.57135,-4.854693,8.098836,-2.675071,-0.015723,0.011456,-0.003557,50.79983,1,IDLE
1759486027.59132,-4.81459,8.129661,-2.729839,0.004233,0.00366,0.009094,50.81980,1,IDLE
1759486027.61135,-4.850054,8.166472,-2.677017,0.01031,-0.007727,0.012191,50.83983,1,IDLE
1759486027.63135,-4.882675,8.147768,-2.644246,0.012707,-0.016687,0.012019,50.85983,1,IDLE
1759486027.65107,-4.925022,8.096741,-2.654721,0.010142,-0.025758,0.008307,50.87955,1,IDLE
1759486027.67136,-4.952256,8.041674,-2.737321,0.008784,-0.014634,0.000872,50.89984,1,IDLE
1759486027.69132,-4.986374,8.03105,-2.754828,0.003812,0.002581,-0.008965,50.91980,1,IDLE
1759486027.71135,-4.958092,8.060978,-2.72535,0.0002,0.005516,-0.015293,50.93983,1,IDLE
1759486027.73135,-4.912902,8.063372,-2.688988,-0.002006,0.0025,-0.014823,50.95983,1,IDLE
1759486027.75109,-4.89719,8.057686,-2.708441,-0.005841,0.00203,-0.006841,50.97957,1,IDLE
1759486027.77134,-4.90138,8.075642,-2.685097,-0.003851,0.00306,-0.001041,50.99982,1,IDLE
1759486027.79132,-4.943578,8.067861,-2.689287,-0.001312,0.002329,0.001868,51.01980,1,IDLE
1759486027.81128,-4.958392,8.038382,-2.688539,0.00072,0.003536,0.006522,51.03976,1,IDLE
1759486027.83104,-4.985476,8.040328,-2.658611,-0.000333,0.006882,0.003891,51.05952,1,IDLE
1759486027.85109,-4.989516,8.036437,-2.61806,-0.002384,0.003887,-0.001246,51.07957,1,IDLE
1759486027.87134,-4.954052,8.057686,-2.614767,-0.008831,-0.002636,-0.008406,51.09982,1,IDLE
1759486027.89131,-4.899734,8.100781,-2.652626,-0.003172,-0.009601,-0.005123,51.11979,1,IDLE
1759486027.91136,-4.877288,8.128464,-2.677615,-0.003053,-0.018043,0.004677,51.13984,1,IDLE
1759486027.93132,-4.898686,8.101679,-2.777424,0.006364,-0.023145,0.005516,51.15980,1,IDLE
1759486027.95112,-4.957344,8.045266,-2.789993,0.013355,-0.024622,0.006129,51.17960,1,IDLE
1759486027.97134,-5.016301,7.991396,-2.755128,0.004132,-0.00353,0.004719,51.19982,1,IDLE
1759486027.99132,-5.072864,7.988852,-2.738518,-0.010286,0.030208,-0.006137,51.21980,1,IDLE
1759486028.01135,-5.036951,8.021473,-2.742259,-0.018336,0.045663,-0.01856,51.23983,1,IDLE
1759486028.03134,-4.953753,8.058434,-2.686444,-0.023442,0.037813,-0.029239,51.25982,1,IDLE
1759486028.05113,-4.850952,8.110657,-2.68809,-0.020061,0.032353,-0.021752,51.27961,1,IDLE
1759486028.07097,-4.776133,8.121731,-2.68375,-0.006592,0.024431,0.006428,51.29945,1,IDLE
1759486028.09132,-4.81848,8.131756,-2.617461,0.007141,0.004951,0.020441,51.31980,1,IDLE
1759486028.11134,-4.889109,8.10946,-2.568679,0.010932,-0.02474,0.016565,51.33982,1,IDLE
1759486028.13135,-4.942979,8.060678,-2.589778,0.007312,-0.049847,0.009061,51.35983,1,IDLE
1759486028.15117,-5.023634,8.0104,-2.662502,0.008151,-0.047446,0.006199,51.37965,1,IDLE
1759486028.17134,-5.069123,8.024765,-2.71682,0.00445,-0.034153,0.005393,51.39982,1,IDLE
1759486028.19132,-5.050269,8.069956,-2.758719,0.008606,-0.011343,0.012156,51.41980,1,IDLE
1759486028.21135,-5.046379,8.030901,-2.745401,0.00086,0.014507,0.005595,51.43983,1,IDLE
1759486028.23135,-5.041441,8.023269,-2.739416,-0.004319,0.028653,-0.00939,51.45983,1,IDLE
1759486028.25119,-4.971709,8.035689,-2.714725,-0.001548,0.008868,-0.017016,51.47967,1,IDLE
1759486028.27134,-4.955549,8.040477,-2.759617,-0.000069,0.015934,-0.012986,51.49982,1,IDLE
1759486028.29132,-4.974253,8.03958,-2.768296,-0.000217,0.025636,-0.002433,51.51980,1,IDLE
1759486028.31135,-4.986972,8.057985,-2.710984,0.000517,0.028534,0.000647,51.53983,1,IDLE
1759486028.33111,-4.958092,8.049306,-2.648735,-0.010038,0.03289,0.00245,51.55959,1,IDLE
1759486028.35118,-4.910957,8.040926,-2.65487,-0.0171,0.032782,0.004417,51.57966,1,IDLE
1759486028.37134,-4.898237,8.056489,-2.653673,-0.010307,0.013308,-0.00313,51.59982,1,IDLE
1759486028.39118,-4.876989,8.06008,-2.652327,-0.002708,-0.004892,-0.009684,51.61966,1,IDLE
1759486028.41134,-4.856189,8.075642,-2.628534,-0.001613,-0.030781,-0.005697,51.63982,1,IDLE
1759486028.43134,-4.861875,8.106916,-2.662053,-0.001594,-0.040424,0.000424,51.65982,1,IDLE
1759486028.45120,-4.901529,8.098537,-2.738967,0.003346,-0.038329,0.00889,51.67968,1,IDLE
1759486028.47135,-4.95076,8.091953,-2.77458,0.004536,-0.027592,0.00989,51.69983,1,IDLE
1759486028.49132,-4.98383,8.066814,-2.785055,0.010207,-0.013302,0.003885,51.71980,1,IDLE
1759486028.51134,-5.011962,8.041226,-2.756474,0.010609,-0.004319,0.001947,51.73982,1,IDLE
1759486028.53134,-5.045032,8.000374,-2.714127,0.007691,0.011484,-0.000305,51.75982,1,IDLE
1759486028.55122,-5.049521,7.989601,-2.674922,0.000499,0.015719,-0.0034,51.77970,1,IDLE
1759486028.57047,-5.000141,8.014889,-2.618508,-0.003901,0.003731,-0.001181,51.79895,1,IDLE
1759486028.59132,-4.969315,8.010849,-2.637213,-0.001752,-0.006602,0.008529,51.81980,1,IDLE
1759486028.61134,-4.96333,7.997382,-2.666841,-0.003597,-0.01477,0.013502,51.83982,1,IDLE
1759486028.63134,-4.998794,8.003367,-2.694973,-0.008215,-0.006401,0.01536,51.85982,1,IDLE
1759486028.65124,-5.009867,8.020725,-2.693776,-0.012921,-0.001273,0.01384,51.87972,1,IDLE
1759486028.67138,-4.993407,8.054244,-2.724003,-0.011101,0.008277,0.015266,51.89986,1,IDLE
1759486028.69132,-4.973505,8.087912,-2.715025,-0.007846,0.001896,0.012298,51.91980,1,IDLE
1759486028.71140,-4.935048,8.09719,-2.730288,-0.001803,-0.004217,0.004515,51.93988,1,IDLE
1759486028.73134,-4.899135,8.093449,-2.732682,-0.001472,-0.00612,0.000851,51.95982,1,IDLE
1759486028.75125,-4.864868,8.109161,-2.736273,-0.002841,-0.006726,0.004233,51.97973,1,IDLE
1759486028.77135,-4.863821,8.099584,-2.755277,-0.003164,-0.014072,0.014665,51.99983,1,IDLE
1759486028.79134,-4.906467,8.069657,-2.779518,0.006306,-0.012161,0.026154,52.01982,1,IDLE
1759486028.81133,-5.008221,8.008754,-2.738219,0.005937,0.008811,0.022554,52.03981,1,IDLE
1759486028.83134,-5.035754,8.027908,-2.650381,-0.000754,0.009834,0.001428,52.05982,1,IDLE
1759486028.85127,-4.972009,8.088511,-2.632425,-0.006568,0.001115,-0.005392,52.07975,1,IDLE
1759486028.87133,-4.916044,8.085668,-2.63422,-0.006405,-0.005122,0.006767,52.09981,1,IDLE
1759486028.89132,-4.930409,8.027309,-2.685696,-0.00607,-0.004576,0.025797,52.11980,1,IDLE
1759486028.91138,-4.992958,7.988852,-2.697068,-0.00372,0.0017,0.040736,52.13986,1,IDLE
1759486028.93133,-5.051616,7.975684,-2.63452,-0.005519,0.001463,0.042721,52.15981,1,IDLE
1759486028.95128,-5.075708,7.991995,-2.599953,-0.016004,-0.001863,0.030067,52.17976,1,IDLE
1759486028.97133,-5.019743,8.037634,-2.644246,-0.023586,-0.004389,0.016701,52.19981,1,IDLE
1759486028.99132,-4.957344,8.056339,-2.727894,-0.023431,-0.004709,0.014199,52.21980,1,IDLE
1759486029.01132,-4.927866,8.08462,-2.746,-0.022664,0.005727,0.018675,52.23980,1,IDLE
1759486029.03132,-4.895095,8.090606,-2.749741,-0.021313,0.019998,0.017773,52.25980,1,IDLE
1759486029.05128,-4.846762,8.089858,-2.746598,-0.020125,0.024358,0.015293,52.27976,1,IDLE
1759486029.07132,-4.826561,8.106168,-2.712032,-0.011889,0.012384,0.006526,52.29980,1,IDLE
1759486029.09134,-4.868908,8.131756,-2.738368,-0.000176,-0.009452,0.004024,52.31982,1,IDLE
1759486029.11134,-4.889259,8.133552,-2.750339,0.008763,-0.014825,0.008622,52.33982,1,IDLE
1759486029.13134,-4.943877,8.134599,-2.71697,0.010505,-0.003781,0.007113,52.35982,1,IDLE
1759486029.15131,-4.947019,8.119636,-2.653673,-0.000377,0.013703,0.001785,52.37979,1,IDLE
1759486029.17134,-4.854992,8.110657,-2.612523,-0.008,0.023102,0.003289,52.39982,1,IDLE
1759486029.19131,-4.787655,8.084321,-2.607136,-0.002089,0.003135,0.012637,52.41979,1,IDLE
1759486029.21134,-4.801272,8.076839,-2.622399,0.012508,-0.03438,0.020671,52.43982,1,IDLE
1759486029.23134,-4.890905,8.051251,-2.620903,0.017527,-0.061296,0.019091,52.45982,1,IDLE
1759486029.25137,-4.987122,8.052598,-2.666093,0.011851,-0.059723,0.0211,52.47985,1,IDLE
1759486029.27136,-5.034408,8.043171,-2.705448,0.002624,-0.037191,0.017555,52.49984,1,IDLE
1759486029.29131,-5.064036,8.023718,-2.753631,-0.006397,-0.007924,0.009183,52.51979,1,IDLE
1759486029.31134,-5.00463,8.029105,-2.767697,-0.009909,0.007738,0.002919,52.53982,1,IDLE
1759486029.33134,-4.913201,8.038532,-2.752584,-0.004923,0.005737,0.003646,52.55982,1,IDLE
1759486029.35092,-4.895245,8.056937,-2.677316,-0.003998,-0.006584,0.00882,52.57940,1,IDLE
1759486029.37132,-4.897339,8.08911,-2.664148,-0.006661,-0.00901,0.012206,52.59980,1,IDLE
1759486029.39132,-4.923676,8.091055,-2.666841,-0.010876,-0.006825,0.011806,52.61980,1,IDLE
1759486029.41134,-4.943428,8.081029,-2.708141,-0.004978,0.009766,0.012109,52.63982,1,IDLE
1759486029.43134,-4.952556,8.082825,-2.622549,-0.00504,0.003123,0.007361,52.65982,1,IDLE
1759486029.45135,-4.904821,8.096741,-2.599504,-0.006947,-0.005161,0.008947,52.67983,1,IDLE
1759486029.47134,-4.876839,8.099285,-2.615965,-0.00842,-0.010779,0.014147,52.69982,1,IDLE
1759486029.49131,-4.908413,8.103774,-2.667739,-0.006143,-0.01469,0.019743,52.71979,1,IDLE
1759486029.51134,-4.94238,8.106617,-2.696919,-0.003176,-0.009421,0.021611,52.73982,1,IDLE
1759486029.53139,-4.966173,8.09315,-2.701258,-0.002836,0.00316,0.013251,52.75987,1,IDLE
1759486029.55133,-4.973655,8.085967,-2.702156,-0.002536,0.015324,0.001947,52.77981,1,IDLE
1759486029.57134,-4.932953,8.086566,-2.683002,-0.005147,0.017476,-0.006922,52.79982,1,IDLE
1759486029.59037,-4.891953,8.121731,-2.689287,-0.006004,0.016691,-0.011625,52.81885,1,IDLE
1759486029.61134,-4.868759,8.118588,-2.682703,-0.000148,0.006327,-0.012146,52.83982,1,IDLE
1759486029.63134,-4.879233,8.092102,-2.697816,0.00367,0.001655,-0.009719,52.85982,1,IDLE
1759486029.65133,-4.842572,8.074295,-2.703503,0.002672,0.006079,-0.011634,52.87981,1,IDLE
1759486029.67132,-4.830152,8.112004,-2.68794,0.001832,0.005413,-0.006998,52.89980,1,IDLE
1759486029.69131,-4.825962,8.139687,-2.639607,0.001282,-0.006477,-0.005037,52.91979,1,IDLE
1759486029.71134,-4.876839,8.120234,-2.654122,0.005447,-0.019358,-0.00184,52.93982,1,IDLE
1759486029.73134,-4.955399,8.081328,-2.699013,0.006883,-0.02397,-0.002095,52.95982,1,IDLE
1759486029.75133,-5.021239,8.022222,-2.738817,0.008572,-0.010402,-0.00918,52.97981,1,IDLE
1759486029.77134,-5.030068,8.015189,-2.708141,0.000727,0.005183,-0.01326,52.99982,1,IDLE
1759486029.79131,-4.986972,8.031948,-2.65487,-0.005836,0.014385,-0.012194,53.01979,1,IDLE
1759486029.81134,-4.920833,8.091055,-2.652925,-0.0076,0.007986,-0.008896,53.03982,1,IDLE
1759486029.83111,-4.889858,8.094048,-2.65906,0.001064,-0.001758,-0.004049,53.05959,1,IDLE
1759486029.85081,-4.894347,8.096442,-2.64275,0.009358,-0.00799,0.000958,53.07929,1,IDLE
1759486029.87132,-4.942979,8.079982,-2.636315,0.010984,-0.010095,0.001088,53.09980,1,IDLE
1759486029.89132,-4.976647,8.059182,-2.618508,0.004814,-0.008586,0.005426,53.11980,1,IDLE
1759486029.91134,-4.990414,8.032995,-2.664298,-0.000045,-0.006435,0.001214,53.13982,1,IDLE
1759486029.93133,-4.979341,8.050503,-2.67552,-0.00692,-0.005076,0.000243,53.15981,1,IDLE
1759486029.95133,-4.971709,8.043171,-2.725948,-0.008855,0.000067,0.000307,53.17981,1,IDLE
1759486029.97133,-4.964976,8.04362,-2.743905,-0.009812,0.007251,0.002235,53.19981,1,IDLE
1759486029.99054,-4.96318,8.037185,-2.760365,-0.004715,0.023188,-0.000211,53.21902,1,IDLE
1759486030.01056,-4.987421,8.059481,-2.688838,-0.007166,0.02206,-0.008865,53.23904,1,IDLE
1759486030.03134,-4.938639,8.095544,-2.668936,-0.008808,0.017679,-0.012894,53.25982,1,IDLE
1759486030.05045,-4.917092,8.112603,-2.691681,-0.008695,0.015322,-0.007402,53.27893,1,IDLE
1759486030.07135,-4.89719,8.094197,-2.711882,-0.005201,0.016544,-0.004175,53.29983,1,IDLE
1759486030.09131,-4.892102,8.081777,-2.675969,0.000084,0.009639,-0.004754,53.31979,1,IDLE
1759486030.11133,-4.890456,8.075343,-2.65098,0.003526,0.004804,-0.004479,53.33981,1,IDLE
1759486030.13046,-4.891354,8.06846,-2.622698,0.005602,-0.006884,-0.00302,53.35894,1,IDLE
1759486030.15112,-4.933851,8.078635,-2.646191,0.005703,-0.018583,0.002187,53.37960,1,IDLE
1759486030.17135,-4.946121,8.100482,-2.677017,0.004734,-0.01292,0.004513,53.39983,1,IDLE
1759486030.19058,-4.958841,8.069208,-2.6839,-0.003769,-0.005281,0.001729,53.41906,1,IDLE
1759486030.21134,-4.985626,8.015338,-2.743456,-0.001713,0.003962,-0.000927,53.43982,1,IDLE
1759486030.23133,-4.995202,8.014141,-2.739116,0.001769,0.001199,-0.008466,53.45981,1,IDLE
1759486030.25112,-5.018995,8.042273,-2.731036,0.002109,0.004779,-0.01421,53.47960,1,IDLE
1759486030.27133,-4.98787,8.05589,-2.729988,0.001725,0.011482,-0.014839,53.49981,1,IDLE
1759486030.29132,-4.943578,8.08088,-2.703054,-0.000602,0.012658,-0.015206,53.51980,1,IDLE
1759486030.31133,-4.914548,8.069208,-2.696021,0.000033,0.011178,-0.014312,53.53981,1,IDLE
1759486030.33133,-4.885368,8.08073,-2.694075,0.004126,0.007943,-0.013518,53.55981,1,IDLE
1759486030.35055,-4.899734,8.081777,-2.669684,0.00271,-0.000665,-0.013261,53.57903,1,IDLE
1759486030.37132,-4.893449,8.065018,-2.669684,0.000918,-0.009734,-0.00636,53.59980,1,IDLE
1759486030.39132,-4.940585,8.053496,-2.683601,0.000053,-0.015663,-0.001457,53.61980,1,IDLE
1759486030.41134,-4.983082,8.017134,-2.731335,0.001288,-0.009674,-0.000104,53.63982,1,IDLE
1759486030.43131,-5.030966,7.996933,-2.698415,0.002058,-0.001295,-0.001171,53.65979,1,IDLE
1759486030.45133,-5.058649,8.003517,-2.682404,-0.000944,0.001644,-0.00728,53.67981,1,IDLE
1759486030.47133,-5.016601,8.017284,-2.678064,-0.003838,-0.000327,-0.010489,53.69981,1,IDLE
1759486030.49082,-4.965574,8.02267,-2.689586,-0.006471,-0.013516,-0.00814,53.71930,1,IDLE
1759486030.51133,-4.931008,8.032846,-2.694674,-0.001944,-0.016521,-0.003994,53.73981,1,IDLE
1759486030.53133,-4.936993,8.054843,-2.685696,-0.002407,-0.016817,0.003796,53.75981,1,IDLE
1759486030.55034,-4.954651,8.083274,-2.719813,0.000382,-0.012926,0.007014,53.77882,1,IDLE
1759486030.57134,-4.981885,8.055591,-2.725799,0.00139,-0.001565,0.004247,53.79982,1,IDLE
1759486030.59131,-5.044134,8.021024,-2.724153,0.004006,0.000303,-0.007225,53.81979,1,IDLE
1759486030.61134,-5.026626,8.02282,-2.711134,0.002906,-0.001609,-0.015544,53.83982,1,IDLE
1759486030.63134,-4.978144,8.042123,-2.736722,0.002002,0.003631,-0.013717,53.85982,1,IDLE
1759486030.65133,-4.983381,8.051551,-2.734478,-0.001396,0.009312,-0.002482,53.87981,1,IDLE
1759486030.67133,-4.990863,8.029554,-2.731485,-0.002735,0.014461,0.00315,53.89981,1,IDLE
1759486030.69132,-5.014206,7.991097,-2.70455,-0.003682,0.01573,0.008121,53.91980,1,IDLE
1759486030.71130,-5.051466,7.981819,-2.668338,0.000366,0.012623,0.004869,53.93978,1,IDLE
1759486030.73133,-5.062988,8.008156,-2.641403,-0.005583,0.000762,-0.002219,53.95981,1,IDLE
1759486030.75111,-5.015104,8.033594,-2.643348,-0.012338,0.003168,-0.006698,53.97959,1,IDLE
1759486030.77127,-4.963928,8.029255,-2.707393,-0.016447,0.013467,-0.006021,53.99975,1,IDLE
1759486030.79069,-4.94268,8.035839,-2.73747,-0.010052,0.013758,-0.001356,54.01917,1,IDLE
1759486030.81134,-4.973056,8.032995,-2.740762,-0.002607,0.010771,0.001099,54.03982,1,IDLE
1759486030.83133,-4.99206,8.046762,-2.695572,0.002674,-0.000375,0.003675,54.05981,1,IDLE
1759486030.85111,-4.988469,8.030452,-2.683601,0.001944,-0.007964,0.00458,54.07959,1,IDLE
1759486030.87079,-5.001487,8.0312,-2.717419,0.003999,-0.005681,0.003934,54.09927,1,IDLE
1759486030.89131,-5.005079,8.034193,-2.731934,-0.000633,0.002075,0.002006,54.11979,1,IDLE
1759486030.91133,-5.011064,8.012345,-2.707244,-0.010148,0.014308,-0.004243,54.13981,1,IDLE
1759486030.93134,-5.002235,7.977929,-2.71712,-0.011748,0.01969,-0.006738,54.15982,1,IDLE
1759486030.95041,-5.00882,7.982119,-2.712481,-0.011717,0.018667,-0.008869,54.17889,1,IDLE
1759486030.97134,-5.041441,8.016386,-2.717569,-0.006483,0.013901,-0.004265,54.19982,1,IDLE
1759486030.99052,-5.041889,8.03943,-2.732083,-0.003767,0.014226,-0.001817,54.21900,1,IDLE
1759486031.01132,-5.017648,8.037185,-2.708141,-0.007425,0.028137,0.006428,54.23980,1,IDLE
1759486031.03061,-5.006276,8.032547,-2.686743,-0.009685,0.034141,0.003807,54.25909,1,IDLE
1759486031.05131,-4.906767,8.02716,-2.651728,-0.018784,0.024504,-0.004245,54.27979,1,IDLE
1759486031.07132,-4.838981,8.069806,-2.677466,-0.010642,0.002854,0.001726,54.29980,1,IDLE
1759486031.09034,-4.856488,8.068909,-2.691681,-0.002578,-0.014522,0.004517,54.31882,1,IDLE
1759486031.11134,-4.959289,8.07669,-2.71682,0.009564,-0.030101,0.023446,54.33982,1,IDLE
1759486031.13116,-4.994903,8.056489,-2.703652,0.005325,-0.029205,0.025163,54.35964,1,IDLE
1759486031.15112,-5.017798,8.013842,-2.730138,-0.002414,-0.002192,0.021653,54.37960,1,IDLE
1759486031.17133,-5.010914,8.003667,-2.714875,-0.007701,0.009334,0.010016,54.39981,1,IDLE
1759486031.19132,-4.964976,8.048857,-2.692729,-0.006115,-0.007416,-0.000309,54.41980,1,IDLE
1759486031.21133,-4.907216,8.065168,-2.727594,0.002123,-0.026037,0.008806,54.43981,1,IDLE
1759486031.23110,-4.951359,8.050653,-2.725799,0.00673,-0.031239,0.01719,54.45958,1,IDLE
1759486031.25112,-4.988618,8.053496,-2.732532,0.00291,-0.02795,0.018485,54.47960,1,IDLE
1759486031.27133,-5.015104,8.044966,-2.743456,0.001964,-0.015548,0.015911,54.49981,1,IDLE
1759486031.29131,-5.004181,8.018181,-2.720262,0.000667,-0.008667,0.01526,54.51979,1,IDLE
1759486031.31124,-5.02094,8.025663,-2.730138,-0.00225,-0.012646,0.016446,54.53972,1,IDLE
1759486031.33134,-5.028721,8.020426,-2.705448,-0.002609,-0.016487,0.024226,54.55982,1,IDLE
1759486031.35112,-5.069722,7.977929,-2.700211,-0.011387,-0.00511,0.025501,54.57960,1,IDLE
1759486031.37133,-5.073014,7.980173,-2.706495,-0.013936,0.008932,0.022967,54.59981,1,IDLE
1759486031.39131,-5.039196,7.980024,-2.682703,-0.014296,0.013811,0.017154,54.61979,1,IDLE
1759486031.41133,-5.002235,8.014889,-2.67582,-0.015034,0.008679,0.014452,54.63981,1,IDLE
1759486031.43135,-4.947169,8.063671,-2.653823,-0.017895,0.006646,0.01999,54.65983,1,IDLE
1759486031.45112,-4.897339,8.114548,-2.664896,-0.02022,0.003422,0.028559,54.67960,1,IDLE
1759486031.47133,-4.857386,8.10946,-2.695273,-0.009545,0.001157,0.030797,54.69981,1,IDLE
1759486031.49131,-4.846762,8.075493,-2.701557,0.004163,-0.013,0.029881,54.71979,1,IDLE
1759486031.51106,-4.84347,8.062624,-2.643348,0.007973,-0.041489,0.020258,54.73954,1,IDLE
1759486031.53109,-4.84751,8.100482,-2.609381,0.002892,-0.060804,0.008389,54.75957,1,IDLE
1759486031.55132,-4.883872,8.12607,-2.72924,-0.005043,-0.064552,0.008229,54.77980,1,IDLE
1759486031.57101,-4.936844,8.135348,-2.821417,0.00717,-0.051188,0.019276,54.79949,1,IDLE
1759486031.59081,-5.022586,8.083124,-2.808997,0.019143,-0.038158,0.025881,54.81929,1,IDLE
1759486031.61133,-5.065532,8.007707,-2.730737,0.015674,-0.022204,0.022585,54.83981,1,IDLE
1759486031.63107,-5.098153,7.963713,-2.661305,0.000774,-0.006156,0.01528,54.85955,1,IDLE
1759486031.65112,-5.085584,7.947702,-2.633323,-0.01289,0.005659,0.006181,54.87960,1,IDLE
1759486031.67134,-5.040692,8.000225,-2.636016,-0.019512,0.011595,0.006143,54.89982,1,IDLE
1759486031.69131,-4.963928,8.073996,-2.653524,-0.016873,0.010791,0.010411,54.91979,1,IDLE
1759486031.71133,-4.857237,8.091953,-2.606388,-0.009461,-0.007828,0.017014,54.93981,1,IDLE
1759486031.73133,-4.817134,8.082675,-2.627487,0.001522,-0.019804,0.027662,54.95981,1,IDLE
1759486031.75112,-4.846313,8.067861,-2.591125,0.003845,-0.037444,0.034862,54.97960,1,IDLE
1759486031.77134,-4.920982,8.058883,-2.597709,-0.004958,-0.041187,0.037498,54.99982,1,IDLE
1759486031.79131,-5.016301,8.05574,-2.687192,-0.010159,-0.030062,0.028536,55.01979,1,IDLE
1759486031.81134,-5.066729,8.06831,-2.738817,-0.010129,-0.013739,0.017297,55.03982,1,IDLE
1759486031.83133,-5.026028,8.073098,-2.773084,-0.006629,0.005708,0.009739,55.05981,1,IDLE
1759486031.85112,-4.948516,8.081328,-2.685396,-0.010049,0.011258,0.009849,55.07960,1,IDLE
1759486031.87133,-4.871153,8.084172,-2.6426,-0.011648,0.004987,0.013471,55.09981,1,IDLE
1759486031.89131,-4.869208,8.097489,-2.646042,-0.010449,-0.005206,0.01816,55.11979,1,IDLE
1759486031.91133,-4.899135,8.115745,-2.680608,-0.006395,-0.010917,0.017622,55.13981,1,IDLE
1759486031.93133,-4.934001,8.13026,-2.691681,-0.005149,0.001532,0.019409,55.15981,1,IDLE
1759486031.95112,-4.910957,8.106916,-2.644994,-0.008383,0.01066,0.01799,55.17960,1,IDLE
1759486031.97133,-4.90108,8.106916,-2.612074,-0.008185,0.003924,0.013324,55.19981,1,IDLE
1759486031.99084,-4.886117,8.106019,-2.614618,-0.001659,-0.01121,0.010053,55.21932,1,IDLE
1759486032.01133,-4.881478,8.098537,-2.637512,0.00355,-0.023842,0.00544,55.23981,1,IDLE
1759486032.03131,-4.88492,8.100781,-2.646191,0.006305,-0.032249,0.005077,55.25979,1,IDLE
1759486032.05132,-4.921431,8.088361,-2.665046,0.002143,-0.028931,0.001219,55.27980,1,IDLE
1759486032.07133,-4.935946,8.102278,-2.685546,0.000252,-0.013314,0.004833,55.29981,1,IDLE
1759486032.09084,-4.939537,8.08896,-2.680608,-0.000903,-0.003785,0.006178,55.31932,1,IDLE
1759486032.11133,-4.972158,8.075941,-2.689137,-0.00354,0.000127,0.007575,55.33981,1,IDLE
1759486032.13133,-4.995202,8.061876,-2.672977,-0.006271,0.009898,0.005509,55.35981,1,IDLE
1759486032.15061,-4.97141,8.069357,-2.653075,-0.009909,0.015957,-0.002559,55.37909,1,IDLE
1759486032.17132,-4.956297,8.067711,-2.65083,-0.007366,0.020201,-0.006678,55.39980,1,IDLE
1759486032.19085,-4.912603,8.092102,-2.63871,-0.006521,0.014236,-0.008977,55.41933,1,IDLE
1759486032.21134,-4.866065,8.124574,-2.629282,-0.000979,0.005291,-0.003633,55.43982,1,IDLE
1759486032.23132,-4.860828,8.119187,-2.64275,0.004677,-0.006957,0.004137,55.45980,1,IDLE
1759486032.25132,-4.87235,8.11784,-2.645443,0.002214,-0.015593,0.013152,55.47980,1,IDLE
1759486032.27132,-4.923975,8.086416,-2.637213,-0.000304,-0.015814,0.014505,55.49980,1,IDLE
1759486032.29131,-4.954202,8.056489,-2.647538,-0.00505,-0.004796,0.0113,55.51979,1,IDLE
1759486032.31132,-4.964078,8.067113,-2.679411,-0.005659,0.014723,0.002768,55.53980,1,IDLE
1759486032.33132,-4.97545,8.105869,-2.649783,-0.007461,0.008298,-0.004556,55.55980,1,IDLE
1759486032.35063,-4.941483,8.082077,-2.659808,-0.003203,-0.000499,-0.006483,55.57911,1,IDLE
1759486032.37133,-4.934001,8.088212,-2.677466,-0.001562,-0.006984,-0.001536,55.59981,1,IDLE
1759486032.39130,-4.936844,8.090456,-2.68824,-0.002982,0.008451,0.002835,55.61978,1,IDLE
1759486032.41097,-4.946271,8.085668,-2.672528,-0.005098,0.022907,0.006012,55.63945,1,IDLE
1759486032.43136,-4.936096,8.086865,-2.652775,-0.005758,0.026134,0.00291,55.65984,1,IDLE
1759486032.45133,-4.911106,8.067262,-2.602796,-0.003778,0.00698,-0.001058,55.67981,1,IDLE
1759486032.47133,-4.886865,8.090456,-2.599804,-0.000915,-0.01351,-0.003524,55.69981,1,IDLE
1759486032.49130,-4.886266,8.120234,-2.625092,-0.001467,-0.017081,0.001701,55.71978,1,IDLE
1759486032.51132,-4.921431,8.129811,-2.673425,-0.00543,-0.003984,0.00398,55.73980,1,IDLE
1759486032.53036,-4.952406,8.085069,-2.705448,-0.006115,0.009128,0.004145,55.75884,1,IDLE
1759486032.55067,-4.951957,8.051401,-2.71682,-0.004843,0.018891,-0.000936,55.77915,1,IDLE
1759486032.57103,-4.958841,8.053795,-2.683152,-0.007026,0.021016,-0.005671,55.79951,1,IDLE
1759486032.59040,-4.914249,8.076091,-2.67163,-0.007661,0.017757,-0.006162,55.81888,1,IDLE
1759486032.61133,-4.912902,8.107216,-2.678214,-0.005502,0.017675,-0.004104,55.83981,1,IDLE
1759486032.63039,-4.919635,8.096143,-2.656666,-0.005712,0.0122,-0.003217,55.85887,1,IDLE
1759486032.65069,-4.908113,8.111705,-2.672677,-0.001699,0.012508,-0.001463,55.87917,1,IDLE
1759486032.67133,-4.90108,8.102577,-2.659958,-0.001739,0.009799,0.000199,55.89981,1,IDLE
1759486032.69083,-4.890157,8.106318,-2.655768,-0.003133,0.013728,0.0029,55.91931,1,IDLE
1759486032.71133,-4.924274,8.088661,-2.636764,-0.003928,0.010259,0.001445,55.93981,1,IDLE
1759486032.73133,-4.923825,8.068011,-2.64664,-0.002846,0.005615,0.002096,55.95981,1,IDLE
1759486032.75071,-4.945972,8.061277,-2.656217,-0.003673,0.002984,-0.003173,55.97919,1,IDLE
1759486032.77133,-4.950461,8.08058,-2.673575,-0.00432,0.005246,-0.006326,55.99981,1,IDLE
1759486032.79130,-4.928015,8.079533,-2.677466,-0.002618,0.003028,-0.012252,56.01978,1,IDLE
1759486032.81132,-4.901978,8.099883,-2.684648,0.000516,-0.001182,-0.007805,56.03980,1,IDLE
1759486032.83133,-4.910208,8.11365,-2.684798,0.001121,0.001435,-0.00037,56.05981,1,IDLE
1759486032.85072,-4.9343,8.091055,-2.67567,-0.006511,-0.003906,-0.001766,56.07920,1,IDLE
1759486032.87133,-4.931906,8.070555,-2.736124,0.001396,0.011236,-0.001716,56.09981,1,IDLE
1759486032.89130,-4.957344,8.058434,-2.67163,0.005033,0.00886,-0.006648,56.11978,1,IDLE
1759486032.91132,-4.931756,8.08073,-2.645742,0.000402,0.004114,-0.011889,56.13980,1,IDLE
1759486032.93133,-4.919187,8.106468,-2.639458,-0.001381,-0.006642,-0.012096,56.15981,1,IDLE
1759486032.95073,-4.923825,8.085369,-2.67971,0.0032,-0.010348,-0.003308,56.17921,1,IDLE
1759486032.97132,-4.965125,8.049007,-2.698415,0.004891,-0.00925,0.000393,56.19980,1,IDLE
1759486032.99130,-4.982783,8.050952,-2.708291,0.005462,0.00004,-0.000788,56.21978,1,IDLE
1759486033.01132,-4.978293,8.03943,-2.670882,0.000832,0.005716,-0.004443,56.23980,1,IDLE
1759486033.03131,-4.960636,8.049456,-2.642301,-0.003242,0.004439,-0.002571,56.25979,1,IDLE
1759486033.05073,-4.953154,8.06412,-2.669086,-0.003316,0.003074,-0.001006,56.27921,1,IDLE
1759486033.07131,-4.971859,8.05589,-2.676568,-0.007532,0.00291,-0.000845,56.29979,1,IDLE
1759486033.09130,-5.00044,8.030452,-2.710236,-0.004465,0.005073,-0.003001,56.31978,1,IDLE
1759486033.11131,-4.981585,8.029554,-2.703203,-0.001197,0.008684,-0.005484,56.33979,1,IDLE
1759486033.13130,-4.980837,8.044817,-2.673425,-0.002184,0.009662,-0.00687,56.35978,1,IDLE
1759486033.15077,-4.970662,8.062474,-2.677915,-0.006223,0.011847,-0.006388,56.37925,1,IDLE
