SamplingTime, AccelerationX, AccelerationY, AccelerationZ, GyroX, GyroY, GyroZ, MagneticFieldX, MagneticFieldY, MagneticFieldZ, Latitude, Longitude
1759356244,0.791882,-1.480514,-9.723302,0.012335,-0.009007,-0.024016,127.031265,76.985565,-587.107056,13.758722,100.791784
1759356244,0.813131,-1.430835,-9.691279,0.006616,-0.024625,-0.02332,127.490356,68.368134,-590.276001,13.758722,100.791784
1759356244,0.824054,-1.456273,-9.605537,0.005217,-0.035923,-0.02702,126.964325,77.003189,-587.579712,13.758722,100.791784
1759356244,0.802806,-1.459715,-9.569474,-0.004869,-0.008125,-0.020059,127.412567,69.121857,-590.262268,13.758722,100.791784
1759356244,0.777218,-1.450737,-9.585486,-0.002759,0.011786,-0.027053,127.41716,68.02858,-590.250977,13.758722,100.791784
1759356244,0.815525,-1.430685,-9.621249,0.001731,0.000437,-0.040165,127.00618,76.231461,-587.535034,13.758722,100.791784
1759356244,0.893037,-1.457171,-9.559,0.000382,-0.008994,-0.039053,127.360687,68.384125,-590.429321,13.758722,100.791784
1759356244,0.938527,-1.525256,-9.493608,-0.004919,-0.00202,-0.027803,126.637711,78.11528,-587.080383,13.758722,100.791784
1759356244,0.940173,-1.551293,-9.485228,-0.020076,0.017585,-0.005994,127.290451,69.273193,-590.018555,13.758722,100.791784
1759356244,0.899921,-1.529147,-9.526528,-0.036602,-0.001117,0.009156,127.08432,68.396866,-590.015747,13.758722,100.791784
1759356244,0.824503,-1.49488,-9.645191,-0.039461,-0.010236,0.013391,126.678253,77.826263,-587.064819,13.758722,100.791784
1759356245,0.719308,-1.467945,-9.712229,-0.024843,0.008214,0.012086,127.402771,68.43158,-590.336304,13.758722,100.791784
1759356245,0.68564,-1.46989,-9.722554,-0.012227,0.009873,0.0124,126.955032,78.670715,-587.307251,13.758722,100.791784
1759356245,0.678607,-1.416619,-9.704597,-0.002853,0.002158,0.002418,127.167206,69.08725,-589.995422,13.758722,100.791784
1759356245,0.657657,-1.453131,-9.738266,-0.000708,-0.003531,-0.006851,127.424469,68.30835,-590.339478,13.758722,100.791784
1759356245,0.686986,-1.437568,-9.727941,0.010878,0.002312,-0.009376,126.737503,81.41481,-586.30835,13.758722,100.791784
1759356245,0.698059,-1.43682,-9.679757,0.018368,-0.00296,-0.019148,127.24791,68.769424,-590.55127,13.758722,100.791784
1759356245,0.782754,-1.461211,-9.604639,0.012818,-0.016546,-0.028747,126.322464,79.623047,-586.618774,13.758722,100.791784
1759356245,0.864456,-1.483058,-9.607931,0.009227,-0.00492,-0.01543,127.150589,69.508743,-590.09906,13.758722,100.791784
1759356245,0.877774,-1.460613,-9.597307,0.008538,0.00109,0.002302,127.154419,69.158203,-590.173828,13.758722,100.791784
1759356245,0.85488,-1.473631,-9.576807,0.00702,-0.002695,0.000822,126.848618,76.180954,-587.495361,13.758722,100.791784
1759356245,0.892139,-1.47393,-9.526079,0.008168,-0.006619,-0.003571,127.28508,68.776535,-590.445435,13.758722,100.791784
1759356245,0.930746,-1.473332,-9.474754,-0.00305,0.009491,0.013124,126.737152,78.386078,-587.189575,13.758722,100.791784
1759356245,0.889596,-1.508048,-9.592668,-0.019628,0.034404,0.031227,127.414322,68.617386,-590.249634,13.758722,100.791784
1759356245,0.855029,-1.405247,-9.683498,-0.016133,-0.005132,0.038617,127.452606,68.737366,-590.07666,13.758722,100.791784
1759356245,0.729334,-1.446397,-9.654169,-0.008811,-0.013039,0.021341,126.995483,75.942825,-587.494873,13.758722,100.791784
1759356245,0.716465,-1.443404,-9.606285,-0.007981,0.023582,0.015081,127.176682,68.484955,-590.400513,13.758722,100.791784
1759356245,0.753575,-1.440412,-9.667786,-0.003405,0.030884,0.017053,126.599823,77.928329,-587.40332,13.758722,100.791784
1759356245,0.780061,-1.388936,-9.607033,0.004189,0.001135,0.00715,127.033829,69.605927,-589.820068,13.758722,100.791784
1759356245,0.75148,-1.505654,-9.504831,-0.005424,-0.018436,0.001209,127.152069,68.737732,-589.881348,13.758722,100.791784
1759356245,0.790535,-1.509095,-9.502886,-0.019174,0.007632,0.019146,126.688232,76.899368,-587.589722,13.758722,100.791784
1759356245,0.727239,-1.458069,-9.569325,-0.01814,0.011144,0.033072,127.248947,69.180222,-590.284302,13.758722,100.791784
1759356245,0.685789,-1.448642,-9.583241,-0.02256,0.004989,0.023731,126.836456,77.115143,-587.873413,13.758722,100.791784
1759356245,0.711527,-1.439963,-9.669732,-0.028527,0.001467,0.018162,127.487076,69.065933,-590.10675,13.758722,100.791784
1759356245,0.679055,-1.421408,-9.747842,-0.016363,-0.017721,0.018217,127.254883,71.836838,-588.889465,13.758722,100.791784
1759356245,0.642394,-1.401207,-9.750237,0.001166,-0.005109,0.006665,126.891632,76.924484,-587.230347,13.758722,100.791784
1759356245,0.699107,-1.386542,-9.656563,0.01558,-0.020494,-0.018947,127.288315,69.337738,-589.696289,13.758722,100.791784
1759356245,0.80505,-1.466149,-9.535656,0.008759,-0.013534,-0.028322,126.808075,78.486923,-587.244995,13.758722,100.791784
1759356245,0.873135,-1.533785,-9.531466,-0.014889,-0.006795,-0.022454,127.236252,71.231689,-589.154053,13.758722,100.791784
1759356245,0.88346,-1.501913,-9.577405,-0.010929,-0.008601,-0.011413,127.022079,72.204803,-589.330444,13.758722,100.791784
1759356245,0.899771,-1.493234,-9.55047,0.001352,-0.002013,-0.01272,126.846207,77.274948,-587.593445,13.758722,100.791784
1759356245,0.928052,-1.554136,-9.521291,-0.011259,0.008206,-0.009223,127.611816,68.538437,-590.358032,13.758722,100.791784
1759356245,0.945111,-1.545906,-9.641749,-0.028016,0.026267,0.010853,126.898499,76.386688,-587.553894,13.758722,100.791784
1759356245,0.895282,-1.510442,-9.746047,-0.011695,-0.002511,0.024718,127.521286,68.468674,-590.316284,13.758722,100.791784
1759356245,0.801758,-1.497124,-9.747992,0.008651,-0.007152,0.025277,127.185425,71.389404,-589.427734,13.758722,100.791784
1759356245,0.786645,-1.501164,-9.663596,0.009168,-0.008805,0.019457,126.908127,77.368301,-587.349121,13.758722,100.791784
1759356245,0.766294,-1.465551,-9.711929,0.007042,0.019617,0.029269,127.332535,68.977234,-590.617676,13.758722,100.791784
1759356245,0.722301,-1.421857,-9.723302,0.021393,0.01087,0.024182,127.048065,77.712067,-587.36438,13.758722,100.791784
1759356245,0.749385,-1.426645,-9.62903,0.018342,-0.015154,0.017925,127.491119,68.641296,-590.196533,13.758722,100.791784
1759356245,0.745794,-1.423652,-9.608829,0.008568,-0.017429,0.004704,127.114166,72.815643,-589.33252,13.758722,100.791784
1759356245,0.782904,-1.430535,-9.561244,0.00886,-0.006309,0.005216,126.808548,79.322632,-586.839966,13.758722,100.791784
1759356245,0.780809,-1.4657,-9.539846,0.017341,-0.003755,0.009254,127.304108,68.551651,-590.364075,13.758722,100.791784
1759356245,0.804152,-1.457919,-9.522638,0.015686,0.001198,0.006592,126.874542,75.524918,-587.801697,13.758722,100.791784
1759356245,0.850391,-1.497274,-9.44333,-0.010665,0.019847,0.007275,127.229889,68.96431,-590.594116,13.758722,100.791784
1759356245,0.893486,-1.476025,-9.512313,-0.027061,0.014478,0.018287,127.073242,72.318253,-589.006348,13.758722,100.791784
1759356245,0.849044,-1.467047,-9.642498,-0.012417,0.004524,0.013936,126.870682,77.641861,-586.855591,13.758722,100.791784
1759356245,0.841861,-1.463755,-9.677213,0.007546,-0.002416,0.007293,127.37471,68.790649,-590.170593,13.758722,100.791784
1759356245,0.844255,-1.521814,-9.572467,-0.006547,0.001103,0.015717,126.747772,77.692902,-587.409302,13.758722,100.791784
1759356245,0.849942,-1.542913,-9.58788,-0.016672,0.022679,0.024163,127.284439,68.759018,-590.057129,13.758722,100.791784
1759356245,0.83393,-1.498321,-9.677662,-0.003894,0.005481,0.027439,127.30452,69.335144,-590.021545,13.758722,100.791784
1759356245,0.7844,-1.505953,-9.712678,0.008368,-0.010993,0.009371,126.963196,76.16217,-587.549194,13.758722,100.791784
1759356246,0.782455,-1.506551,-9.622147,0.001083,0.004305,0.015777,127.640472,68.527115,-590.435791,13.758722,100.791784
1759356246,0.805499,-1.512687,-9.658359,0.011831,0.013504,0.022789,127.078537,76.836014,-587.761108,13.758722,100.791784
1759356246,0.773926,-1.462109,-9.633968,0.02334,-0.019584,0.015847,127.382202,69.571198,-590.074158,13.758722,100.791784
1759356246,0.770933,-1.451185,-9.50932,0.000255,-0.022594,0.004253,127.338928,69.187057,-589.950745,13.758722,100.791784
1759356246,0.699556,-1.540369,-9.513061,-0.011263,0.006594,0.010006,127.034058,75.703506,-587.721497,13.758722,100.791784
1759356246,0.7434,-1.472733,-9.616161,-0.005975,0.016176,0.016941,127.597885,68.403885,-590.286255,13.758722,100.791784
1759356246,0.745794,-1.446098,-9.746645,0.011182,-0.016295,0.002327,126.971298,75.061295,-587.782776,13.758722,100.791784
1759356246,0.76405,-1.413477,-9.67856,0.015186,-0.042207,-0.015374,127.211838,68.512894,-590.213928,13.758722,100.791784
1759356246,0.781408,-1.462708,-9.603891,0.009168,-0.017804,-0.017135,127.340973,68.344437,-590.402344,13.758722,100.791784
1759356246,0.828843,-1.520617,-9.540744,0.001843,0.008523,-0.006277,126.98349,75.253738,-587.943787,13.758722,100.791784
1759356246,0.890194,-1.504157,-9.539248,-0.006231,0.014823,0.002796,127.404297,68.970276,-589.927124,13.758722,100.791784
1759356246,0.893336,-1.482011,-9.577704,-0.011706,-0.004213,0.001079,127.153336,74.932556,-587.959229,13.758722,100.791784
1759356246,0.934188,-1.468693,-9.61257,-0.015828,-0.002004,0.008208,127.54808,68.178467,-590.454224,13.758722,100.791784
1759356246,0.9083,-1.473781,-9.698761,-0.001869,0.00484,0.016377,127.382782,68.723083,-590.396667,13.758722,100.791784
1759356246,0.879121,-1.467346,-9.67467,0.013297,-0.001128,0.013094,126.946945,74.882385,-587.947754,13.758722,100.791784
1759356246,0.878223,-1.511789,-9.576358,0.007829,-0.003972,0.008441,127.344543,68.975311,-589.904297,13.758722,100.791784
1759356246,0.893486,-1.552341,-9.497648,-0.008993,0.020843,0.021332,126.970322,74.969574,-588.050293,13.758722,100.791784
1759356246,0.90441,-1.548001,-9.518298,-0.0221,0.023122,0.036621,127.380615,68.046631,-590.11499,13.758722,100.791784
1759356246,0.858172,-1.531242,-9.567679,-0.023448,0.012526,0.03526,127.411835,69.466171,-590.151489,13.758722,100.791784
1759356246,0.798466,-1.496226,-9.634267,-0.020172,0.015683,0.035719,127.129593,73.710541,-588.67804,13.758722,100.791784
1759356246,0.741005,-1.495927,-9.717915,-0.002612,0.018667,0.026349,127.49823,68.233734,-590.138672,13.758722,100.791784
1759356246,0.717961,-1.456872,-9.686042,0.007542,0.006032,0.013593,126.993607,76.309097,-588.029968,13.758722,100.791784
1759356246,0.66469,-1.489343,-9.646388,0.00653,0.007947,-0.001485,127.429337,68.365173,-590.313721,13.758722,100.791784
1759356246,0.688483,-1.514333,-9.619453,-0.002163,0.019809,-0.009233,127.492218,68.705658,-590.053345,13.758722,100.791784
1759356246,0.789937,-1.529895,-9.647436,-0.001468,0.015897,-0.005998,127.428253,71.280609,-589.437195,13.758722,100.791784
1759356246,0.861015,-1.529596,-9.681852,0.008658,0.003855,0.008103,127.528549,68.161545,-590.25708,13.758722,100.791784
1759356246,0.845004,-1.513285,-9.690382,0.026987,-0.011765,0.01502,127.103806,75.303818,-588.067749,13.758722,100.791784
1759356246,0.81343,-1.512687,-9.61676,0.02777,-0.008886,0.014155,127.692093,68.5009,-589.929749,13.758722,100.791784
1759356246,0.792331,-1.529446,-9.507375,0.010428,0.00063,0.010638,127.347656,69.47821,-590.032715,13.758722,100.791784
1759356246,0.771831,-1.519869,-9.508871,-0.000457,0.004614,0.003718,127.414917,69.597351,-589.897339,13.758722,100.791784
1759356246,0.784101,-1.523311,-9.555109,0.002598,0.015588,0.001256,127.57962,68.220169,-590.290527,13.758722,100.791784
1759356246,0.820912,-1.518522,-9.6,0.002922,0.005982,0.001554,127.057144,76.026672,-587.357727,13.758722,100.791784
1759356246,0.828094,-1.49907,-9.586234,-0.00553,-0.005503,0.002304,127.462204,68.305267,-590.179688,13.758722,100.791784
1759356246,0.807594,-1.547552,-9.668534,0.009817,-0.011325,0.005776,127.562393,68.568588,-590.173706,13.758722,100.791784
1759356246,0.816722,-1.520617,-9.618107,0.016728,-0.001053,0.010565,127.685501,68.900436,-590.18573,13.758722,100.791784
1759356246,0.773776,-1.548899,-9.551069,0.002902,-0.005939,0.002876,127.657959,67.988251,-590.680664,13.758722,100.791784
1759356246,0.753276,-1.523012,-9.538799,0.002495,-0.010406,-0.012989,127.072433,75.009995,-587.952209,13.758722,100.791784
1759356246,0.806996,-1.540968,-9.525331,-0.006455,0.000433,-0.006093,127.417419,68.55571,-590.41156,13.758722,100.791784
1759356246,0.817321,-1.552341,-9.533112,-0.020021,0.011508,0.010382,127.375397,68.474457,-590.053101,13.758722,100.791784
1759356246,0.774375,-1.496077,-9.61257,-0.010363,-0.007077,-0.001227,127.379959,70.770874,-588.931091,13.758722,100.791784
1759356246,0.758363,-1.48231,-9.623344,-0.002835,-0.017686,-0.010602,127.319031,70.162506,-589.742981,13.758722,100.791784
1759356246,0.791733,-1.529147,-9.53012,-0.005807,-0.025861,-0.004759,127.006638,77.041382,-587.514893,13.758722,100.791784
1759356246,0.769137,-1.555633,-9.496751,-0.029668,-0.015323,0.008205,127.414795,68.856796,-590.291199,13.758722,100.791784
1759356246,0.698209,-1.528698,-9.548974,-0.037285,-0.009835,-0.000259,127.485474,67.965729,-590.583435,13.758722,100.791784
1759356246,0.695216,-1.486949,-9.605387,-0.040248,-0.012625,-0.001513,127.617584,69.098618,-589.874451,13.758722,100.791784
1759356246,0.704643,-1.49054,-9.709685,-0.035443,-0.026823,-0.00137,127.440094,68.245331,-590.495728,13.758722,100.791784
1759356246,0.712724,-1.474828,-9.813084,-0.018181,-0.015786,0.000407,126.836838,77.207321,-586.921082,13.758722,100.791784
1759356246,0.715268,-1.436371,-9.808895,0.002251,-0.020656,-0.002875,127.470886,68.745056,-590.281982,13.758722,100.791784
1759356246,0.698808,-1.46151,-9.745747,0.021368,-0.044029,-0.023669,127.430222,68.552078,-590.259338,13.758722,100.791784
1759356246,0.787243,-1.518373,-9.561095,0.021408,-0.034081,-0.037856,127.237183,69.274628,-589.980103,13.758722,100.791784
1759356247,0.873285,-1.56476,-9.540145,0.003824,-0.004053,-0.022902,127.433914,68.207626,-590.547363,13.758722,100.791784
1759356247,0.925359,-1.535581,-9.573066,-0.001049,-0.000113,-0.001317,126.900238,76.377136,-587.81311,13.758722,100.791784
1759356247,0.910246,-1.49877,-9.548525,0.007619,-0.02087,-0.003384,127.326218,68.276978,-590.143188,13.758722,100.791784
1759356247,0.877924,-1.561618,-9.506028,-0.001464,-0.007775,-0.002318,127.18895,68.320633,-590.338257,13.758722,100.791784
1759356247,0.859219,-1.555333,-9.557354,-0.012427,0.007219,0.017817,127.216736,69.137573,-589.774414,13.758722,100.791784
1759356247,0.76809,-1.515081,-9.6416,-0.012477,0.00705,0.021934,127.346954,68.274155,-590.147339,13.758722,100.791784
1759356247,0.720505,-1.480365,-9.660454,-0.003005,-0.008147,0.013101,126.921921,76.931503,-587.717102,13.758722,100.791784
1759356247,0.652719,-1.475277,-9.623194,-0.000712,-0.006706,0.004344,127.416534,68.17659,-590.46759,13.758722,100.791784
1759356247,0.644788,-1.488894,-9.576956,-0.008006,-0.009272,0.001273,127.430679,68.20015,-590.465881,13.758722,100.791784
1759356247,0.574758,-1.472883,-9.618107,-0.013394,-0.000656,-0.003491,127.376877,69.111374,-589.640747,13.758722,100.791784
1759356247,0.568473,-1.439065,-9.662699,-0.009764,-0.009267,-0.015629,127.331665,68.407898,-590.111328,13.758722,100.791784
1759356247,0.589572,-1.447145,-9.684995,-0.006497,-0.009376,-0.03465,126.851273,76.4366,-587.729126,13.758722,100.791784
1759356247,0.64434,-1.489193,-9.698761,0.005751,-0.002719,-0.05222,127.465164,68.628174,-589.924744,13.758722,100.791784
1759356247,0.750133,-1.504756,-9.608679,0.014004,-0.009008,-0.051724,127.320358,68.988312,-589.902527,13.758722,100.791784
1759356247,0.849044,-1.539023,-9.546131,0.005437,-0.015967,-0.039201,127.258972,69.642273,-589.551025,13.758722,100.791784
1759356247,0.850989,-1.536928,-9.526528,-0.006235,-0.018818,-0.027918,127.250931,68.866364,-589.951599,13.758722,100.791784
1759356247,0.865953,-1.529745,-9.615413,-0.012626,-0.006544,-0.01336,126.67067,76.345627,-587.367554,13.758722,100.791784
1759356247,0.844704,-1.496975,-9.693075,0.000501,-0.000957,-0.005633,127.326752,68.161148,-590.466187,13.758722,100.791784
1759356247,0.826448,-1.479916,-9.647286,0.005508,0.002789,-0.005432,127.087906,68.430237,-590.338379,13.758722,100.791784
1759356247,0.815525,-1.501164,-9.618855,-0.006997,-0.001787,-0.010357,127.143356,69.804443,-589.831848,13.758722,100.791784
1759356247,0.861613,-1.474379,-9.647885,0,-0.01018,-0.005428,127.246689,68.802399,-590.600708,13.758722,100.791784
1759356247,0.844854,-1.473631,-9.657012,0.006623,0.008057,0.007779,126.759415,76.30954,-588.351624,13.758722,100.791784
1759356247,0.775422,-1.460014,-9.621997,0.011635,0.024474,0.00883,127.460693,68.642868,-590.63916,13.758722,100.791784
1759356247,0.804152,-1.416021,-9.59596,0.002953,0.02206,0.003792,126.908951,73.143066,-588.511108,13.758722,100.791784
1759356247,0.805649,-1.462558,-9.608829,0.006802,0.008495,-0.005913,127.415894,69.327103,-589.843689,13.758722,100.791784
1759356247,0.814178,-1.474679,-9.572018,-0.001135,0.00419,0.015071,127.017944,69.074905,-590.549622,13.758722,100.791784
1759356247,0.768688,-1.439514,-9.600449,-0.006695,0.020192,0.021268,126.669617,76.399261,-587.748962,13.758722,100.791784
1759356247,0.746991,-1.422754,-9.607482,-0.002867,0.01009,0.014997,127.363525,68.528519,-590.824341,13.758722,100.791784
1759356247,0.771232,-1.444751,-9.527426,-0.000464,-0.01625,0.007988,126.890198,74.764343,-588.087402,13.758722,100.791784
1759356247,0.742203,-1.49488,-9.493159,-0.009782,0.00488,0.022376,127.32135,69.177521,-589.752808,13.758722,100.791784
1759356247,0.716315,-1.481263,-9.557653,-0.017928,0.031827,0.033926,127.292679,69.02301,-590.040649,13.758722,100.791784
1759356247,0.717662,-1.435324,-9.667487,-0.026288,0.011404,0.03256,126.717514,77.270844,-587.409546,13.758722,100.791784
1759356247,0.678158,-1.412579,-9.737069,-0.014565,-0.017262,0.020553,127.127899,68.379013,-590.444458,13.758722,100.791784
1759356247,0.650026,-1.446696,-9.655217,0.007881,-0.001913,0.011859,126.678574,77.012985,-587.639587,13.758722,100.791784
1759356247,0.681749,-1.485452,-9.613169,0.004074,0.02025,0.007708,127.119904,69.277695,-589.761597,13.758722,100.791784
1759356247,0.777218,-1.460613,-9.619902,-0.013663,0.006318,-0.001703,127.314667,69.842163,-589.711243,13.758722,100.791784
1759356247,0.817021,-1.481263,-9.706393,-0.009693,0.002133,-0.006424,126.674011,77.43576,-587.323975,13.758722,100.791784
1759356247,0.872986,-1.487697,-9.656563,0.009203,0.003674,0.00726,127.337158,68.217346,-590.422485,13.758722,100.791784
1759356247,0.87523,-1.513734,-9.602993,0.009596,0.003883,0.014541,126.572479,77.36644,-587.580139,13.758722,100.791784
1759356247,0.848296,-1.505654,-9.585486,0.005972,0.000775,0.015916,127.223236,69.398392,-590.026733,13.758722,100.791784
1759356247,0.858471,-1.510592,-9.535806,0.00797,0.003464,0.015938,126.890182,68.417938,-590.302307,13.758722,100.791784
1759356247,0.846949,-1.506252,-9.536704,0.005735,0.021763,0.022975,126.671204,77.238052,-587.564087,13.758722,100.791784
1759356247,0.808193,-1.520318,-9.54224,-0.003784,0.021824,0.028787,127.06073,68.56366,-590.098755,13.758722,100.791784
1759356247,0.768389,-1.473182,-9.622596,-0.000096,0.017359,0.023587,126.729279,77.196793,-587.212341,13.758722,100.791784
1759356247,0.715417,-1.468992,-9.680655,0.006579,-0.002868,0.023008,127.231155,69.518341,-589.573914,13.758722,100.791784
1759356247,0.584933,-1.421258,-9.694123,0.022283,0.00874,-0.004487,127.35759,68.724335,-590.195618,13.758722,100.791784
1759356247,0.650325,-1.444452,-9.662399,0.02803,0.017144,-0.031851,126.597061,77.178787,-587.212463,13.758722,100.791784
1759356247,0.808043,-1.544559,-9.642647,0.021167,0.006281,-0.017128,127.424744,69.182037,-590.155396,13.758722,100.791784
1759356247,0.866851,-1.559822,-9.635315,0.021775,-0.010337,-0.001435,126.975266,76.157089,-587.566956,13.758722,100.791784
1759356247,0.783203,-1.546804,-9.6413,0.027549,0.00315,-0.011673,127.460526,69.402374,-590.390747,13.758722,100.791784
1759356248,0.80101,-1.54441,-9.631724,0.041849,0.016214,-0.02135,126.958679,68.535538,-590.169373,13.758722,100.791784
1759356248,0.914884,-1.551742,-9.604041,0.037997,0.010328,-0.008162,126.748993,76.752396,-587.460083,13.758722,100.791784
1759356248,0.965462,-1.616236,-9.567978,0.019683,-0.002373,0.003628,127.164001,68.155563,-590.60791,13.758722,100.791784
1759356248,0.931793,-1.575385,-9.562591,0.006005,-0.016029,0.012344,126.759811,76.901489,-587.705322,13.758722,100.791784
1759356248,0.873435,-1.559523,-9.606884,0.014504,-0.010127,0.011706,127.427277,69.434723,-589.934875,13.758722,100.791784
1759356248,0.828693,-1.533636,-9.578303,0.010954,0.004789,0.004815,127.401566,68.470673,-590.392456,13.758722,100.791784
1759356248,0.838569,-1.534683,-9.573365,-0.001394,0.016855,-0.005556,126.815338,76.517532,-587.489746,13.758722,100.791784
1759356248,0.886902,-1.567753,-9.628581,0.006151,0.00319,0.005455,127.183517,68.184875,-590.520264,13.758722,100.791784
1759356248,0.909497,-1.550994,-9.614665,0.014267,-0.01185,0.011431,126.484406,78.221207,-587.298645,13.758722,100.791784
1759356248,0.829741,-1.574936,-9.542091,0.002943,0.00611,0.006273,127.369736,68.43869,-590.483032,13.758722,100.791784
1759356248,0.810886,-1.557727,-9.506627,-0.006243,0.009021,-0.000839,126.976349,68.387924,-590.3797,13.758722,100.791784
1759356248,0.877176,-1.558027,-9.568726,-0.002566,-0.002694,0.009814,126.93631,75.834442,-587.637024,13.758722,100.791784
1759356248,0.872687,-1.562965,-9.560795,-0.00828,-0.010615,0.022228,127.345917,68.150787,-590.527649,13.758722,100.791784
1759356248,0.748936,-1.588104,-9.547627,-0.017728,0.002476,0.005802,126.870636,78.449631,-587.113647,13.758722,100.791784
1759356248,0.764199,-1.561917,-9.556007,-0.013304,0.005974,-0.005343,127.1819,68.265427,-590.381653,13.758722,100.791784
1759356248,0.783054,-1.558625,-9.564536,-0.006603,-0.004068,-0.002122,127.17067,68.457809,-590.443726,13.758722,100.791784
1759356248,0.791433,-1.579724,-9.592519,-0.017398,0.001546,0.005485,126.864868,75.629883,-587.458496,13.758722,100.791784
1759356248,0.789189,-1.557129,-9.681703,-0.00759,-0.014596,-0.002069,127.316666,68.175278,-590.522156,13.758722,100.791784
1759356248,0.841263,-1.525555,-9.683049,0.012456,-0.041361,-0.007322,126.649673,77.671112,-587.478638,13.758722,100.791784
1759356248,0.826149,-1.586757,-9.528474,0.005201,-0.036585,0.000788,127.00032,69.266861,-590.307434,13.758722,100.791784
1759356248,0.826,-1.620575,-9.449465,-0.010116,-0.007669,0.014966,126.948288,72.835419,-589.477905,13.758722,100.791784
1759356248,0.828094,-1.602768,-9.541492,-0.013302,0.007374,0.023847,126.901505,76.014603,-587.603638,13.758722,100.791784
1759356248,0.824653,-1.541267,-9.596559,-0.012892,-0.014283,0.020154,127.211624,68.952225,-589.90387,13.758722,100.791784
1759356248,0.796371,-1.527501,-9.672275,-0.011782,-0.025874,0.017513,126.822891,77.46489,-587.386963,13.758722,100.791784
1759356248,0.760758,-1.559074,-9.648633,-0.011808,-0.014232,0.011659,127.224686,68.675552,-590.201904,13.758722,100.791784
1759356248,0.790535,-1.513135,-9.682451,-0.003502,-0.005954,0.012718,127.051743,69.659561,-589.760132,13.758722,100.791784
1759356248,0.82181,-1.507748,-9.734375,0.011664,-0.008919,0.008755,126.785034,76.529312,-587.508423,13.758722,100.791784
1759356248,0.830339,-1.532139,-9.640702,0.013963,-0.019542,-0.003606,127.593506,68.45401,-590.035034,13.758722,100.791784
1759356248,0.849942,-1.583166,-9.517999,-0.004366,0.005766,-0.005655,126.778946,77.660583,-587.523438,13.758722,100.791784
1759356248,0.930447,-1.601272,-9.563938,-0.011492,0.024622,0.008458,127.125916,68.843216,-590.316284,13.758722,100.791784
1759356248,0.984316,-1.573589,-9.644293,-0.000423,0.00683,0.019904,127.10434,72.626328,-588.863647,13.758722,100.791784
1759356248,0.96202,-1.567753,-9.565733,0.001883,0.002311,0.02116,126.78775,76.938507,-587.22522,13.758722,100.791784
1759356248,0.918476,-1.648258,-9.54658,-0.001541,0.019319,0.0336,127.352249,68.991776,-590.176147,13.758722,100.791784
1759356248,0.930746,-1.640627,-9.533262,-0.007042,0.03197,0.056158,126.748627,77.582687,-587.319336,13.758722,100.791784
1759356248,0.839018,-1.591246,-9.615862,-0.006285,0.02908,0.057714,127.349762,70.189423,-589.82373,13.758722,100.791784
1759356248,0.756568,-1.545008,-9.673473,-0.005596,0.019965,0.052291,127.172256,69.817429,-590.155273,13.758722,100.791784
1759356248,0.692224,-1.552789,-9.715521,0.011316,-0.017483,0.038424,126.731857,77.665756,-586.931519,13.758722,100.791784
1759356248,0.656011,-1.54426,-9.677962,0.020191,-0.007914,0.02613,127.509766,68.427368,-590.384338,13.758722,100.791784
1759356248,0.618303,-1.568651,-9.623942,0.021744,0.013752,0.017694,126.593277,77.448166,-587.396118,13.758722,100.791784
1759356248,0.622044,-1.585261,-9.585037,0.018309,0.014255,0.009299,127.112289,68.204102,-590.279785,13.758722,100.791784
1759356248,0.662446,-1.565658,-9.547927,0.00294,-0.000725,-0.0024,127.292786,69.969223,-589.718262,13.758722,100.791784
1759356248,0.656011,-1.566406,-9.584438,-0.000909,0.002121,-0.008827,126.598969,77.544724,-586.563354,13.758722,100.791784
1759356248,0.707936,-1.566706,-9.629479,0.003676,0.002683,-0.021507,127.630112,68.384857,-589.934265,13.758722,100.791784
1759356248,0.760309,-1.584812,-9.583091,0.012391,-0.005655,-0.028499,126.824783,77.973129,-586.936584,13.758722,100.791784
1759356248,0.822558,-1.59798,-9.548824,0.008411,0.005702,-0.026543,127.241211,67.890625,-590.361328,13.758722,100.791784
1759356248,0.879121,-1.578677,-9.532963,0.005283,0.003947,-0.021347,127.172455,71.072769,-589.294678,13.758722,100.791784
1759356248,0.875829,-1.590648,-9.567679,-0.002045,0.00225,-0.010141,126.70343,78.146103,-586.675232,13.758722,100.791784
1759356248,0.885106,-1.570297,-9.593566,-0.007934,-0.001852,-0.011831,127.487701,69.25853,-589.891541,13.758722,100.791784
1759356248,0.874183,-1.57718,-9.638308,0.000279,0.000922,-0.004308,127.364731,68.591949,-590.389526,13.758722,100.791784
1759356248,0.821062,-1.573739,-9.638757,0.010231,0.003216,-0.003629,126.914169,76.389236,-587.353027,13.758722,100.791784
1759356249,0.823456,-1.571195,-9.572168,0.005505,0.006628,-0.00865,127.469696,68.072128,-590.413452,13.758722,100.791784
1759356249,0.823905,-1.587805,-9.559898,-0.005822,0.003777,-0.012905,126.74913,76.955429,-587.637817,13.758722,100.791784
1759356249,0.851887,-1.590648,-9.527426,-0.004867,-0.001811,-0.007278,127.307114,69.603851,-589.915283,13.758722,100.791784
1759356249,0.808941,-1.603217,-9.544635,-0.006844,0.006273,-0.000997,127.186142,68.672745,-590.296448,13.758722,100.791784
1759356249,0.792181,-1.574637,-9.610625,-0.012929,0.013334,0.00182,126.798843,75.524246,-587.827148,13.758722,100.791784
1759356249,0.758363,-1.52376,-9.695918,-0.000858,0.016182,-0.006476,127.092941,68.230759,-590.330017,13.758722,100.791784
1759356249,0.794276,-1.557129,-9.674969,0.0133,0.002185,-0.017287,126.822876,75.981583,-587.547974,13.758722,100.791784
1759356249,0.844255,-1.568651,-9.653571,0.025823,-0.016187,-0.010566,127.121704,69.666595,-589.581421,13.758722,100.791784
1759356249,0.843358,-1.561169,-9.559149,0.021301,-0.005424,0.000289,127.151794,68.505219,-589.801086,13.758722,100.791784
1759356249,0.818967,-1.573589,-9.465776,0.007888,-0.00899,-0.003821,126.540634,77.137085,-586.957214,13.758722,100.791784
1759356249,0.817171,-1.572841,-9.469367,-0.005499,-0.018611,-0.007777,127.464966,68.780823,-589.906128,13.758722,100.791784
1759356249,0.827047,-1.587954,-9.541043,-0.007571,-0.005992,0.001156,126.613266,77.382202,-586.948853,13.758722,100.791784
1759356249,0.814777,-1.56476,-9.551518,-0.010326,-0.002265,0.009318,127.069519,69.14563,-589.703003,13.758722,100.791784
1759356249,0.786046,-1.571195,-9.592369,-0.020438,-0.015014,0.006082,126.897919,68.383896,-590.119507,13.758722,100.791784
1759356249,0.789039,-1.532888,-9.628432,-0.014552,-0.01175,0.008754,126.553833,76.994461,-587.402527,13.758722,100.791784
1759356249,0.784999,-1.556081,-9.650877,-0.011459,-0.017933,0.012795,127.128723,68.966034,-589.745361,13.758722,100.791784
1759356249,0.801908,-1.530194,-9.642348,-0.004915,-0.018805,0.016405,126.552979,78.365707,-586.84375,13.758722,100.791784
1759356249,0.740706,-1.532588,-9.586832,-0.007945,-0.03795,0.014947,126.94426,71.518387,-589.130737,13.758722,100.791784
1759356249,0.752976,-1.543362,-9.506178,-0.008705,-0.043321,-0.000881,127.419952,68.482132,-589.99176,13.758722,100.791784
1759356249,0.815974,-1.57314,-9.475203,-0.021602,-0.017397,0.013004,126.529037,77.279312,-586.838806,13.758722,100.791784
1759356249,0.792181,-1.587206,-9.516054,-0.047143,-0.009509,0.021589,127.204636,68.311035,-590.260803,13.758722,100.791784
1759356249,0.785897,-1.522563,-9.703999,-0.044928,-0.005675,0.017101,126.746582,76.293396,-587.716797,13.758722,100.791784
1759356249,0.814777,-1.551293,-9.682152,-0.012445,-0.025441,0.004849,127.135483,69.326416,-590.332092,13.758722,100.791784
1759356249,0.815824,-1.61878,-9.549722,-0.014234,-0.026461,0.008291,127.332703,68.263245,-590.543701,13.758722,100.791784
1759356249,0.800262,-1.624017,-9.558551,-0.023577,-0.014371,0.017278,126.537628,76.791748,-587.649658,13.758722,100.791784
1759356249,0.79293,-1.606958,-9.63337,-0.021395,0.004662,0.031257,127.338379,68.382965,-590.74646,13.758722,100.791784
1759356249,0.740557,-1.57329,-9.67856,-0.005357,-0.010538,0.029973,126.625504,77.679611,-587.353638,13.758722,100.791784
1759356249,0.664541,-1.550545,-9.670031,0.002857,-0.010123,0.019788,127.515884,68.796021,-590.256592,13.758722,100.791784
1759356249,0.646584,-1.542764,-9.657012,-0.005044,-0.010067,0.008446,127.372528,68.310165,-590.389404,13.758722,100.791784
1759356249,0.689829,-1.519869,-9.687389,-0.003719,-0.0118,0.006226,126.653717,77.031281,-587.628662,13.758722,100.791784
1759356249,0.649876,-1.527052,-9.675717,0.012603,-0.012168,0.001904,127.285446,68.37056,-590.326172,13.758722,100.791784
1759356249,0.679205,-1.521216,-9.582643,0.018942,-0.011013,-0.00445,126.823639,77.374664,-587.530029,13.758722,100.791784
1759356249,0.690578,-1.558476,-9.523236,-0.000925,-0.02103,-0.012259,127.209381,70.138641,-589.717834,13.758722,100.791784
1759356249,0.745794,-1.551592,-9.526678,-0.01124,-0.019392,-0.008687,127.176086,71.373901,-589.095825,13.758722,100.791784
1759356249,0.708833,-1.557578,-9.562292,-0.021515,-0.005758,-0.006301,126.971771,76.006943,-587.717407,13.758722,100.791784
1759356249,0.747739,-1.52376,-9.627085,-0.020446,0.000515,-0.002495,127.402588,68.270355,-590.366577,13.758722,100.791784
1759356249,0.74744,-1.499219,-9.661801,-0.011595,-0.021537,-0.008882,126.512894,78.830856,-586.890442,13.758722,100.791784
1759356249,0.73517,-1.54441,-9.675418,-0.011755,-0.01032,-0.014103,127.353516,68.116898,-590.420959,13.758722,100.791784
1759356249,0.782305,-1.521066,-9.64983,-0.002979,-0.002971,-0.012166,127.287323,68.577606,-590.287842,13.758722,100.791784
1759356249,0.799514,-1.551892,-9.628282,-0.000505,-0.002721,-0.008672,126.818253,75.610916,-587.842651,13.758722,100.791784
1759356249,0.834978,-1.600823,-9.59626,0.002398,-0.014244,0.002718,127.186096,68.067108,-590.436218,13.758722,100.791784
1759356249,0.826448,-1.588702,-9.57965,-0.006482,0.019519,0.014315,126.693115,77.767075,-587.761963,13.758722,100.791784
1759356249,0.768539,-1.596035,-9.61676,-0.008547,0.014759,0.011998,126.825119,68.501724,-590.47229,13.758722,100.791784
1759356249,0.762254,-1.526154,-9.660903,-0.000563,-0.00338,0.005977,126.877884,71.059814,-589.004761,13.758722,100.791784
1759356249,0.724396,-1.528997,-9.639505,0.00081,-0.003639,0.008702,126.618805,76.361069,-587.65332,13.758722,100.791784
1759356249,0.661249,-1.556381,-9.590274,-0.005963,0.011463,0.005549,126.905243,69.737991,-589.860657,13.758722,100.791784
1759356249,0.662296,-1.526902,-9.60419,-0.006079,0.000809,-0.003321,126.461853,77.478973,-587.076599,13.758722,100.791784
1759356249,0.657508,-1.498321,-9.596708,0.002404,-0.00738,-0.012998,127.006805,69.028809,-590.291626,13.758722,100.791784
1759356249,0.713173,-1.501015,-9.574263,-0.003753,0.004582,0.003925,127.011688,71.733734,-589.213501,13.758722,100.791784
1759356249,0.662595,-1.535132,-9.556905,-0.012108,-0.001132,0.007424,126.526428,76.122986,-587.541199,13.758722,100.791784
1759356250,0.629974,-1.480215,-9.646388,-0.004793,-0.014739,-0.008183,126.982758,68.78186,-590.315979,13.758722,100.791784
1759356250,0.626832,-1.471536,-9.656563,0.015039,-0.014405,-0.02519,126.499405,77.785385,-587.712402,13.758722,100.791784
1759356250,0.71826,-1.508347,-9.532664,-0.004463,-0.008543,-0.008644,127.036316,69.027237,-590.199463,13.758722,100.791784
1759356250,0.716315,-1.540968,-9.519495,-0.028895,-0.005773,-0.005193,126.71933,72.341766,-589.307007,13.758722,100.791784
1759356250,0.694169,-1.512986,-9.624092,-0.031839,0.006266,-0.005379,126.453766,76.84346,-587.573547,13.758722,100.791784
1759356250,0.703746,-1.454926,-9.751733,-0.006831,-0.001037,-0.023068,127.185806,69.035507,-590.401245,13.758722,100.791784
1759356250,0.780061,-1.4657,-9.735572,0.014309,-0.019021,-0.022326,126.404846,76.775681,-587.826355,13.758722,100.791784
1759356250,0.843507,-1.529895,-9.633968,0.009245,-0.005788,-0.009585,127.173981,68.41304,-590.515137,13.758722,100.791784
1759356250,0.861015,-1.558176,-9.598055,0.003284,-0.000814,0.001562,126.713394,70.849197,-589.726013,13.758722,100.791784
1759356250,0.86281,-1.530942,-9.559,0.008809,-0.004941,-0.00195,126.568985,76.235565,-587.478394,13.758722,100.791784
1759356250,0.874931,-1.568801,-9.490316,-0.003467,0.002356,0.009917,126.962296,68.835632,-590.206909,13.758722,100.791784
1759356250,0.855777,-1.571943,-9.449016,-0.025736,0.019166,0.028122,126.471161,77.58876,-587.310242,13.758722,100.791784
1759356250,0.784251,-1.583465,-9.539697,-0.034207,0.016823,0.036106,127.042389,68.292831,-590.52356,13.758722,100.791784
1759356250,0.744896,-1.49458,-9.72001,-0.019686,0.015932,0.039498,127.051071,70.034027,-589.981873,13.758722,100.791784
1759356250,0.63581,-1.470638,-9.75697,0.000593,0.003813,0.020012,126.530304,77.308929,-587.092773,13.758722,100.791784
1759356250,0.584784,-1.462259,-9.729587,0.008934,-0.004496,-0.003922,127.212509,68.33046,-590.312195,13.758722,100.791784
1759356250,0.623989,-1.522263,-9.664794,0.012202,0.005041,-0.006376,126.684219,77.679382,-587.175049,13.758722,100.791784
1759356250,0.712874,-1.51972,-9.62484,0.013273,0.00845,0.00526,127.242081,68.394867,-590.485046,13.758722,100.791784
1759356250,0.719009,-1.520019,-9.612121,0.01346,0.012586,0.006343,126.960419,70.426971,-589.7146,13.758722,100.791784
1759356250,0.712724,-1.542315,-9.585336,0.008646,0.007896,0.002351,126.562943,77.5905,-587.407898,13.758722,100.791784
1759356250,0.759112,-1.510143,-9.597906,0.006509,-0.010146,0.011249,127.081772,68.321747,-590.610657,13.758722,100.791784
1759356250,0.742951,-1.553089,-9.594314,0.005586,-0.01282,0.016597,126.599533,77.546478,-587.358032,13.758722,100.791784
1759356250,0.719757,-1.530493,-9.562741,0.004237,-0.004453,0.013693,127.067459,69.633865,-589.90625,13.758722,100.791784
1759356250,0.734122,-1.543662,-9.559,-0.007093,-0.004488,0.009787,127.044647,68.977325,-590.028931,13.758722,100.791784
1759356250,0.764499,-1.542614,-9.564536,-0.009241,-0.017003,0.006763,126.475723,77.572601,-587.306519,13.758722,100.791784
1759356250,0.754622,-1.517625,-9.567529,-0.005278,-0.006044,0.007312,126.715958,72.044785,-589.259766,13.758722,100.791784
1759356250,0.726939,-1.525855,-9.556905,-0.011387,0.011525,0.004293,126.473343,79.719574,-586.742554,13.758722,100.791784
1759356250,0.764798,-1.513884,-9.531766,-0.024111,0.010757,0.000221,127.001877,68.628677,-590.211853,13.758722,100.791784
1759356250,0.764798,-1.502661,-9.588927,-0.018953,0.002839,-0.004094,127.05748,69.090881,-590.418884,13.758722,100.791784
1759356250,0.794276,-1.542315,-9.6003,-0.009677,-0.003094,0.006228,126.302444,77.322952,-587.717163,13.758722,100.791784
1759356250,0.804003,-1.555184,-9.565285,-0.022663,0.015886,0.017089,126.886932,68.348282,-590.551575,13.758722,100.791784
1759356250,0.730531,-1.586308,-9.664195,-0.031631,0.020445,0.012551,126.538757,77.137848,-587.681152,13.758722,100.791784
1759356250,0.739958,-1.505654,-9.74066,-0.016201,0.003343,0.003774,127.23616,68.378006,-590.342773,13.758722,100.791784
1759356250,0.728885,-1.557578,-9.710134,0.006951,-0.007544,-0.001298,127.161392,69.12851,-590.104492,13.758722,100.791784
1759356250,0.770783,-1.544559,-9.643695,0.001965,0.021139,0.015436,126.803131,76.904633,-587.440857,13.758722,100.791784
1759356250,0.773477,-1.564611,-9.644293,-0.005024,0.017427,0.023421,127.171646,68.951096,-590.223694,13.758722,100.791784
1759356250,0.802656,-1.487847,-9.703849,0.006451,-0.012342,0.012305,126.53038,77.140808,-587.593262,13.758722,100.791784
1759356250,0.742951,-1.537227,-9.620202,0.016891,-0.00751,0.001827,127.023911,68.787567,-590.213867,13.758722,100.791784
1759356250,0.786046,-1.582867,-9.506477,0.005763,0.012885,0.020836,127.091537,69.129776,-589.949097,13.758722,100.791784
1759356250,0.799663,-1.595286,-9.453655,-0.003498,0.014615,0.027549,126.813248,76.587921,-587.487488,13.758722,100.791784
1759356250,0.773477,-1.508048,-9.500043,-0.021671,0.004808,0.037606,126.98941,68.669647,-589.879028,13.758722,100.791784
1759356250,0.696713,-1.519121,-9.622446,-0.027381,-0.003108,0.028831,126.665115,77.524063,-587.516846,13.758722,100.791784
1759356250,0.663792,-1.480365,-9.698911,-0.011098,-0.000398,0.020572,127.198135,68.627365,-590.290405,13.758722,100.791784
1759356250,0.639551,-1.488146,-9.706243,-0.001489,0.01209,0.014406,127.118515,69.352142,-589.798706,13.758722,100.791784
1759356250,0.670676,-1.449091,-9.680057,-0.004098,-0.001458,0.002742,126.544617,77.466919,-587.064697,13.758722,100.791784
1759356250,0.688782,-1.493832,-9.67856,-0.002386,-0.017705,-0.016375,127.134735,68.547882,-590.3255,13.758722,100.791784
1759356250,0.773028,-1.532588,-9.602844,-0.007664,-0.021869,-0.019318,126.818054,76.818695,-587.572021,13.758722,100.791784
1759356250,0.778116,-1.565359,-9.613917,-0.012604,-0.007907,-0.010227,127.320801,68.5242,-590.395935,13.758722,100.791784
1759356250,0.771083,-1.518522,-9.577405,-0.000776,0.005452,-0.016992,127.088791,69.175186,-589.969971,13.758722,100.791784
1759356250,0.835427,-1.534384,-9.576507,0.005777,0.016911,-0.029255,126.742767,76.614853,-587.297119,13.758722,100.791784
1759356251,0.922516,-1.58541,-9.597457,-0.00116,0.028041,-0.017618,127.199982,68.246033,-590.226562,13.758722,100.791784
1759356251,0.911592,-1.570447,-9.669432,-0.007661,0.019106,-0.001671,126.721664,76.516235,-587.542908,13.758722,100.791784
1759356251,0.867449,-1.55264,-9.714174,0.012017,0.002423,0.005746,126.944702,68.417328,-590.210266,13.758722,100.791784
1759356251,0.827945,-1.554136,-9.6416,0.018755,0.008357,0.008311,126.945251,68.985657,-590.14447,13.758722,100.791784
1759356251,0.803404,-1.550096,-9.58788,0.006647,0.007999,0.009777,126.680756,75.651962,-587.967285,13.758722,100.791784
1759356251,0.733673,-1.511041,-9.660604,0.004371,0.01653,0.014935,127.084244,68.357941,-590.246826,13.758722,100.791784
1759356251,0.706439,-1.459116,-9.675119,0.025445,0.008201,0.009436,126.639877,76.691727,-587.739746,13.758722,100.791784
1759356251,0.678906,-1.47004,-9.598654,0.027971,0.012135,0.00456,126.863647,68.79567,-590.285278,13.758722,100.791784
1759356251,0.727837,-1.448642,-9.568128,0.016869,0.01443,-0.010153,127.027954,68.437866,-590.314087,13.758722,100.791784
1759356251,0.782754,-1.474529,-9.598803,0.009171,0.013353,-0.010477,126.821899,74.004501,-588.70105,13.758722,100.791784
1759356251,0.8673,-1.461211,-9.606136,0.014134,-0.001523,-0.000714,127.14151,68.136459,-590.308289,13.758722,100.791784
1759356251,0.818518,-1.512238,-9.56708,0.020201,-0.009221,0.002744,126.59642,76.242447,-587.392273,13.758722,100.791784
1759356251,0.832135,-1.526453,-9.403676,0.004475,-0.011596,0.003636,127.106384,68.71814,-590.656921,13.758722,100.791784
1759356251,0.799214,-1.551143,-9.384073,-0.022867,0.007364,0.001915,127.329956,68.684677,-590.269043,13.758722,100.791784
1759356251,0.836474,-1.518223,-9.469068,-0.032859,0.023464,0.009212,126.980301,71.8022,-589.341797,13.758722,100.791784
1759356251,0.80924,-1.497424,-9.636362,-0.037355,0.016785,0.020016,127.203354,68.400009,-590.202026,13.758722,100.791784
1759356251,0.753725,-1.499518,-9.752332,-0.027314,0.006889,0.011509,127.109711,69.776138,-589.850586,13.758722,100.791784
1759356251,0.773477,-1.492785,-9.779566,-0.008572,-0.002145,0.006481,126.64563,75.839508,-587.922302,13.758722,100.791784
1759356251,0.773028,-1.528099,-9.717466,0.012139,-0.006201,0.001056,127.035828,69.135147,-589.907715,13.758722,100.791784
1759356251,0.800711,-1.549348,-9.606435,0.010069,-0.008882,0.000856,127.237885,69.576202,-589.440369,13.758722,100.791784
1759356251,0.753276,-1.574786,-9.570073,0.009339,-0.002369,-0.00598,127.020966,69.833282,-589.622437,13.758722,100.791784
1759356251,0.802806,-1.593341,-9.530419,-0.000068,0.008047,-0.009502,126.810165,76.622162,-587.53949,13.758722,100.791784
1759356251,0.874632,-1.561169,-9.603741,-0.003598,0.026766,0.004907,127.187286,69.965363,-589.335144,13.758722,100.791784
1759356251,0.865953,-1.544559,-9.670629,0.00019,0.017434,0.009731,127.253693,69.058685,-590.357666,13.758722,100.791784
1759356251,0.911293,-1.492336,-9.681553,0.009874,0.009042,0.009501,127.212051,69.265762,-589.953979,13.758722,100.791784
1759356251,0.896479,-1.545756,-9.6,0.020069,-0.022867,0.01541,127.110825,68.340485,-590.174988,13.758722,100.791784
1759356251,0.879719,-1.587056,-9.52982,0.01405,0.002944,0.038735,126.897614,76.380829,-587.571594,13.758722,100.791784
1759356251,0.799514,-1.550694,-9.535507,0.000241,0.000641,0.048624,127.45134,68.190292,-590.412354,13.758722,100.791784
1759356251,0.753425,-1.480814,-9.585336,-0.003138,-0.002592,0.037912,127.136047,68.131027,-590.246643,13.758722,100.791784
1759356251,0.72245,-1.489493,-9.592219,-0.000453,-0.001351,0.032044,127.441757,69.088303,-589.877441,13.758722,100.791784
1759356251,0.738013,-1.513285,-9.651177,-0.005597,0.019241,0.035622,127.420425,68.571259,-590.408447,13.758722,100.791784
1759356251,0.759112,-1.45343,-9.702353,-0.001508,-0.007069,0.034248,127.058853,75.522308,-588.042908,13.758722,100.791784
1759356251,0.707936,-1.509245,-9.651027,0.007959,-0.020356,0.014599,127.493484,67.887985,-590.227112,13.758722,100.791784
1759356251,0.78455,-1.534683,-9.52159,0.007638,-0.02571,0.003779,127.224487,67.989426,-590.344666,13.758722,100.791784
1759356251,0.763601,-1.616385,-9.467422,-0.008325,-0.004919,0.007935,127.462509,68.787262,-589.996399,13.758722,100.791784
1759356251,0.828394,-1.606509,-9.479093,-0.020587,0.01498,0.009208,127.377167,67.96521,-590.278442,13.758722,100.791784
1759356251,0.851139,-1.617134,-9.492561,-0.022749,0.002343,0.00733,126.785507,75.858017,-587.584412,13.758722,100.791784
1759356251,0.861164,-1.666065,-9.589227,-0.019336,0.007974,0.028966,127.402512,67.75444,-590.441528,13.758722,100.791784
1759356251,0.848445,-1.659481,-9.631724,-0.013107,0.008822,0.043634,127.431107,67.873596,-590.593628,13.758722,100.791784
1759356251,0.770933,-1.63524,-9.651625,-0.007479,-0.011612,0.051392,127.337631,69.015167,-589.64502,13.758722,100.791784
1759356251,0.669479,-1.581071,-9.673473,0.001996,-0.023918,0.035681,127.321564,70.981918,-589.490173,13.758722,100.791784
1759356251,0.587028,-1.567604,-9.606585,-0.001443,-0.011604,0.020761,127.012894,75.484512,-587.835022,13.758722,100.791784
1759356251,0.556652,-1.559673,-9.581296,-0.005963,-0.002096,0.009983,127.449051,67.957458,-590.444153,13.758722,100.791784
1759356251,0.610521,-1.536479,-9.604639,-0.013093,-0.009165,0.005079,127.188065,67.791138,-590.405762,13.758722,100.791784
1759356251,0.594361,-1.496526,-9.678261,-0.004356,-0.014052,-0.003793,127.103867,69.63353,-589.720093,13.758722,100.791784
1759356251,0.602142,-1.518223,-9.725995,0.012574,-0.037914,-0.024862,127.408661,69.052002,-589.767639,13.758722,100.791784
1759356251,0.639252,-1.511789,-9.654469,0.023794,-0.017748,-0.037416,126.736572,75.979477,-587.367126,13.758722,100.791784
1759356251,0.729184,-1.588403,-9.563788,0.005316,-0.022559,-0.031826,127.332367,68.161331,-590.525452,13.758722,100.791784
1759356251,0.774973,-1.579425,-9.457545,-0.012908,-0.025408,-0.032035,127.252441,68.25972,-590.448792,13.758722,100.791784
1759356251,0.821211,-1.628207,-9.520393,-0.018603,-0.000996,-0.01764,127.327148,68.886749,-589.735352,13.758722,100.791784
1759356252,0.852186,-1.563264,-9.580398,-0.014481,-0.005773,-0.011957,127.313065,68.690414,-590.098816,13.758722,100.791784
1759356252,0.802656,-1.589451,-9.626037,-0.013532,-0.016215,-0.011518,126.896561,75.888779,-587.443359,13.758722,100.791784
1759356252,0.758812,-1.542165,-9.665991,0.001385,-0.025013,-0.020852,127.244019,68.08873,-590.207825,13.758722,100.791784
1759356252,0.747889,-1.592892,-9.620202,-0.005794,0.016137,-0.01385,127.367874,67.972916,-589.977844,13.758722,100.791784
1759356252,0.778415,-1.576283,-9.692925,-0.000762,0.00001,-0.008818,127.526535,69.116852,-589.716492,13.758722,100.791784
1759356252,0.787243,-1.538723,-9.649231,0.002083,-0.022137,-0.007241,127.238297,69.437439,-590.184509,13.758722,100.791784
1759356252,0.687585,-1.558027,-9.616461,0.009333,-0.00856,-0.018496,126.768799,76.500687,-587.529114,13.758722,100.791784
1759356252,0.699855,-1.567155,-9.518747,-0.009462,0.025021,-0.016014,127.48761,68.633743,-590.528076,13.758722,100.791784
1759356252,0.748038,-1.5483,-9.566033,-0.020976,0.016041,-0.007015,127.016022,74.706528,-587.893921,13.758722,100.791784
1759356252,0.708684,-1.487398,-9.671527,-0.006777,-0.007772,-0.024233,127.215698,69.408234,-589.92981,13.758722,100.791784
1759356252,0.700005,-1.504157,-9.645341,0.005865,-0.008779,-0.033197,127.310837,68.395691,-590.472534,13.758722,100.791784
1759356252,0.760758,-1.549348,-9.564985,-0.002035,-0.002576,-0.015154,126.993713,76.436935,-587.618286,13.758722,100.791784
1759356252,0.746692,-1.585859,-9.55885,-0.009751,0.00512,-0.002211,127.266281,68.614151,-590.221008,13.758722,100.791784
1759356252,0.73068,-1.522563,-9.610475,-0.011137,0.002581,-0.000945,127.007736,76.574661,-587.557617,13.758722,100.791784
1759356252,0.707487,-1.524209,-9.642946,-0.006714,-0.008816,-0.006591,127.231628,69.128464,-589.836426,13.758722,100.791784
1759356252,0.6605,-1.503409,-9.683498,0.000361,0.007511,-0.014509,127.321854,68.082382,-590.261841,13.758722,100.791784
1759356252,0.71018,-1.483956,-9.716269,0.012879,0.004061,-0.017728,126.6689,76.881073,-587.196594,13.758722,100.791784
1759356252,0.783652,-1.463456,-9.685743,0.017701,-0.010479,-0.019778,127.176697,68.059677,-590.404114,13.758722,100.791784
1759356252,0.79712,-1.5073,-9.58354,0.018471,-0.016158,-0.023004,126.65802,76.93132,-587.603638,13.758722,100.791784
1759356252,0.869095,-1.527052,-9.44348,-0.005041,0.001386,-0.005123,126.963272,69.782974,-589.99646,13.758722,100.791784
1759356252,0.837971,-1.550246,-9.475502,-0.020035,0.021394,0.005888,127.362198,68.160294,-590.613159,13.758722,100.791784
1759356252,0.835876,-1.511938,-9.51336,-0.024143,0.005429,-0.000606,126.831894,76.064346,-587.666626,13.758722,100.791784
1759356252,0.827197,-1.495777,-9.565584,-0.022624,-0.001392,0.000184,127.268753,68.257843,-590.354614,13.758722,100.791784
1759356252,0.806397,-1.518073,-9.610625,-0.019453,0.008627,0.008439,126.629318,76.595016,-587.809387,13.758722,100.791784
1759356252,0.820164,-1.521366,-9.595661,-0.017307,0.013134,0.013145,127.264252,68.945572,-590.452698,13.758722,100.791784
1759356252,0.790835,-1.54022,-9.632771,-0.017704,0.00862,0.020307,127.317871,68.47319,-590.355469,13.758722,100.791784
1759356252,0.722301,-1.514482,-9.620052,-0.01677,0.009587,0.010045,126.848877,77.393494,-587.550842,13.758722,100.791784
1759356252,0.702249,-1.526603,-9.662848,-0.016104,0.024467,0.006173,127.379791,68.289764,-590.688477,13.758722,100.791784
1759356252,0.719607,-1.492037,-9.737069,-0.009465,0.018404,0.003638,126.518967,77.239349,-587.484375,13.758722,100.791784
1759356252,0.751779,-1.466449,-9.80261,0.003634,0.01267,-0.001607,127.239563,68.665451,-590.082275,13.758722,100.791784
1759356252,0.779612,-1.49054,-9.793482,0.030231,-0.005102,-0.006396,127.147629,68.320282,-590.390991,13.758722,100.791784
1759356252,0.848296,-1.547851,-9.671378,0.036689,-0.011168,0.001003,126.605392,76.246796,-587.570679,13.758722,100.791784
1759356252,0.886902,-1.574337,-9.519196,0.02362,0.002358,0.015992,127.287491,68.413055,-590.63385,13.758722,100.791784
1759356252,0.907253,-1.568801,-9.44318,-0.008374,0.006935,0.041638,126.68486,77.243149,-587.458679,13.758722,100.791784
1759356252,0.830938,-1.555932,-9.475652,-0.016653,-0.007257,0.044741,127.238739,68.255325,-590.442017,13.758722,100.791784
1759356252,0.761805,-1.469591,-9.588628,-0.009655,0.012797,0.028543,127.370178,68.754272,-590.168457,13.758722,100.791784
1759356252,0.724246,-1.441609,-9.654169,0.008035,0.015381,0.02252,126.604599,79.57048,-586.646851,13.758722,100.791784
1759356252,0.725144,-1.463605,-9.654169,0.008166,0.00948,0.021821,127.375534,68.506302,-590.535156,13.758722,100.791784
1759356252,0.709731,-1.488894,-9.556755,0.002319,-0.018475,0.006335,126.819092,76.339066,-587.430298,13.758722,100.791784
1759356252,0.714071,-1.529147,-9.542689,-0.010501,-0.003872,0.000826,127.367386,68.315247,-590.176941,13.758722,100.791784
1759356252,0.766145,-1.517325,-9.561993,-0.010791,0.016496,-0.001648,127.30899,69.271851,-589.519592,13.758722,100.791784
1759356252,0.760458,-1.501015,-9.57127,-0.009114,0.014691,0.002691,126.768997,77.845337,-586.992859,13.758722,100.791784
1759356252,0.749535,-1.529147,-9.541193,-0.008376,0.000235,-0.012392,127.343597,69.059479,-590.097351,13.758722,100.791784
1759356252,0.753126,-1.541567,-9.551219,-0.018714,0.006441,-0.00814,126.825745,76.706848,-587.741272,13.758722,100.791784
1759356252,0.789189,-1.546804,-9.694272,-0.03208,0.03212,-0.011252,127.243256,69.310898,-590.041504,13.758722,100.791784
1759356252,0.829142,-1.49069,-9.76969,-0.006004,0.004201,-0.014843,127.459457,68.534485,-590.330383,13.758722,100.791784
1759356252,0.858321,-1.565359,-9.659556,0.014994,-0.022505,-0.013059,126.872009,76.593369,-587.946106,13.758722,100.791784
1759356252,0.859818,-1.602918,-9.539697,0.009635,-0.017118,0.003159,127.53006,68.068298,-590.387817,13.758722,100.791784
1759356252,0.825401,-1.607706,-9.578004,-0.007942,0.008771,0.025917,126.718872,76.137253,-587.499329,13.758722,100.791784
1759356252,0.794276,-1.514931,-9.643246,-0.011407,-0.000876,0.031664,127.530243,68.394989,-590.386902,13.758722,100.791784
1759356253,0.753725,-1.483507,-9.706542,-0.001778,-0.010796,0.022387,127.106415,70.429291,-589.437378,13.758722,100.791784
1759356253,0.757316,-1.461361,-9.759065,0.015504,-0.009798,0.013856,126.900803,76.013504,-587.591675,13.758722,100.791784
1759356253,0.777667,-1.464054,-9.693524,0.025345,-0.001158,0.016016,127.567642,67.831573,-590.360962,13.758722,100.791784
1759356253,0.799065,-1.471387,-9.613767,0.02609,0.0031,0.007104,126.784363,77.588776,-587.224792,13.758722,100.791784
1759356253,0.861464,-1.481113,-9.560347,0.023544,0.000285,-0.003451,127.261215,69.041229,-590.36853,13.758722,100.791784
1759356253,0.938677,-1.546355,-9.515754,0.011158,-0.00572,0.013104,127.140411,71.402847,-589.303467,13.758722,100.791784
1759356253,0.905607,-1.530344,-9.528773,0.001006,-0.004769,0.028135,126.813416,74.465378,-587.758484,13.758722,100.791784
1759356253,0.87553,-1.523161,-9.48044,-0.002023,0.001374,0.024334,127.40683,68.262558,-590.083618,13.758722,100.791784
1759356253,0.861314,-1.541567,-9.442731,-0.01639,0.004759,0.023809,126.880142,76.90889,-587.132812,13.758722,100.791784
1759356253,0.860715,-1.548899,-9.493159,-0.023273,0.004049,0.032119,127.393433,68.340897,-590.013916,13.758722,100.791784
1759356253,0.786495,-1.573739,-9.605537,-0.020856,0.02471,0.03917,127.087097,71.12352,-589.276611,13.758722,100.791784
1759356253,0.741903,-1.547702,-9.635315,-0.027208,0.021543,0.043434,126.834274,75.054489,-587.413452,13.758722,100.791784
1759356253,0.699705,-1.566107,-9.735273,-0.033247,0.003542,0.035112,127.485001,67.965332,-589.921021,13.758722,100.791784
1759356253,0.651522,-1.52361,-9.790639,-0.025581,-0.010995,0.020693,126.911957,76.342255,-587.20282,13.758722,100.791784
1759356253,0.654814,-1.549647,-9.747992,-0.007088,-0.003245,0.008251,127.43309,67.612503,-590.354248,13.758722,100.791784
1759356253,0.706589,-1.568202,-9.649979,0.002397,-0.012527,0.005738,127.333603,70.074615,-589.89917,13.758722,100.791784
1759356253,0.723199,-1.630002,-9.541941,-0.012209,-0.029815,-0.002834,127.00032,75.725662,-587.45752,13.758722,100.791784
1759356253,0.726491,-1.597082,-9.581146,-0.016874,-0.008382,0.003196,127.326691,67.925262,-590.266907,13.758722,100.791784
1759356253,0.778564,-1.548749,-9.635614,0.005726,0.007054,-0.001492,126.956635,76.856598,-587.310608,13.758722,100.791784
1759356253,0.776769,-1.561019,-9.632771,0.021355,0.000854,-0.008376,127.630157,69.3815,-590.107544,13.758722,100.791784
1759356253,0.811934,-1.533187,-9.611971,0.019552,0.003209,-0.00734,127.480316,69.247284,-589.803101,13.758722,100.791784
1759356253,0.789638,-1.547552,-9.606585,0.020058,-0.004308,-0.012019,126.796555,76.47963,-587.428223,13.758722,100.791784
1759356253,0.776021,-1.547702,-9.584887,0.017696,-0.003816,-0.013514,127.333313,68.580078,-590.032349,13.758722,100.791784
1759356253,0.779013,-1.551592,-9.546281,0.016491,0.000625,-0.018265,126.721909,77.272522,-587.328674,13.758722,100.791784
1759356253,0.782006,-1.556231,-9.549872,0.012748,0.00836,-0.019867,127.407913,67.751511,-590.349243,13.758722,100.791784
1759356253,0.828394,-1.561917,-9.532215,0.004031,0.00789,-0.016558,127.18071,69.620087,-589.792664,13.758722,100.791784
1759356253,0.806098,-1.571793,-9.646238,-0.003493,0.021853,-0.007971,126.939789,77.434067,-586.992432,13.758722,100.791784
1759356253,0.821959,-1.525106,-9.710433,0.007962,0.00365,-0.006568,127.092957,68.863831,-590.195984,13.758722,100.791784
1759356253,0.789937,-1.534085,-9.651177,0.017575,-0.006039,-0.015208,126.72963,77.354752,-587.399109,13.758722,100.791784
1759356253,0.818817,-1.535282,-9.537003,0.023145,-0.002765,-0.027569,127.083603,67.89035,-590.538574,13.758722,100.791784
1759356253,0.877475,-1.60217,-9.478345,0.003804,0.005916,-0.01231,127.211426,68.623749,-590.723633,13.758722,100.791784
1759356253,0.908001,-1.572392,-9.545981,-0.009503,0.016361,-0.00066,126.657822,75.834351,-587.910767,13.758722,100.791784
1759356253,0.884358,-1.540669,-9.603292,-0.001888,0.0073,-0.000554,127.067657,67.823318,-590.616089,13.758722,100.791784
1759356253,0.866701,-1.573589,-9.552116,0.010903,-0.007339,0.001932,126.616287,76.402451,-587.858887,13.758722,100.791784
1759356253,0.819266,-1.638831,-9.513211,-0.00859,-0.006553,0.01312,126.431015,76.916412,-587.236267,13.758722,100.791784
1759356253,0.813131,-1.559074,-9.615563,-0.019884,0.011485,0.025228,127.116257,69.422104,-589.766724,13.758722,100.791784
1759356253,0.742203,-1.561468,-9.678859,-0.005874,0.009986,0.017199,126.650497,77.022385,-587.365906,13.758722,100.791784
1759356253,0.730381,-1.493234,-9.716419,0.004752,-0.001394,0.003271,127.173904,67.863464,-590.325928,13.758722,100.791784
1759356253,0.746841,-1.534384,-9.692177,0.009575,-0.022775,-0.005933,126.649628,77.306808,-587.312561,13.758722,100.791784
1759356253,0.763002,-1.559673,-9.640702,0.01067,-0.008213,-0.004667,126.836929,68.056885,-590.52002,13.758722,100.791784
1759356253,0.777966,-1.54845,-9.557952,0.006675,-0.00594,-0.002675,127.186188,68.404953,-590.248779,13.758722,100.791784
1759356253,0.787094,-1.58541,-9.524433,-0.004741,-0.004066,-0.003371,126.516998,76.912186,-587.768799,13.758722,100.791784
1759356253,0.88346,-1.54426,-9.559598,-0.010029,0.006532,0.00647,127.243713,68.988464,-590.049316,13.758722,100.791784
1759356253,0.843358,-1.560421,-9.672874,-0.001935,0.012408,0.007546,127.165802,67.787048,-590.417847,13.758722,100.791784
1759356253,0.906355,-1.510442,-9.6826,0.020225,-0.016425,-0.001379,126.674713,77.600937,-586.981506,13.758722,100.791784
1759356253,0.904709,-1.59364,-9.566482,0.019261,-0.006803,0.001679,127.278732,68.478943,-590.290833,13.758722,100.791784
1759356253,0.938976,-1.616385,-9.458443,0.002842,0.020951,0.025129,127.054642,70.239319,-589.039429,13.758722,100.791784
1759356253,0.94137,-1.657386,-9.460837,-0.015735,0.013778,0.044306,127.244461,69.260132,-590.046631,13.758722,100.791784
1759356253,0.874183,-1.604265,-9.517251,-0.022316,0.000671,0.040026,127.254883,67.740341,-590.671997,13.758722,100.791784
1759356253,0.777367,-1.616535,-9.614216,-0.014486,0.003119,0.035103,126.766922,77.701233,-586.995483,13.758722,100.791784
1759356254,0.727089,-1.565958,-9.662699,-0.006988,0.014019,0.031075,127.159164,68.473114,-590.723755,13.758722,100.791784
1759356254,0.682647,-1.574337,-9.667786,0.007189,-0.00043,0.020998,126.67662,76.757477,-587.674377,13.758722,100.791784
1759356254,0.638354,-1.558625,-9.688287,0.023694,-0.004475,0.012343,127.07959,68.677963,-589.928894,13.758722,100.791784
1759356254,0.613813,-1.570596,-9.605986,0.029731,-0.013571,0.000154,127.157059,68.737747,-590.013794,13.758722,100.791784
1759356254,0.634613,-1.573439,-9.478794,0.007988,-0.012933,-0.001141,126.83847,76.44014,-587.409607,13.758722,100.791784
1759356254,0.638504,-1.597381,-9.466224,-0.014677,-0.006759,-0.003849,127.16629,68.102966,-590.224854,13.758722,100.791784
1759356254,0.694767,-1.526603,-9.56319,-0.016086,-0.029367,-0.001399,126.479828,77.112183,-587.08313,13.758722,100.791784
1759356254,0.658106,-1.519869,-9.647136,-0.006679,-0.0341,-0.007064,126.933182,69.487686,-590.231079,13.758722,100.791784
1759356254,0.647033,-1.50311,-9.632472,-0.006422,-0.028802,-0.024624,126.861893,68.673492,-590.046143,13.758722,100.791784
1759356254,0.723947,-1.51134,-9.610475,-0.004308,-0.048223,-0.030005,126.327759,76.905624,-587.597717,13.758722,100.791784
1759356254,0.781258,-1.564162,-9.546131,-0.006198,-0.044586,-0.0263,127.108124,68.928329,-590.141785,13.758722,100.791784
1759356254,0.800112,-1.599327,-9.528623,-0.022445,-0.008684,-0.017339,126.362701,78.073761,-587.768188,13.758722,100.791784
1759356254,0.854281,-1.583465,-9.605387,-0.02984,-0.006246,-0.010574,126.873047,70.006027,-590.389099,13.758722,100.791784
1759356254,0.862362,-1.55264,-9.735423,-0.006369,-0.019494,-0.017331,126.805557,68.673416,-590.32489,13.758722,100.791784
1759356254,0.85877,-1.536778,-9.724649,0.010557,-0.020029,-0.014806,126.424698,77.01416,-587.623535,13.758722,100.791784
1759356254,0.90845,-1.607258,-9.647735,0.008635,-0.011605,0.007371,126.652924,68.657578,-590.516541,13.758722,100.791784
1759356254,0.91653,-1.560571,-9.660753,0.016277,-0.012148,0.02569,126.233337,78.243103,-587.131531,13.758722,100.791784
1759356254,0.840215,-1.564611,-9.573365,0.008924,-0.026787,0.020885,126.777771,68.209473,-590.636719,13.758722,100.791784
1759356254,0.767491,-1.578078,-9.453056,-0.008871,-0.014819,0.024454,126.743469,70.202744,-589.903015,13.758722,100.791784
1759356254,0.752228,-1.591994,-9.474604,-0.028891,-0.000502,0.041983,126.316895,76.836685,-587.63446,13.758722,100.791784
1759356254,0.67292,-1.538574,-9.602694,-0.02693,0.009933,0.043085,126.968002,67.944168,-590.333435,13.758722,100.791784
1759356254,0.589871,-1.458967,-9.713725,-0.017272,-0.001314,0.022446,126.415237,76.259186,-587.784607,13.758722,100.791784
1759356254,0.568473,-1.462259,-9.74904,0.003731,-0.028031,0.006857,127.064255,68.040985,-590.285034,13.758722,100.791784
1759356254,0.611868,-1.481113,-9.676914,0.021276,-0.026908,-0.00077,126.919769,70.189713,-589.623962,13.758722,100.791784
1759356254,0.608127,-1.547851,-9.541941,0.008207,0.003515,-0.000585,126.469269,74.402435,-588.297546,13.758722,100.791784
1759356254,0.657358,-1.576731,-9.436447,-0.013327,-0.003599,-0.008727,126.947113,68.016556,-590.503296,13.758722,100.791784
1759356254,0.717213,-1.596633,-9.4556,-0.037923,-0.017163,-0.003858,126.611191,76.036865,-587.907043,13.758722,100.791784
1759356254,0.719458,-1.59379,-9.511116,-0.047996,0.005953,0.005474,127.075897,68.235748,-590.735718,13.758722,100.791784
1759356254,0.676512,-1.576881,-9.670629,-0.033056,0.014784,-0.002517,126.741272,70.994461,-589.241028,13.758722,100.791784
1759356254,0.71422,-1.515829,-9.717167,-0.003243,-0.007272,-0.017699,126.286728,75.992233,-587.725342,13.758722,100.791784
1759356254,0.767791,-1.563563,-9.649082,0.004671,-0.017707,-0.016491,127.086075,68.437958,-590.636719,13.758722,100.791784
1759356254,0.794127,-1.61444,-9.525331,-0.008931,-0.008111,0.005476,126.41861,77.52562,-587.501038,13.758722,100.791784
1759356254,0.733075,-1.628656,-9.518897,-0.015137,-0.003726,0.012312,126.988617,68.298477,-590.448914,13.758722,100.791784
1759356254,0.665887,-1.581221,-9.590573,-0.026025,0.006617,0.001214,126.626663,71.680878,-589.745483,13.758722,100.791784
1759356254,0.674716,-1.537077,-9.701006,-0.024892,0.006791,-0.001754,126.615952,75.718231,-587.834778,13.758722,100.791784
1759356254,0.666037,-1.50715,-9.796774,-0.017498,-0.001566,-0.003343,127.062485,68.562897,-590.531067,13.758722,100.791784
1759356254,0.688483,-1.50281,-9.834333,0.004374,-0.008393,-0.00785,126.412811,77.299545,-587.563965,13.758722,100.791784
1759356254,0.691625,-1.490839,-9.749339,0.030687,-0.017713,-0.014609,127.017426,68.141861,-590.421997,13.758722,100.791784
1759356254,0.703297,-1.554286,-9.573066,0.033858,-0.021815,-0.018322,126.836746,70.90625,-589.530151,13.758722,100.791784
1759356254,0.768838,-1.562665,-9.46383,0.015109,-0.005162,-0.019281,126.654053,76.069351,-587.517151,13.758722,100.791784
1759356254,0.835576,-1.577929,-9.472958,-0.010346,0.006542,-0.012277,126.8396,68.340042,-590.44519,13.758722,100.791784
1759356254,0.877325,-1.553388,-9.580996,-0.015332,0.007653,0.011715,126.207993,77.542877,-587.181641,13.758722,100.791784
1759356254,0.821062,-1.51972,-9.668983,-0.005441,0.003893,0.025343,127.159042,68.063675,-590.476746,13.758722,100.791784
1759356254,0.755221,-1.492336,-9.659856,0.004969,-0.006177,0.022177,126.866409,70.617661,-589.606567,13.758722,100.791784
1759356254,0.726491,-1.510592,-9.620202,0.007025,0.002128,0.023228,126.569839,77.286331,-587.190796,13.758722,100.791784
1759356254,0.709731,-1.507898,-9.562142,0.001347,-0.001092,0.016427,126.907791,69.842575,-590.179565,13.758722,100.791784
1759356254,0.705242,-1.53618,-9.531915,-0.008444,0.0011,0.010227,126.331894,78.035141,-587.616272,13.758722,100.791784
1759356254,0.692373,-1.546654,-9.548824,-0.016289,0.00785,0.010135,127.048813,68.950882,-590.296753,13.758722,100.791784
1759356254,0.708384,-1.554884,-9.602844,-0.011315,0.014535,0.002116,127.155273,68.962051,-590.143921,13.758722,100.791784
1759356254,0.718111,-1.578976,-9.558102,-0.001454,0.001677,0.006389,126.502213,76.843597,-587.693359,13.758722,100.791784
1759356255,0.678607,-1.586608,-9.55062,-0.00702,0.016488,0.01376,127.046509,68.130768,-590.534851,13.758722,100.791784
1759356255,0.651821,-1.5486,-9.586533,-0.019111,0.025554,0.004167,126.498993,77.57869,-587.399841,13.758722,100.791784
1759356255,0.648978,-1.527052,-9.688736,-0.019252,0.010223,-0.007813,127.256943,68.160782,-590.809326,13.758722,100.791784
1759356255,0.673818,-1.527052,-9.671228,-0.008655,-0.009613,-0.011842,126.902481,70.099976,-589.946045,13.758722,100.791784
1759356255,0.628628,-1.54845,-9.653421,-0.006877,-0.003568,-0.009479,126.611618,76.783783,-587.380554,13.758722,100.791784
1759356255,0.697461,-1.499219,-9.7034,-0.00671,0.013162,-0.018489,126.966736,69.044647,-590.339722,13.758722,100.791784
1759356255,0.764947,-1.513285,-9.652972,0.008984,-0.031861,-0.020491,126.407166,77.70163,-587.413574,13.758722,100.791784
1759356255,0.742502,-1.576283,-9.537751,0.012517,-0.03663,-0.015245,127.094971,68.075516,-590.418091,13.758722,100.791784
1759356255,0.735618,-1.582268,-9.524284,-0.002481,0.000859,0.002932,126.98085,68.605255,-590.343384,13.758722,100.791784
1759356255,0.722301,-1.517924,-9.589825,-0.012716,0.002223,0.003392,126.671829,76.244888,-587.526062,13.758722,100.791784
1759356255,0.746841,-1.4657,-9.642946,-0.007382,-0.007175,-0.003855,127.354202,68.292465,-590.42981,13.758722,100.791784
1759356255,0.733823,-1.465401,-9.654469,-0.001193,-0.004071,-0.002664,126.470795,76.02533,-588.318481,13.758722,100.791784
1759356255,0.73487,-1.443105,-9.612121,-0.001065,-0.014436,-0.003815,126.870255,69.983841,-590.076599,13.758722,100.791784
1759356255,0.741305,-1.468693,-9.607183,-0.002344,-0.010562,-0.010502,126.975113,69.133667,-589.979614,13.758722,100.791784
1759356255,0.770484,-1.447594,-9.542989,-0.001171,-0.007098,-0.01403,126.571213,75.979813,-587.750793,13.758722,100.791784
1759356255,0.840664,-1.529446,-9.519795,-0.007268,0.007698,-0.011105,126.98407,68.459885,-590.320374,13.758722,100.791784
1759356255,0.818967,-1.507,-9.556755,-0.02379,0.003631,0.013811,126.588348,75.787033,-588.314087,13.758722,100.791784
1759356255,0.782904,-1.489942,-9.642797,-0.025298,-0.002636,0.012631,127.074036,68.583588,-590.353882,13.758722,100.791784
1759356255,0.767042,-1.497274,-9.626935,-0.015911,-0.013475,0.000754,127.096512,69.023422,-590.59198,13.758722,100.791784
1759356255,0.811485,-1.550994,-9.556007,-0.011417,-0.014963,-0.002885,126.368408,77.584335,-587.191772,13.758722,100.791784
1759356255,0.83408,-1.581819,-9.469666,-0.016966,0.003249,0.015492,127.035309,68.253967,-590.270569,13.758722,100.791784
1759356255,0.731129,-1.606659,-9.542989,-0.026029,0.014143,0.03182,126.812653,75.605087,-587.94751,13.758722,100.791784
1759356255,0.687136,-1.536778,-9.687838,-0.032356,0.019384,0.026937,127.260666,68.570969,-590.345032,13.758722,100.791784
1759356255,0.612616,-1.542315,-9.825205,-0.02481,0.008873,0.011092,127.232346,69.021057,-589.835938,13.758722,100.791784
1759356255,0.626832,-1.52346,-9.835081,0.002159,-0.003354,-0.006262,126.919342,75.882523,-587.733765,13.758722,100.791784
1759356255,0.680103,-1.563114,-9.796475,0.018031,-0.005571,-0.000585,127.043411,68.381149,-590.340332,13.758722,100.791784
1759356255,0.678457,-1.543811,-9.723302,0.027646,-0.016501,0.008498,126.649887,76.663055,-587.670654,13.758722,100.791784
1759356255,0.673668,-1.537227,-9.648782,0.030246,-0.009041,-0.002001,127.098007,68.711304,-590.267639,13.758722,100.791784
1759356255,0.698059,-1.526603,-9.579949,0.02227,-0.012196,-0.009742,126.969391,69.085236,-590.510193,13.758722,100.791784
1759356255,0.770783,-1.495628,-9.546729,0.015733,-0.017503,-0.009905,126.717148,75.495468,-587.967773,13.758722,100.791784
1759356255,0.764499,-1.515829,-9.601497,0.010354,0.009292,-0.001573,127.038879,68.536942,-590.399536,13.758722,100.791784
1759356255,0.778265,-1.49892,-9.574712,0.012212,-0.00914,-0.001259,126.841476,75.256836,-588.060181,13.758722,100.791784
1759356255,0.749235,-1.469741,-9.526229,0.002834,-0.013316,-0.004849,127.120804,69.137436,-590.284424,13.758722,100.791784
1759356255,0.770334,-1.464653,-9.494955,-0.005987,-0.003063,-0.01229,127.158112,68.111221,-590.723145,13.758722,100.791784
1759356255,0.785597,-1.496376,-9.537153,-0.011034,0.014709,-0.000895,126.588989,75.460754,-587.687866,13.758722,100.791784
1759356255,0.776918,-1.489942,-9.555408,-0.013634,-0.007692,-0.002876,126.919159,68.833405,-590.29303,13.758722,100.791784
1759356255,0.702399,-1.520468,-9.565584,-0.020202,0.003752,-0.017287,126.690582,75.526642,-587.961914,13.758722,100.791784
1759356255,0.748487,-1.53199,-9.555408,-0.027198,0.014126,-0.016185,126.91362,68.711578,-590.456726,13.758722,100.791784
1759356255,0.774524,-1.567304,-9.604639,-0.031204,0.023448,0.000284,127.064453,68.267426,-590.179321,13.758722,100.791784
1759356255,0.751779,-1.538275,-9.683648,-0.019135,0.009175,0.001088,126.593109,76.390259,-587.514832,13.758722,100.791784
1759356255,0.700005,-1.508646,-9.735722,-0.005813,0.01163,-0.009344,127.079361,68.352356,-590.537537,13.758722,100.791784
1759356255,0.698209,-1.529745,-9.708039,0.002024,0.004343,-0.014763,126.628372,75.232101,-588.130371,13.758722,100.791784
1759356255,0.731728,-1.552191,-9.64968,0.011807,0.000339,-0.005159,127.033966,68.299927,-590.338745,13.758722,100.791784
1759356255,0.726939,-1.540818,-9.652224,0.013762,0.002982,0.003051,126.913269,68.623428,-590.129456,13.758722,100.791784
1759356255,0.708085,-1.50281,-9.59626,0.009033,-0.009919,-0.004272,126.624756,75.332001,-587.950562,13.758722,100.791784
1759356255,0.721702,-1.504157,-9.552116,0.007777,-0.016272,-0.005146,127.02948,69.536591,-590.145935,13.758722,100.791784
1759356255,0.734122,-1.538723,-9.497948,-0.003434,0.0049,0.007843,126.451508,75.453918,-587.817261,13.758722,100.791784
1759356255,0.73098,-1.49877,-9.54254,-0.014215,0.012305,0.011256,127.185318,68.33989,-590.588013,13.758722,100.791784
1759356255,0.735469,-1.488296,-9.642647,-0.007377,-0.016043,0.00235,126.932816,68.288208,-590.442749,13.758722,100.791784
1759356255,0.689979,-1.449988,-9.649979,0.005085,-0.016032,-0.008405,126.565613,76.532654,-587.371582,13.758722,100.791784
1759356256,0.712125,-1.49907,-9.584887,0.003849,0.013386,-0.008369,126.982697,68.4935,-590.305603,13.758722,100.791784
1759356256,0.80505,-1.51119,-9.549273,-0.007883,0.002214,0.007405,126.489075,75.628494,-587.901367,13.758722,100.791784
1759356256,0.828543,-1.479317,-9.611523,-0.011893,-0.012756,0.011265,127.110962,68.052521,-590.662415,13.758722,100.791784
1759356256,0.752827,-1.468543,-9.609128,-0.01475,-0.012564,-0.001315,126.985718,68.387955,-589.908325,13.758722,100.791784
1759356256,0.810886,-1.517475,-9.565883,-0.021282,-0.005365,0.013268,126.848953,71.43454,-589.516235,13.758722,100.791784
1759356256,0.817021,-1.502212,-9.614665,-0.009379,-0.006588,0.017934,127.016876,68.315414,-590.483032,13.758722,100.791784
1759356256,0.728885,-1.481861,-9.589376,0.001651,-0.003074,0.004771,126.736221,75.317749,-588.109924,13.758722,100.791784
1759356256,0.770035,-1.522712,-9.484929,-0.016085,0.00902,0.00432,127.209961,68.101883,-590.299805,13.758722,100.791784
1759356256,0.769586,-1.57314,-9.519795,-0.039218,0.028,0.019299,127.095306,68.336365,-590.33374,13.758722,100.791784
1759356256,0.766444,-1.564461,-9.6621,-0.036632,0.016383,0.023541,127.269165,69.183746,-589.75647,13.758722,100.791784
1759356256,0.761206,-1.493982,-9.77343,-0.011606,-0.00183,0.016879,126.982941,68.750137,-589.992065,13.758722,100.791784
1759356256,0.716315,-1.525555,-9.797821,0.015243,-0.001198,0.010338,126.598114,75.449219,-587.821472,13.758722,100.791784
1759356256,0.749834,-1.542614,-9.718513,0.025307,0.003025,0.021077,127.020355,68.036377,-590.300659,13.758722,100.791784
1759356256,0.713173,-1.540519,-9.610774,0.017596,0.000445,0.025863,127.15477,68.367447,-590.407654,13.758722,100.791784
1759356256,0.670227,-1.561019,-9.57142,0.008557,0.000646,0.021278,126.85083,69.693573,-590.076477,13.758722,100.791784
1759356256,0.699257,-1.512387,-9.56289,0.004053,-0.005774,0.018094,127.259033,69.045242,-590.209595,13.758722,100.791784
1759356256,0.660351,-1.514333,-9.608231,0.00676,0.002258,0.01815,126.567856,75.08815,-588.319763,13.758722,100.791784
1759356256,0.694917,-1.489044,-9.603741,0.012862,-0.012524,0.014625,127.277527,68.578888,-590.622681,13.758722,100.791784
1759356256,0.642394,-1.477821,-9.598354,0.013429,-0.010981,0.008091,127.299103,68.100586,-590.63092,13.758722,100.791784
1759356256,0.661249,-1.474978,-9.518897,0.001087,-0.008013,0.00451,126.987091,69.837265,-589.754639,13.758722,100.791784
1759356256,0.688932,-1.502661,-9.537602,-0.015445,-0.002182,0.0045,126.915009,69.668015,-590.399536,13.758722,100.791784
1759356256,0.715268,-1.476025,-9.583391,-0.023137,-0.01468,0.007184,126.836716,75.326126,-588.216309,13.758722,100.791784
1759356256,0.711527,-1.499369,-9.648333,-0.016342,-0.026016,0.003002,127.17894,68.317139,-590.700684,13.758722,100.791784
1759356256,0.708384,-1.49877,-9.630227,-0.009167,-0.025968,0.004914,127.237076,67.975189,-590.47876,13.758722,100.791784
1759356256,0.714071,-1.5483,-9.647585,-0.009222,-0.006568,0.013627,126.973282,68.840378,-590.24762,13.758722,100.791784
1759356256,0.69776,-1.52765,-9.66629,0.002903,-0.017024,0.006062,127.092102,68.284821,-590.920959,13.758722,100.791784
1759356256,0.70614,-1.503708,-9.624391,0.005312,-0.007964,-0.003563,126.813583,75.942566,-587.892822,13.758722,100.791784
1759356256,0.701052,-1.553687,-9.569175,0.000035,-0.011231,-0.004947,127.236984,67.945984,-590.66333,13.758722,100.791784
1759356256,0.728885,-1.528398,-9.541492,-0.012388,-0.002177,0.003465,127.350159,67.933044,-590.669556,13.758722,100.791784
1759356256,0.670376,-1.541567,-9.614515,-0.009081,0.010825,0.004721,127.079086,69.026108,-589.876038,13.758722,100.791784
1759356256,0.698209,-1.497124,-9.599103,-0.009557,-0.009262,-0.00238,127.320709,68.26445,-590.622925,13.758722,100.791784
1759356256,0.680402,-1.489343,-9.593865,-0.007686,-0.022224,-0.009242,126.795563,76.912308,-587.40802,13.758722,100.791784
1759356256,0.674566,-1.511041,-9.534758,-0.011691,-0.016428,-0.008361,127.166275,68.091019,-590.462219,13.758722,100.791784
1759356256,0.642843,-1.515979,-9.570971,-0.030207,0.004274,0.007377,127.177948,68.419785,-590.491333,13.758722,100.791784
1759356256,0.630423,-1.451784,-9.660753,-0.028203,-0.01084,0.002376,127.328201,69.388565,-589.82373,13.758722,100.791784
1759356256,0.570867,-1.445649,-9.683049,-0.016623,-0.014892,-0.008075,127.325912,68.50647,-590.394287,13.758722,100.791784
1759356256,0.587028,-1.446098,-9.705345,-0.009131,0.002092,-0.018695,126.629517,77.486145,-587.432068,13.758722,100.791784
1759356256,0.629825,-1.456872,-9.745299,-0.000037,0.004971,-0.023884,127.126404,68.484161,-590.354187,13.758722,100.791784
1759356256,0.708384,-1.45343,-9.70774,0.004504,-0.005089,-0.017616,127.196884,68.481598,-590.33667,13.758722,100.791784
1759356256,0.697611,-1.472135,-9.696966,0.011426,-0.012349,-0.023144,127.103729,69.426468,-589.609497,13.758722,100.791784
1759356256,0.789787,-1.471985,-9.621249,0.006824,-0.015553,-0.021012,126.892944,68.437866,-590.185303,13.758722,100.791784
1759356256,0.808043,-1.530344,-9.6621,0.002952,0.000062,0.001509,126.645081,77.293579,-587.172974,13.758722,100.791784
1759356256,0.764798,-1.465251,-9.678411,0.018986,0.000821,0.007537,127.105011,68.380798,-590.056152,13.758722,100.791784
1759356256,0.719757,-1.490241,-9.573964,0.027681,-0.015608,-0.01049,127.171707,68.839172,-590.156677,13.758722,100.791784
1759356256,0.777816,-1.54845,-9.469965,0.01542,-0.000099,-0.019688,126.910721,69.253067,-590.092529,13.758722,100.791784
1759356256,0.849792,-1.577629,-9.508871,-0.002302,0.034672,0.00511,126.930069,68.705399,-590.315918,13.758722,100.791784
1759356256,0.810737,-1.549348,-9.621997,-0.011751,0.022329,0.031896,126.39003,77.299667,-587.438232,13.758722,100.791784
1759356256,0.682497,-1.502362,-9.695619,-0.007077,-0.011725,0.028692,126.947754,68.793961,-590.296143,13.758722,100.791784
1759356256,0.635062,-1.482909,-9.670031,0.002789,-0.004577,0.011305,126.390472,76.213699,-587.661133,13.758722,100.791784
1759356256,0.616657,-1.499668,-9.637859,0.015059,0.008077,0.005924,127.184341,69.641083,-589.867615,13.758722,100.791784
1759356257,0.650924,-1.49907,-9.561693,0.012313,-0.00018,0.005141,126.954117,69.677658,-589.768799,13.758722,100.791784
1759356257,0.648679,-1.518971,-9.539697,0.002787,-0.002539,0.003472,126.658707,77.749481,-587.332825,13.758722,100.791784
1759356257,0.639551,-1.512537,-9.590723,-0.011337,0.002355,0.004091,127.120255,69.264603,-590.273376,13.758722,100.791784
1759356257,0.694767,-1.497124,-9.63726,-0.007463,0.001359,-0.001058,126.392899,77.368912,-587.610229,13.758722,100.791784
1759356257,0.700603,-1.488296,-9.627833,0.005208,-0.00989,0.008033,127.286987,68.514664,-590.4953,13.758722,100.791784
1759356257,0.688632,-1.496376,-9.59611,0.008002,0.002558,0.006935,127.12059,68.57901,-590.600037,13.758722,100.791784
1759356257,0.708235,-1.498621,-9.606435,-0.00873,0.002965,0.00481,126.841034,77.234467,-587.548218,13.758722,100.791784
1759356257,0.747739,-1.487847,-9.64968,-0.009382,-0.011037,0.005049,127.086151,68.348114,-590.484985,13.758722,100.791784
1759356257,0.744746,-1.504905,-9.644293,0.003584,-0.002108,0.004133,126.892838,76.012329,-587.772217,13.758722,100.791784
1759356257,0.769736,-1.534833,-9.59596,0.004964,0.009476,0.013338,127.51593,68.4328,-590.389648,13.758722,100.791784
1759356257,0.815675,-1.512986,-9.597756,0.004608,0.00817,0.017435,127.391342,68.702118,-590.401245,13.758722,100.791784
1759356257,0.781707,-1.564312,-9.597307,0.005238,0.010271,0.02112,126.645401,77.45874,-587.489685,13.758722,100.791784
1759356257,0.737863,-1.575983,-9.60015,0.000492,0.018631,0.033083,127.323975,68.139877,-590.639771,13.758722,100.791784
1759356257,0.706439,-1.531541,-9.62918,-0.006073,0.022746,0.028289,126.663116,77.664764,-587.504211,13.758722,100.791784
1759356257,0.700603,-1.501763,-9.676914,-0.000508,0.016744,0.017027,127.2892,68.877716,-590.125671,13.758722,100.791784
1759356257,0.698957,-1.537377,-9.638906,0.01682,0.010886,0.006824,127.129852,70.024628,-589.79895,13.758722,100.791784
1759356257,0.713472,-1.566257,-9.586982,0.003357,0.018081,0.020834,126.833389,76.130783,-587.518311,13.758722,100.791784
1759356257,0.691176,-1.503708,-9.638158,-0.010813,-0.003054,0.02226,127.242325,68.160919,-590.439087,13.758722,100.791784
1759356257,0.682796,-1.478868,-9.614515,0.004671,-0.031699,0.009721,126.8423,77.143463,-587.60791,13.758722,100.791784
1759356257,0.660051,-1.553987,-9.521291,0.009142,-0.004064,0.017107,127.236725,69.461792,-589.82074,13.758722,100.791784
1759356257,0.654066,-1.549198,-9.491962,-0.011625,0.010045,0.028484,127.092255,70.549408,-589.37854,13.758722,100.791784
1759356257,0.60708,-1.492485,-9.683199,-0.02604,0.006558,0.026136,126.703568,76.608444,-587.419312,13.758722,100.791784
1759356257,0.60289,-1.423951,-9.729138,0.002072,-0.023126,0.003035,127.456406,68.428574,-590.135254,13.758722,100.791784
1759356257,0.600496,-1.515829,-9.639505,0.011919,-0.020408,-0.010364,126.884048,76.348434,-587.524902,13.758722,100.791784
1759356257,0.706888,-1.506252,-9.566931,0.000957,0.006668,-0.011573,127.202744,68.578934,-589.689331,13.758722,100.791784
1759356257,0.764199,-1.547103,-9.586234,-0.007665,0.00417,-0.00137,126.856888,70.956406,-588.992981,13.758722,100.791784
1759356257,0.779762,-1.515081,-9.638457,-0.010917,-0.008603,0.008946,126.6884,75.745102,-587.47998,13.758722,100.791784
1759356257,0.769137,-1.517176,-9.612869,0.004331,-0.019814,-0.005208,127.137207,68.864655,-590.03064,13.758722,100.791784
1759356257,0.796521,-1.564312,-9.54658,0.000385,0.003792,-0.001208,126.675903,76.060028,-587.096558,13.758722,100.791784
1759356257,0.834529,-1.557129,-9.556456,-0.012004,0.014307,0.014091,127.212494,68.181854,-590.37561,13.758722,100.791784
1759356257,0.805649,-1.513884,-9.636811,-0.009106,-0.006272,0.01556,126.903702,72.581238,-589.149048,13.758722,100.791784
1759356257,0.737115,-1.52765,-9.602694,0.004068,-0.013021,0.012607,126.535828,76.808517,-587.730164,13.758722,100.791784
1759356257,0.710928,-1.557129,-9.560945,-0.005342,0.004646,0.016345,127.058655,68.373703,-590.296997,13.758722,100.791784
1759356257,0.671125,-1.547552,-9.517999,-0.022787,0.014202,0.013338,126.605469,76.016006,-587.370728,13.758722,100.791784
1759356257,0.642843,-1.547702,-9.638906,-0.020805,-0.004006,0.010904,127.178833,69.271179,-589.904419,13.758722,100.791784
1759356257,0.646434,-1.473182,-9.682301,-0.008692,0.006728,0.006963,126.965088,72.38385,-589.284119,13.758722,100.791784
1759356257,0.621595,-1.526154,-9.715221,0.004049,-0.003581,0.002642,126.912445,77.65947,-587.288757,13.758722,100.791784
1759356257,0.629974,-1.474529,-9.657761,0.004722,-0.007092,-0.010574,127.055206,69.301682,-590.179749,13.758722,100.791784
1759356257,0.666037,-1.517325,-9.650578,0.003148,0.004937,-0.011961,126.628708,76.516815,-587.47113,13.758722,100.791784
1759356257,0.738761,-1.515679,-9.613019,0.00421,-0.002376,-0.006289,127.138763,68.085892,-590.311646,13.758722,100.791784
1759356257,0.773327,-1.520617,-9.574861,0.004826,-0.01057,-0.002957,127.067642,69.320282,-589.634094,13.758722,100.791784
1759356257,0.773626,-1.51523,-9.55047,0.001869,0.004304,0.004392,126.634201,76.46817,-587.88501,13.758722,100.791784
1759356257,0.815076,-1.545457,-9.524882,-0.006441,-0.004581,0.015448,127.317017,68.340103,-589.984497,13.758722,100.791784
1759356257,0.775721,-1.527052,-9.545832,-0.015638,-0.001235,0.020154,126.647385,78.405441,-586.345703,13.758722,100.791784
1759356257,0.702399,-1.518672,-9.609278,-0.01843,0.011954,0.015801,127.090927,69.027039,-589.813965,13.758722,100.791784
1759356257,0.709133,-1.494431,-9.646388,-0.018967,0.007577,0.010465,127.052185,69.105377,-589.974426,13.758722,100.791784
1759356257,0.71003,-1.471237,-9.702951,-0.009341,0.002691,0.005002,126.674622,75.204117,-588.076538,13.758722,100.791784
1759356257,0.708833,-1.500416,-9.714324,0.010853,0.00526,-0.006515,127.039398,68.313934,-590.5271,13.758722,100.791784
1759356257,0.713173,-1.504157,-9.679009,0.021352,0.013913,-0.011678,126.651825,75.911179,-587.719482,13.758722,100.791784
1759356257,0.759411,-1.580472,-9.566781,0.005782,0.000121,-0.012638,127.171783,68.005219,-590.255859,13.758722,100.791784
1759356258,0.784251,-1.598878,-9.537452,-0.007029,0.016143,0.001012,127.092712,69.319626,-589.785767,13.758722,100.791784
1759356258,0.805798,-1.607856,-9.573964,-0.014197,0.020891,0.0143,126.678802,75.435318,-587.830688,13.758722,100.791784
1759356258,0.743849,-1.545457,-9.626187,-0.006175,0.004653,0.007842,127.145676,68.093872,-589.958069,13.758722,100.791784
1759356258,0.683844,-1.530942,-9.618705,-0.004658,0.004593,-0.000202,126.931503,77.051743,-587.211853,13.758722,100.791784
1759356258,0.66484,-1.533935,-9.638457,-0.003446,0.02336,0.005429,127.111343,68.238083,-589.934021,13.758722,100.791784
1759356258,0.660201,-1.465551,-9.671228,0.009511,0.013865,-0.004763,127.369614,68.685699,-589.96521,13.758722,100.791784
1759356258,0.634763,-1.457171,-9.631275,0.015006,-0.003519,-0.028322,126.728043,76.329651,-587.376587,13.758722,100.791784
1759356258,0.70195,-1.526752,-9.514408,-0.00488,0.009359,-0.024691,127.168869,68.074554,-590.215271,13.758722,100.791784
1759356258,0.745495,-1.544859,-9.486575,-0.031456,0.010758,-0.01195,126.44754,78.637314,-587.011475,13.758722,100.791784
1759356258,0.746542,-1.545756,-9.572318,-0.041626,-0.001493,-0.008533,127.109009,68.866714,-589.90564,13.758722,100.791784
1759356258,0.750433,-1.486799,-9.674071,-0.031004,-0.007853,-0.01103,127.045593,68.831375,-589.822205,13.758722,100.791784
1759356258,0.760009,-1.473631,-9.771336,-0.007043,0.007365,-0.008741,126.90358,75.716873,-587.306396,13.758722,100.791784
1759356258,0.795174,-1.453729,-9.805603,0.027107,0.001235,0.003654,127.301498,68.404266,-590.032959,13.758722,100.791784
1759356258,0.774375,-1.475277,-9.704896,0.030931,-0.004372,0.002577,126.810028,77.556335,-587.147644,13.758722,100.791784
1759356258,0.797568,-1.465401,-9.581146,0.016976,-0.011349,-0.00305,127.424988,68.332077,-590.430664,13.758722,100.791784
1759356258,0.829741,-1.5073,-9.481487,0.004042,-0.014266,0.003028,127.117432,68.929367,-589.907349,13.758722,100.791784
1759356258,0.818967,-1.511041,-9.473706,-0.010387,0.027126,0.015205,126.784027,76.467194,-587.13385,13.758722,100.791784
1759356258,0.795025,-1.514781,-9.532065,-0.012853,0.027394,0.011347,127.407974,68.088989,-590.31189,13.758722,100.791784
1759356258,0.814328,-1.489044,-9.570223,-0.017454,0.006653,0.004807,126.804489,77.787598,-587.179688,13.758722,100.791784
1759356258,0.814777,-1.52346,-9.586683,-0.016637,-0.002865,0.007728,127.237457,69.245117,-590.070679,13.758722,100.791784
1759356258,0.773327,-1.55683,-9.605387,-0.011465,0.019382,0.019194,127.200272,69.739212,-589.538757,13.758722,100.791784
1759356258,0.70614,-1.569698,-9.629629,-0.000754,0.028367,0.01682,126.829453,75.598801,-587.550903,13.758722,100.791784
1759356258,0.712874,-1.535581,-9.640103,0.001559,0.017462,0.013551,127.091202,69.163635,-589.886169,13.758722,100.791784
1759356258,0.657358,-1.542464,-9.645939,-0.000558,0.017791,0.011881,126.864243,75.984848,-587.396057,13.758722,100.791784
1759356258,0.686088,-1.527501,-9.67048,-0.002795,0.007738,0.012447,127.337936,68.629639,-590.205811,13.758722,100.791784
1759356258,0.699107,-1.504157,-9.74485,0.013978,-0.005121,0.009328,127.147934,69.922211,-589.636108,13.758722,100.791784
1759356258,0.691775,-1.485752,-9.717915,0.030343,-0.015317,0.002578,126.765991,77.483856,-587.513428,13.758722,100.791784
1759356258,0.681899,-1.506851,-9.576657,0.02313,-0.007628,-0.007606,127.27977,68.523911,-590.132935,13.758722,100.791784
1759356258,0.744746,-1.514632,-9.503185,0.015071,-0.003721,-0.011078,126.830536,76.009979,-587.562073,13.758722,100.791784
1759356258,0.836474,-1.540519,-9.49705,-0.001463,-0.005924,0.002778,127.209076,68.971024,-590.135132,13.758722,100.791784
1759356258,0.841562,-1.523161,-9.530269,-0.002855,-0.010397,0.010592,127.484207,68.490616,-590.404114,13.758722,100.791784
1759356258,0.794576,-1.518672,-9.555708,-0.000424,-0.004006,0.011432,126.967697,75.704041,-587.728271,13.758722,100.791784
1759356258,0.776769,-1.510592,-9.543587,-0.007163,0.002624,0.004393,127.207092,69.032532,-590.200684,13.758722,100.791784
1759356258,0.805499,-1.551143,-9.572168,-0.025103,-0.000001,-0.003512,126.876434,76.95845,-587.762207,13.758722,100.791784
1759356258,0.845901,-1.541417,-9.652523,-0.020277,0.001418,0.00195,126.64415,77.081543,-587.450317,13.758722,100.791784
1759356258,0.856226,-1.578527,-9.64579,-0.006355,-0.002209,0.01684,127.281403,68.301575,-590.403687,13.758722,100.791784
1759356258,0.795324,-1.583315,-9.585785,-0.005931,-0.007245,0.027083,126.917038,77.16127,-587.423828,13.758722,100.791784
1759356258,0.778415,-1.562217,-9.662399,-0.011309,0.004916,0.030668,127.029663,68.701706,-589.902588,13.758722,100.791784
1759356258,0.730232,-1.513734,-9.735572,0.010809,-0.006628,0.035023,127.235641,68.689011,-590.017944,13.758722,100.791784
1759356258,0.656759,-1.518822,-9.589825,0.022548,-0.028595,0.024428,126.921875,77.625229,-586.822876,13.758722,100.791784
1759356258,0.617554,-1.523161,-9.514108,0.002658,-0.01775,0.015251,127.339096,68.886673,-590.199402,13.758722,100.791784
1759356258,0.659453,-1.504456,-9.563639,-0.007901,0.000202,0.017739,126.697296,77.515594,-587.474365,13.758722,100.791784
1759356258,0.681749,-1.476325,-9.544485,-0.007795,-0.0181,0.007976,127.259705,68.657898,-590.461121,13.758722,100.791784
1759356258,0.670526,-1.492336,-9.559898,-0.018449,-0.020175,-0.001527,127.187088,70.694611,-589.326965,13.758722,100.791784
1759356258,0.682946,-1.526902,-9.62484,-0.024493,-0.011501,0.004007,126.660553,77.531021,-587.04248,13.758722,100.791784
1759356258,0.687585,-1.517475,-9.660903,-0.014532,-0.023532,0.005671,127.475372,68.510498,-590.362,13.758722,100.791784
1759356258,0.644788,-1.539172,-9.658808,-0.007923,-0.029073,-0.001393,126.742432,76.220551,-587.701721,13.758722,100.791784
1759356258,0.690578,-1.509993,-9.646987,-0.0029,-0.023685,-0.009826,127.326416,69.125671,-589.889771,13.758722,100.791784
1759356258,0.728137,-1.548749,-9.676316,-0.005475,-0.016775,-0.003995,127.314377,71.455902,-588.531006,13.758722,100.791784
1759356258,0.724845,-1.522114,-9.676465,0.005782,-0.015537,0.006316,126.667786,77.183395,-587.204834,13.758722,100.791784
1759356259,0.705392,-1.520019,-9.660604,0.006492,-0.02566,-0.001211,127.341751,68.223495,-590.39209,13.758722,100.791784
1759356259,0.739359,-1.532139,-9.624092,0.01052,-0.023912,-0.006972,126.813766,76.298279,-587.925659,13.758722,100.791784
1759356259,0.757017,-1.524508,-9.54239,0.003497,-0.008826,-0.001819,127.352615,68.339691,-590.184082,13.758722,100.791784
1759356259,0.729034,-1.534085,-9.594015,-0.011013,0.013297,0.003812,127.198868,73.280716,-588.673096,13.758722,100.791784
1759356259,0.743699,-1.47408,-9.62499,-0.00442,0.001677,-0.007786,126.809601,77.118866,-587.185059,13.758722,100.791784
1759356259,0.75163,-1.52376,-9.588778,0.004761,-0.01087,-0.011924,127.22406,69.277176,-590.133667,13.758722,100.791784
1759356259,0.765696,-1.56925,-9.531466,0.001128,-0.001077,-0.009177,126.855042,76.260773,-587.768799,13.758722,100.791784
1759356259,0.760159,-1.577031,-9.561993,-0.016056,0.004945,0.016792,127.186401,68.4944,-590.20166,13.758722,100.791784
1759356259,0.650774,-1.538873,-9.65806,-0.021062,0.005503,0.020836,126.963547,69.866821,-589.765686,13.758722,100.791784
1759356259,0.589123,-1.462259,-9.71178,-0.007427,0.00372,0.008104,126.729233,77.671768,-587.16626,13.758722,100.791784
1759356259,0.583587,-1.481712,-9.689933,0.00415,-0.009069,-0.008308,127.264313,68.598419,-590.222717,13.758722,100.791784
1759356259,0.587028,-1.501015,-9.656414,0.008248,-0.003539,-0.014203,126.63887,78.084961,-587.181885,13.758722,100.791784
1759356259,0.637307,-1.498621,-9.606884,0.012421,-0.001731,-0.018499,127.262192,68.144394,-590.544128,13.758722,100.791784
1759356259,0.679355,-1.490241,-9.584887,0.011267,0.00136,-0.015516,127.076141,70.325577,-589.744324,13.758722,100.791784
1759356259,0.676362,-1.500566,-9.586383,0.002909,-0.003401,-0.019286,126.567322,77.556595,-587.006104,13.758722,100.791784
1759356259,0.714968,-1.504456,-9.586832,-0.00283,-0.00964,-0.014518,127.091995,68.705734,-590.288269,13.758722,100.791784
1759356259,0.727688,-1.52361,-9.628731,-0.004053,-0.007236,-0.015517,126.389557,77.00795,-587.470764,13.758722,100.791784
1759356259,0.750732,-1.517475,-9.588778,0.001293,-0.008878,-0.009226,127.064423,68.281754,-590.625183,13.758722,100.791784
1759356259,0.772729,-1.536329,-9.602694,-0.001704,-0.001671,-0.001378,127.050995,69.843964,-590.095215,13.758722,100.791784
1759356259,0.722301,-1.500117,-9.58773,-0.007501,0.00274,0.006446,126.545334,75.373962,-587.742065,13.758722,100.791784
1759356259,0.736816,-1.512836,-9.664045,-0.011023,0.009583,-0.001345,127.198273,68.625793,-590.336914,13.758722,100.791784
1759356259,0.767641,-1.500566,-9.695619,0.006722,-0.008899,-0.008336,126.759033,77.687332,-587.162231,13.758722,100.791784
1759356259,0.779911,-1.555932,-9.622446,0.012904,0.011445,0.004344,127.170456,68.311935,-590.505005,13.758722,100.791784
1759356259,0.764349,-1.543063,-9.56304,-0.00452,0.013189,0.012837,127.160065,68.90625,-590.257629,13.758722,100.791784
1759356259,0.761206,-1.539621,-9.681254,-0.009391,0.016033,0.013561,126.464294,76.162399,-587.583618,13.758722,100.791784
1759356259,0.727388,-1.460912,-9.648782,0.007126,-0.004133,0.012517,127.103897,68.276031,-590.518066,13.758722,100.791784
1759356259,0.709881,-1.535431,-9.578752,0.016103,0.010103,0.009266,126.64093,77.5448,-587.28833,13.758722,100.791784
1759356259,0.717512,-1.547103,-9.518298,-0.003774,0.018407,0.017572,127.342178,67.986145,-590.179626,13.758722,100.791784
1759356259,0.751929,-1.508197,-9.641899,-0.023324,0.020111,0.030651,127.123154,68.975815,-590.013916,13.758722,100.791784
1759356259,0.696862,-1.448342,-9.690232,-0.006272,-0.022232,0.014098,127.142776,74.764832,-587.619385,13.758722,100.791784
1759356259,0.689231,-1.445649,-9.646837,0.013023,-0.021383,0.009741,127.15184,68.066513,-590.441711,13.758722,100.791784
1759356259,0.682198,-1.534983,-9.503335,0.001061,0.006652,0.021239,126.734879,78.001648,-586.919067,13.758722,100.791784
1759356259,0.708833,-1.538275,-9.472659,-0.021951,0.009866,0.035307,127.202896,68.03511,-590.367004,13.758722,100.791784
1759356259,0.659004,-1.493084,-9.529521,-0.02948,0.004002,0.02269,127.174026,68.662628,-589.990173,13.758722,100.791784
1759356259,0.609025,-1.473481,-9.67467,-0.016198,0.004252,0.012919,126.858353,75.448486,-587.824036,13.758722,100.791784
1759356259,0.660949,-1.442806,-9.677513,-0.006492,-0.003713,0.006793,127.150604,68.08197,-590.310425,13.758722,100.791784
1759356259,0.637606,-1.506551,-9.673921,-0.009494,-0.005222,0.000421,126.832977,75.975983,-587.498047,13.758722,100.791784
1759356259,0.689081,-1.463905,-9.667786,-0.004965,-0.009209,-0.003195,127.138702,68.433365,-590.378967,13.758722,100.791784
1759356259,0.707038,-1.511639,-9.693674,0.012228,-0.005437,-0.007398,127.368073,69.576385,-589.882568,13.758722,100.791784
1759356259,0.794725,-1.538125,-9.569624,-0.001322,0.005143,0.001566,126.924591,76.232407,-587.508179,13.758722,100.791784
1759356259,0.85458,-1.582867,-9.557952,-0.012473,0.009794,0.016396,127.331223,68.684875,-590.198364,13.758722,100.791784
1759356259,0.852785,-1.548001,-9.659856,0.001142,-0.007647,0.013875,126.770874,77.532349,-587.639221,13.758722,100.791784
1759356259,0.843507,-1.53184,-9.626187,0.010736,0.003119,0.015022,127.218918,68.180664,-590.476685,13.758722,100.791784
1759356259,0.819715,-1.603068,-9.526229,0.005097,0.002462,0.025208,127.228851,69.209534,-590.150696,13.758722,100.791784
1759356259,0.812682,-1.618331,-9.469217,-0.021106,0.010213,0.038097,126.892517,76.599442,-587.138123,13.758722,100.791784
1759356259,0.750732,-1.603816,-9.518149,-0.031673,0.013525,0.044188,127.355576,68.039215,-590.333191,13.758722,100.791784
1759356259,0.692972,-1.543662,-9.694571,-0.015848,0.01237,0.049083,126.926025,75.85614,-587.842896,13.758722,100.791784
1759356259,0.60708,-1.476474,-9.770887,0.001154,0.00308,0.03589,127.234085,68.422394,-590.219604,13.758722,100.791784
1759356259,0.535403,-1.475576,-9.735273,-0.002827,0.000419,0.011298,127.307999,68.718536,-589.950867,13.758722,100.791784
1759356259,0.560094,-1.481113,-9.766397,0.003932,-0.01025,-0.006833,127.142227,75.421112,-587.645691,13.758722,100.791784
1759356260,0.665738,-1.485303,-9.724349,0.02256,-0.008211,-0.010742,127.334183,67.96022,-590.288635,13.758722,100.791784
1759356260,0.727688,-1.529296,-9.581745,0.027457,-0.004902,-0.004461,127.111588,75.237549,-587.890015,13.758722,100.791784
1759356260,0.781557,-1.548001,-9.465177,0.013511,-0.000405,0.000613,127.26651,68.881943,-590.035767,13.758722,100.791784
1759356260,0.811784,-1.566257,-9.383325,-0.021391,-0.000751,0.012891,127.223618,68.47908,-590.079224,13.758722,100.791784
1759356260,0.807744,-1.550694,-9.479991,-0.03764,0.007322,0.02286,126.873978,75.268219,-587.759949,13.758722,100.791784
1759356260,0.794875,-1.505055,-9.59207,-0.024867,0.00662,0.024761,127.305511,67.833466,-590.286926,13.758722,100.791784
1759356260,0.75971,-1.504157,-9.643844,-0.009692,0.000384,0.023017,126.896729,73.911835,-588.19281,13.758722,100.791784
1759356260,0.707786,-1.470489,-9.607782,-0.010269,-0.001033,0.018716,127.339645,68.646027,-590.378479,13.758722,100.791784
1759356260,0.710779,-1.511938,-9.601497,-0.023201,0.001694,0.016121,127.209381,68.026413,-590.244995,13.758722,100.791784
1759356260,0.699705,-1.539921,-9.67437,-0.020236,0.000698,0.018604,126.915314,75.27916,-587.852051,13.758722,100.791784
1759356260,0.715717,-1.515979,-9.655366,-0.014566,-0.007601,0.021556,127.447952,67.803589,-590.443481,13.758722,100.791784
1759356260,0.629525,-1.526154,-9.701754,-0.004224,-0.0082,0.010008,127.090118,75.476837,-587.999756,13.758722,100.791784
1759356260,0.663044,-1.511938,-9.701754,0.001708,0.000534,-0.003227,127.272995,68.378464,-590.388672,13.758722,100.791784
1759356260,0.673818,-1.532888,-9.674071,0.009336,-0.009156,-0.00896,127.401016,68.468262,-590.246155,13.758722,100.791784
1759356260,0.694767,-1.549946,-9.597906,0.005182,-0.005813,-0.012425,127.01091,76.843811,-587.542847,13.758722,100.791784
1759356260,0.710479,-1.581969,-9.571869,-0.00135,0.023791,-0.010512,127.564392,68.2146,-590.45459,13.758722,100.791784
1759356260,0.797868,-1.533636,-9.660454,0.005987,0.00549,0.003308,127.04538,75.40387,-588.226685,13.758722,100.791784
1759356260,0.807145,-1.496077,-9.66629,0.012743,-0.030438,-0.00525,127.421844,68.442596,-590.350464,13.758722,100.791784
1759356260,0.7434,-1.536479,-9.62499,0.013549,-0.017012,-0.001057,127.377625,68.36673,-590.629944,13.758722,100.791784
1759356260,0.717812,-1.572542,-9.564237,0.00887,-0.001254,0.006752,127.243393,75.059814,-588.023132,13.758722,100.791784
1759356260,0.715717,-1.538873,-9.556157,0.000013,-0.001794,0.00612,127.608459,68.035126,-590.454407,13.758722,100.791784
1759356260,0.68534,-1.496825,-9.5587,-0.010291,0.002182,-0.00065,126.90892,75.426239,-587.938904,13.758722,100.791784
1759356260,0.675614,-1.470189,-9.589975,-0.012553,0.003895,-0.004314,127.374802,68.538986,-590.367065,13.758722,100.791784
1759356260,0.667234,-1.464204,-9.652823,-0.005895,0.005807,-0.00939,127.426575,68.722214,-590.212097,13.758722,100.791784
1759356260,0.651522,-1.446547,-9.692626,0.004571,0.007583,-0.027735,126.913025,76.370529,-587.641174,13.758722,100.791784
1759356260,0.667533,-1.459864,-9.624092,0.002813,0.010799,-0.039224,127.256714,69.020721,-590.292358,13.758722,100.791784
1759356260,0.780809,-1.552341,-9.538499,-0.010314,0.002533,-0.026686,126.724838,76.802414,-587.697021,13.758722,100.791784
1759356260,0.877924,-1.570596,-9.588478,-0.020358,0.007687,-0.011068,127.279404,68.348572,-590.459351,13.758722,100.791784
1759356260,0.777218,-1.538574,-9.688885,-0.002929,-0.001796,-0.000683,127.54837,68.301285,-590.846313,13.758722,100.791784
1759356260,0.729783,-1.509694,-9.642498,0.006404,-0.008215,-0.011834,126.839447,76.553345,-587.9198,13.758722,100.791784
1759356260,0.749684,-1.567903,-9.515455,0.009311,-0.010018,-0.020535,127.260803,68.515427,-590.559814,13.758722,100.791784
1759356260,0.774375,-1.590348,-9.490915,-0.006397,0.009166,-0.00549,126.73732,76.759445,-587.793213,13.758722,100.791784
1759356260,0.75163,-1.559373,-9.615862,-0.016652,0.030063,0.006989,127.250427,69.058075,-590.445923,13.758722,100.791784
1759356260,0.700903,-1.507449,-9.733776,-0.006071,0.012777,0.003738,127.380417,68.273209,-590.640747,13.758722,100.791784
1759356260,0.690578,-1.506402,-9.758018,0.015691,0.003762,-0.001182,126.964996,76.449234,-587.999878,13.758722,100.791784
1759356260,0.674566,-1.487547,-9.682152,0.024984,-0.00857,-0.00898,127.149277,68.510345,-590.181824,13.758722,100.791784
1759356260,0.696413,-1.507599,-9.641899,0.020464,-0.014782,-0.013083,126.735123,76.88652,-587.612061,13.758722,100.791784
1759356260,0.692972,-1.510442,-9.59192,0.027247,-0.006146,-0.013513,127.224487,68.238174,-590.53363,13.758722,100.791784
1759356260,0.711228,-1.529446,-9.504382,0.022686,0.0042,-0.009168,127.459793,68.264771,-590.546387,13.758722,100.791784
1759356260,0.719308,-1.507748,-9.503634,0.004326,0.005374,-0.007385,126.853867,74.357895,-588.615112,13.758722,100.791784
1759356260,0.730082,-1.476624,-9.575011,-0.006776,-0.008253,-0.012713,127.313797,68.641144,-590.46521,13.758722,100.791784
1759356260,0.731429,-1.49877,-9.635165,-0.002431,-0.002937,-0.015971,126.914093,75.423508,-588.296387,13.758722,100.791784
1759356260,0.794426,-1.496376,-9.620052,0.0021,0.002756,-0.010031,127.144821,68.14595,-590.338501,13.758722,100.791784
1759356260,0.820313,-1.480365,-9.585186,0.002453,-0.013003,0.001893,126.908997,69.132858,-590.454712,13.758722,100.791784
1759356260,0.770035,-1.504606,-9.558551,-0.006572,-0.012073,-0.001526,127.23912,72.792038,-589.301636,13.758722,100.791784
1759356260,0.784251,-1.499967,-9.543437,-0.010047,0.003134,-0.000323,127.13623,69.026276,-590.421997,13.758722,100.791784
1759356260,0.812532,-1.503259,-9.498546,-0.016227,-0.001756,0.00259,126.859909,75.690887,-587.959229,13.758722,100.791784
1759356260,0.776021,-1.5486,-9.545682,-0.027959,0.010757,0.007186,127.368561,68.308533,-590.546082,13.758722,100.791784
1759356260,0.779612,-1.537227,-9.614216,-0.028631,0.014287,0.012002,127.250854,68.281281,-590.601685,13.758722,100.791784
1759356260,0.785597,-1.563264,-9.680805,-0.020949,0.015488,0.013256,127.019485,70.331299,-589.950134,13.758722,100.791784
1759356261,0.761955,-1.529596,-9.6829,-0.006636,0.008938,0.02209,127.247772,68.640228,-590.363098,13.758722,100.791784
1759356261,0.701351,-1.531391,-9.612869,0.004123,0.004891,0.012188,126.9254,75.7854,-587.682312,13.758722,100.791784
1759356261,0.715717,-1.530493,-9.600749,-0.017266,0.009035,0.016051,127.354904,68.183655,-590.549988,13.758722,100.791784
1759356261,0.702848,-1.522263,-9.716419,-0.013361,0.015524,0.022101,127.137939,68.627014,-590.2995,13.758722,100.791784
1759356261,0.699705,-1.480963,-9.64968,0.011756,-0.001571,0.008668,127.211853,69.049286,-589.98468,13.758722,100.791784
1759356261,0.716016,-1.541118,-9.532065,0.009566,-0.017997,0.003461,127.132782,68.407578,-590.201904,13.758722,100.791784
1759356261,0.732775,-1.567604,-9.503933,-0.005178,-0.000064,0.020974,126.57962,76.495621,-587.393188,13.758722,100.791784
1759356261,0.680402,-1.524508,-9.55496,-0.020264,0.009286,0.036783,127.482803,68.529449,-590.016296,13.758722,100.791784
1759356261,0.630274,-1.467646,-9.671827,-0.02133,-0.006684,0.030075,126.965088,69.195816,-590.008667,13.758722,100.791784
1759356261,0.600795,-1.445799,-9.728689,-0.002418,-0.021205,0.013319,127.246948,69.801331,-589.776001,13.758722,100.791784
1759356261,0.651073,-1.467047,-9.630826,0.006179,-0.020758,0.008921,127.09639,69.237427,-590.192383,13.758722,100.791784
1759356261,0.66065,-1.489493,-9.569175,-0.001634,-0.016686,0.016689,126.712311,76.497772,-587.300598,13.758722,100.791784
1759356261,0.663493,-1.453729,-9.593117,-0.01548,-0.026227,0.009948,127.281265,68.082748,-590.331299,13.758722,100.791784
1759356261,0.665738,-1.480066,-9.595062,-0.016394,-0.031785,-0.007368,127.24263,68.087784,-590.275818,13.758722,100.791784
1759356261,0.729483,-1.520617,-9.585037,-0.02647,-0.021302,-0.005649,127.281693,69.708466,-589.721008,13.758722,100.791784
1759356261,0.720804,-1.499668,-9.639954,-0.023479,-0.006514,-0.006103,127.066544,68.667084,-590.110962,13.758722,100.791784
1759356261,0.755371,-1.492186,-9.641151,-0.011422,-0.001857,-0.016765,126.428558,78.32338,-586.650085,13.758722,100.791784
1759356261,0.842759,-1.560271,-9.63322,-0.001017,-0.005432,-0.013462,127.083832,68.766144,-590.296326,13.758722,100.791784
1759356261,0.825551,-1.592892,-9.610625,0.005091,0.009652,0.009285,127.123337,68.552048,-590.098511,13.758722,100.791784
1759356261,0.753126,-1.591546,-9.564836,-0.015984,-0.003804,0.017701,126.989807,69.068161,-590.202759,13.758722,100.791784
1759356261,0.705841,-1.533785,-9.673772,-0.022497,-0.007989,0.01187,127.206238,68.277435,-590.622925,13.758722,100.791784
1759356261,0.676512,-1.510442,-9.665691,-0.001293,-0.003759,0.013392,126.626053,76.957382,-587.267883,13.758722,100.791784
1759356261,0.592266,-1.498172,-9.632921,0.006329,-0.005623,0.017817,127.062271,70.527802,-589.714355,13.758722,100.791784
1759356261,0.557101,-1.462109,-9.636512,0.00829,-0.005243,0.002787,127.162643,68.703247,-590.184448,13.758722,100.791784
1759356261,0.544232,-1.427543,-9.617957,0.007746,-0.005577,-0.002746,127.278152,68.628632,-590.292419,13.758722,100.791784
1759356261,0.560692,-1.436371,-9.647735,0.00168,0.000029,-0.015071,126.922623,68.397705,-590.484253,13.758722,100.791784
1759356261,0.556353,-1.413477,-9.660604,0.001968,-0.01005,-0.029477,126.437393,77.157532,-587.673218,13.758722,100.791784
1759356261,0.592864,-1.418714,-9.62514,-0.006355,-0.016173,-0.043254,127.315491,68.145752,-590.444275,13.758722,100.791784
1759356261,0.694169,-1.495777,-9.588329,-0.003189,-0.017766,-0.040146,126.877579,72.487579,-588.95813,13.758722,100.791784
1759356261,0.798466,-1.49069,-9.556007,-0.004539,-0.009988,-0.025227,127.167358,68.518311,-590.324524,13.758722,100.791784
1759356261,0.818368,-1.502062,-9.575909,-0.011886,0.009247,-0.012901,126.854202,68.475861,-590.172119,13.758722,100.791784
1759356261,0.790984,-1.524358,-9.596858,-0.014432,-0.004631,-0.015861,126.379822,77.459564,-587.481323,13.758722,100.791784
1759356261,0.832284,-1.477073,-9.649231,-0.007701,-0.004301,-0.011452,126.90712,68.570023,-590.733582,13.758722,100.791784
1759356261,0.826748,-1.538723,-9.655067,-0.005881,0.003562,-0.001217,126.604553,70.274597,-589.248901,13.758722,100.791784
1759356261,0.835726,-1.555633,-9.648034,-0.01354,0.013581,0.018037,127.171829,68.410294,-590.469238,13.758722,100.791784
1759356261,0.800262,-1.516727,-9.756521,0.008011,0.007179,0.020507,127.135025,68.71875,-590.357178,13.758722,100.791784
1759356261,0.75567,-1.465102,-9.757419,0.026566,0.001567,0.01649,126.629944,76.015564,-587.745361,13.758722,100.791784
1759356261,0.713173,-1.481861,-9.61676,0.029861,-0.011807,0.000672,127.10878,68.300308,-590.460571,13.758722,100.791784
1759356261,0.719907,-1.498172,-9.510816,0.012623,0.006479,0.003189,126.681259,75.390198,-587.881226,13.758722,100.791784
1759356261,0.725742,-1.4865,-9.574712,0.000073,0.021591,0.015404,127.154953,69.013885,-590.370911,13.758722,100.791784
1759356261,0.706738,-1.466897,-9.647136,0.005237,-0.008929,0.01601,127.054092,68.941452,-589.94104,13.758722,100.791784
1759356261,0.685939,-1.443255,-9.617358,0.008528,-0.020626,0.008388,126.701248,76.771957,-587.902344,13.758722,100.791784
1759356261,0.653617,-1.508048,-9.524134,0.000099,-0.002976,0.017167,126.971298,68.870728,-590.39801,13.758722,100.791784
1759356261,0.651372,-1.522862,-9.463681,-0.018884,0.007645,0.024393,126.63118,77.654724,-587.450745,13.758722,100.791784
1759356261,0.635661,-1.49069,-9.517849,-0.025165,0.000777,0.020337,127.002747,69.37886,-590.442139,13.758722,100.791784
1759356261,0.62743,-1.458218,-9.653122,-0.015986,0.000026,0.010325,127.090057,72.682816,-589.134277,13.758722,100.791784
1759356261,0.639551,-1.451335,-9.670181,-0.01237,0.008441,0.007629,126.675903,77.162796,-587.437134,13.758722,100.791784
1759356261,0.656909,-1.468992,-9.670031,-0.013948,-0.000533,0.003125,127.424896,68.392258,-590.628845,13.758722,100.791784
1759356261,0.70599,-1.451784,-9.711032,-0.008706,-0.007435,-0.003579,126.737015,76.345459,-588.07959,13.758722,100.791784
1759356261,0.717363,-1.475127,-9.72839,0.013411,-0.012837,-0.010685,127.084244,68.325974,-590.454346,13.758722,100.791784
1759356262,0.760907,-1.509095,-9.585635,0.007292,-0.006456,-0.001454,126.800583,71.336624,-589.565674,13.758722,100.791784
1759356262,0.79263,-1.562965,-9.508273,-0.014101,0.017036,0.012629,126.425995,77.595444,-587.238098,13.758722,100.791784
1759356262,0.813729,-1.532588,-9.572318,-0.013887,0.008795,0.0116,127.148056,68.488785,-590.538208,13.758722,100.791784
1759356262,0.795623,-1.49473,-9.662549,-0.000857,0.00964,0.008532,126.735245,76.490387,-588.147156,13.758722,100.791784
1759356262,0.801758,-1.529296,-9.63307,0.009497,0.00723,0.014845,127.231735,68.909332,-590.348511,13.758722,100.791784
1759356262,0.792181,-1.526752,-9.61661,-0.003894,0.015355,0.025422,126.818695,71.95845,-589.575134,13.758722,100.791784
1759356262,0.723797,-1.523161,-9.619304,-0.00647,0.010179,0.022923,126.652863,77.384323,-587.149414,13.758722,100.791784
1759356262,0.705841,-1.492635,-9.64968,-0.009437,0.007051,0.027746,127.088852,68.793777,-590.315552,13.758722,100.791784
1759356262,0.632219,-1.509395,-9.67467,0.004219,-0.001638,0.020775,126.763336,75.639847,-588.108826,13.758722,100.791784
1759356262,0.594361,-1.496526,-9.675717,0.011217,0.020779,0.013052,127.266693,68.266785,-590.4823,13.758722,100.791784
1759356262,0.623839,-1.456273,-9.649979,0.009128,-0.001673,0.010167,127.066833,70.076691,-590.090332,13.758722,100.791784
1759356262,0.616657,-1.483058,-9.623643,0.001155,0.000466,-0.004171,126.517059,77.267914,-587.435547,13.758722,100.791784
1759356262,0.660949,-1.47408,-9.67452,0.006589,-0.008321,-0.004395,126.874863,68.546677,-590.391113,13.758722,100.791784
1759356262,0.70599,-1.498621,-9.619603,0.00862,-0.009547,-0.001649,126.625412,75.939606,-587.911804,13.758722,100.791784
1759356262,0.680701,-1.526304,-9.609877,0.013849,-0.002287,-0.008328,127.157913,68.232925,-590.662109,13.758722,100.791784
1759356262,0.750732,-1.504456,-9.599103,0.019808,0.005412,-0.001515,127.193008,70.350815,-590.219482,13.758722,100.791784
1759356262,0.786046,-1.539172,-9.500192,0.009086,0.004218,0.005821,126.680222,76.185059,-587.998474,13.758722,100.791784
1759356262,0.764499,-1.531691,-9.479841,-0.018288,-0.002322,0.006657,127.109634,68.837006,-590.538574,13.758722,100.791784
1759356262,0.743699,-1.505504,-9.543138,-0.02296,0.005852,0.011835,126.835968,76.439957,-587.737671,13.758722,100.791784
1759356262,0.726191,-1.485153,-9.645341,-0.011751,0.008247,0.015878,127.009689,69.071152,-590.214844,13.758722,100.791784
1759356262,0.698658,-1.473631,-9.689484,0.003046,0.002498,0.011599,127.188232,70.551346,-589.655457,13.758722,100.791784
1759356262,0.696114,-1.458967,-9.691429,0.004788,0.00294,0.002328,126.557449,77.690384,-587.184021,13.758722,100.791784
1759356262,0.696264,-1.481712,-9.652224,0.007445,0.008392,-0.007217,127.233078,68.294098,-590.314209,13.758722,100.791784
1759356262,0.781408,-1.534683,-9.609577,0.00047,-0.004523,0.005656,126.709518,75.67009,-587.709595,13.758722,100.791784
1759356262,0.762404,-1.538424,-9.576058,-0.011783,0.010091,0.006712,127.092026,68.790222,-590.281982,13.758722,100.791784
1759356262,0.778564,-1.536928,-9.625588,-0.013972,0.005664,0.010919,127.158722,69.178223,-589.937012,13.758722,100.791784
1759356262,0.752677,-1.499668,-9.66195,-0.001576,-0.005013,0.008935,126.829208,75.763184,-587.808289,13.758722,100.791784
1759356262,0.720505,-1.50311,-9.643994,0.005541,-0.005417,0.003629,127.312912,68.230072,-590.53418,13.758722,100.791784
1759356262,0.730531,-1.517325,-9.582343,0.000567,0.011073,0.003631,126.725571,76.287659,-587.892334,13.758722,100.791784
1759356262,0.756119,-1.540369,-9.613318,-0.007276,0.017006,0.008422,127.189621,68.709229,-590.517334,13.758722,100.791784
1759356262,0.780809,-1.512836,-9.583989,-0.002449,-0.012183,-0.002029,127.279099,69.535568,-590.156555,13.758722,100.791784
1759356262,0.767491,-1.599177,-9.500791,-0.002237,-0.014614,-0.005171,126.555435,76.388809,-587.696533,13.758722,100.791784
1759356262,0.754772,-1.628356,-9.493907,-0.007102,0.020393,0.025083,126.899521,68.682617,-590.506104,13.758722,100.791784
1759356262,0.684891,-1.575385,-9.596409,-0.022494,0.019746,0.046035,126.736984,76.737427,-587.61145,13.758722,100.791784
1759356262,0.547674,-1.477821,-9.719711,-0.023988,-0.006114,0.025343,127.160156,68.159622,-590.584595,13.758722,100.791784
1759356262,0.549918,-1.445948,-9.808296,-0.010418,0.004284,-0.005219,127.128601,68.633301,-590.257324,13.758722,100.791784
1759356262,0.651522,-1.438017,-9.830143,0.019944,0.012847,-0.021757,126.625168,76.28125,-587.849976,13.758722,100.791784
1759356262,0.754622,-1.48635,-9.723601,0.035781,0.010661,-0.013947,127.090027,68.24472,-590.544861,13.758722,100.791784
1759356262,0.765845,-1.487547,-9.605387,0.023601,-0.013197,-0.022863,126.653671,77.01796,-587.435608,13.758722,100.791784
1759356262,0.826448,-1.545906,-9.501539,0.020877,-0.017048,-0.034026,127.227722,68.162201,-590.162048,13.758722,100.791784
1759356262,0.913388,-1.589151,-9.362526,0.011282,0.012965,-0.015175,126.953308,69.673843,-590.521973,13.758722,100.791784
1759356262,0.934038,-1.591097,-9.404125,-0.017527,0.036718,0.008012,126.746796,75.235596,-587.821533,13.758722,100.791784
1759356262,0.886304,-1.540968,-9.479692,-0.028014,0.020158,0.017844,127.053116,68.259018,-590.442688,13.758722,100.791784
1759356262,0.806696,-1.537077,-9.609428,-0.022423,0.012196,0.020723,126.365448,77.022003,-587.582336,13.758722,100.791784
1759356262,0.733972,-1.538723,-9.642797,-0.013669,0.01761,0.019174,127.16243,68.573624,-590.177002,13.758722,100.791784
1759356262,0.655413,-1.508197,-9.62903,-0.010112,0.015453,0.015034,126.972595,69.30603,-590.114868,13.758722,100.791784
1759356262,0.601244,-1.499668,-9.634567,-0.010044,0.017979,0.002025,126.75322,76.223862,-587.629089,13.758722,100.791784
1759356262,0.600795,-1.51972,-9.642797,-0.016343,0.015856,-0.012114,127.012344,68.179199,-590.44458,13.758722,100.791784
1759356262,0.614861,-1.496077,-9.697115,-0.016809,-0.000207,-0.026966,126.573425,77.73671,-587.159973,13.758722,100.791784
1759356262,0.665887,-1.525705,-9.742306,-0.000231,0.007154,-0.033669,126.899918,69.232452,-590.274963,13.758722,100.791784
1759356263,0.742352,-1.51538,-9.676914,0.0164,0.009147,-0.033996,126.941833,69.74353,-590.436157,13.758722,100.791784
1759356263,0.754622,-1.546355,-9.642946,0.014027,0.002392,-0.03654,126.56546,76.149963,-587.465942,13.758722,100.791784
1759356263,0.853234,-1.552341,-9.65402,0.013897,-0.005422,-0.02735,127.514847,68.456512,-590.225464,13.758722,100.791784
1759356263,0.876278,-1.537826,-9.618855,0.025522,-0.017577,-0.01395,126.360077,77.936264,-586.954712,13.758722,100.791784
1759356263,0.843657,-1.559224,-9.526977,0.016433,-0.00658,-0.004917,127.09436,69.02655,-589.959167,13.758722,100.791784
1759356263,0.823456,-1.503409,-9.552715,0.004908,0.002419,-0.005305,126.961716,68.847931,-590.451294,13.758722,100.791784
1759356263,0.845004,-1.482909,-9.575759,0.005889,-0.000878,-0.010817,126.420334,77.295441,-587.391113,13.758722,100.791784
1759356263,0.839317,-1.50281,-9.598654,0.004637,0.002149,-0.013448,127.09198,69.277298,-590.004028,13.758722,100.791784
1759356263,0.877026,-1.498621,-9.591172,0.002046,0.000501,-0.003493,126.475906,77.387329,-587.700256,13.758722,100.791784
1759356263,0.871938,-1.524209,-9.555857,0.005247,-0.006816,0.002301,126.908463,68.987366,-590.057556,13.758722,100.791784
1759356263,0.827346,-1.542764,-9.48044,-0.005915,0.001259,0.007378,126.845398,68.72345,-590.437317,13.758722,100.791784
1759356263,0.779911,-1.534983,-9.54658,-0.026818,0.012826,0.01013,126.700989,76.474792,-587.36145,13.758722,100.791784
1759356263,0.798317,-1.494281,-9.65402,-0.02573,0.00809,0.007829,126.934845,68.751846,-590.203369,13.758722,100.791784
1759356263,0.731578,-1.489044,-9.694571,-0.00764,-0.003299,0.004191,126.732574,77.916504,-587.42395,13.758722,100.791784
1759356263,0.748038,-1.503409,-9.637859,0.006075,-0.005622,-0.004813,127.162613,69.442047,-589.614746,13.758722,100.791784
1759356263,0.732027,-1.534534,-9.605986,0.004775,0.001211,0.001366,127.09436,70.263824,-589.948975,13.758722,100.791784
1759356263,0.728735,-1.505354,-9.575909,0.007465,0.00188,0.001092,126.643799,77.777649,-587.472107,13.758722,100.791784
1759356263,0.770783,-1.510143,-9.540445,-0.000046,-0.005505,-0.010292,127.022797,69.314728,-590.175293,13.758722,100.791784
1759356263,0.804751,-1.562815,-9.570223,-0.010135,-0.005625,-0.004961,126.962509,71.575409,-589.124512,13.758722,100.791784
1759356263,0.81358,-1.542016,-9.560197,-0.008125,-0.009009,0.008249,126.821548,69.155884,-590.521973,13.758722,100.791784
1759356263,0.735618,-1.52795,-9.60838,-0.015958,-0.009752,0.011928,126.890335,68.687225,-590.502991,13.758722,100.791784
1759356263,0.735768,-1.477821,-9.633519,-0.007118,-0.010904,-0.000375,126.674774,76.005707,-587.90155,13.758722,100.791784
1759356263,0.793229,-1.515979,-9.668235,-0.007047,-0.011978,0.00264,127.277725,68.462112,-590.589844,13.758722,100.791784
1759356263,0.819565,-1.479916,-9.714773,0.013101,-0.02047,0.01661,126.779785,77.304337,-587.64978,13.758722,100.791784
1759356263,0.777966,-1.480963,-9.619753,0.019833,-0.027801,0.015066,126.963226,68.383575,-590.792786,13.758722,100.791784
1759356263,0.783951,-1.474529,-9.56289,0.008311,-0.027109,0.011176,127.090668,68.502533,-590.514648,13.758722,100.791784
1759356263,0.793079,-1.52361,-9.530269,-0.001049,-0.029944,0.013529,126.73851,76.557938,-588.232422,13.758722,100.791784
1759356263,0.817321,-1.511938,-9.494356,-0.010747,-0.009384,0.024346,126.780182,68.452271,-590.876343,13.758722,100.791784
1759356263,0.748338,-1.488894,-9.553314,-0.013745,0.006424,0.012588,126.448639,77.468796,-587.989258,13.758722,100.791784
1759356263,0.758513,-1.466149,-9.593566,-0.01153,-0.012508,-0.001636,126.37146,77.663666,-587.468018,13.758722,100.791784
1759356263,0.802207,-1.493982,-9.585785,-0.00873,-0.013482,-0.003849,126.919479,69.218765,-590.481812,13.758722,100.791784
1759356263,0.81343,-1.572691,-9.560496,-0.0089,0.00659,0.008896,126.638321,77.13118,-587.855225,13.758722,100.791784
1759356263,0.834679,-1.562965,-9.60419,-0.001189,0.000728,0.030383,127.038193,68.726028,-590.874146,13.758722,100.791784
1759356263,0.811634,-1.555184,-9.62065,-0.003599,0.000389,0.038751,126.945343,70.772964,-590.006226,13.758722,100.791784
1759356263,0.699705,-1.539472,-9.636213,-0.004989,0.003398,0.039031,126.456879,77.229401,-587.430176,13.758722,100.791784
1759356263,0.651372,-1.48231,-9.633819,-0.019068,-0.007525,0.023048,126.964355,68.594055,-590.737427,13.758722,100.791784
1759356263,0.664092,-1.47423,-9.687688,-0.021038,-0.018815,0.016896,126.5896,76.368713,-587.891235,13.758722,100.791784
1759356263,0.648529,-1.466897,-9.801413,0.011859,-0.030164,0.012638,126.914993,69.017517,-590.223694,13.758722,100.791784
1759356263,0.626682,-1.486201,-9.698911,0.024594,-0.021491,-0.003625,126.97403,70.590256,-589.644409,13.758722,100.791784
1759356263,0.645537,-1.508048,-9.528324,-0.000763,-0.0098,-0.01577,126.39975,77.825623,-587.468506,13.758722,100.791784
1759356263,0.761206,-1.541716,-9.539098,-0.014551,0.010258,-0.005571,126.781769,68.744614,-590.485291,13.758722,100.791784
1759356263,0.840514,-1.534534,-9.68709,0.01315,-0.011831,0.009988,126.213898,76.792343,-588.043091,13.758722,100.791784
1759356263,0.818967,-1.526603,-9.661651,0.021124,-0.017434,0.009002,126.788635,68.820404,-590.612854,13.758722,100.791784
1759356263,0.809539,-1.555633,-9.578303,0.015205,-0.000114,0.008959,126.907745,69.236389,-590.170532,13.758722,100.791784
1759356263,0.866851,-1.557428,-9.507225,0.00724,0.014425,0.02941,126.308212,77.518112,-587.716431,13.758722,100.791784
1759356263,0.874781,-1.577779,-9.557354,0.003728,0.014624,0.04288,126.762299,68.650742,-590.27063,13.758722,100.791784
1759356263,0.815525,-1.512687,-9.607033,0.018048,0.000284,0.0399,126.500412,76.527542,-587.996948,13.758722,100.791784
1759356263,0.734571,-1.53199,-9.579201,0.028052,0.020653,0.032365,127.317337,69.004211,-590.090576,13.758722,100.791784
1759356263,0.745943,-1.52765,-9.599103,0.034963,0.035658,0.043962,126.847351,70.614822,-589.619812,13.758722,100.791784
1759356263,0.737564,-1.504905,-9.482685,0.027472,0.030999,0.044697,126.518036,77.657669,-587.283508,13.758722,100.791784
1759356264,0.637157,-1.469741,-9.467272,-0.005772,0.022812,0.027193,126.960037,69.163193,-590.26001,13.758722,100.791784
1759356264,0.605583,-1.476624,-9.450662,-0.03421,0.02106,0.009379,126.495972,77.449844,-587.582642,13.758722,100.791784
1759356264,0.641496,-1.503259,-9.672425,-0.042718,0.035026,0.009082,127.009766,69.764511,-590.283081,13.758722,100.791784
1759356264,0.682946,-1.447445,-9.828048,0.001052,-0.011327,-0.000716,126.969971,69.6436,-590.392273,13.758722,100.791784
1759356264,0.698957,-1.52361,-9.730784,0.019244,-0.018156,-0.005556,126.678757,76.681366,-587.979004,13.758722,100.791784
1759356264,0.704494,-1.603367,-9.567679,0.001898,0.000962,0.010499,126.905136,68.553665,-590.470398,13.758722,100.791784
1759356264,0.716914,-1.628805,-9.555408,-0.031252,-0.005062,0.023438,126.563049,77.227936,-587.68103,13.758722,100.791784
1759356264,0.637007,-1.591396,-9.727492,-0.021874,-0.025578,0.006272,127.075211,68.779922,-590.612671,13.758722,100.791784
1759356264,0.641796,-1.542913,-9.830143,0.014271,-0.021324,-0.006373,126.700317,68.939453,-590.661621,13.758722,100.791784
1759356264,0.652719,-1.597681,-9.750237,0.025845,-0.005117,-0.011188,126.435547,75.735321,-588.13916,13.758722,100.791784
1759356264,0.703746,-1.606509,-9.682451,0.012461,-0.020525,-0.003312,127.111282,68.63118,-590.360413,13.758722,100.791784
1759356264,0.721403,-1.573589,-9.721656,0.02696,-0.039837,-0.007412,126.426987,80.213196,-587.014038,13.758722,100.791784
1759356264,0.692224,-1.563414,-9.599552,0.026898,-0.029135,-0.017337,127.035706,68.628311,-590.381775,13.758722,100.791784
1759356264,0.716166,-1.589451,-9.485827,0.016105,-0.022492,-0.009525,126.886978,69.298767,-590.362671,13.758722,100.791784
1759356264,0.726341,-1.571793,-9.470115,0.002434,-0.00612,0.002359,126.54364,75.914337,-588.200439,13.758722,100.791784
1759356264,0.65242,-1.549497,-9.491214,-0.006962,-0.012033,-0.008608,127.076431,68.552689,-590.915405,13.758722,100.791784
1759356264,0.628179,-1.505953,-9.471312,-0.017378,-0.029567,-0.017389,126.601532,77.757385,-587.878662,13.758722,100.791784
