SamplingTime,AccelerationX,AccelerationY,AccelerationZ,GyroX,GyroY,GyroZ,Subject,Activity
1759736165.29092,-0.009726,-3.511396,-9.316288,-0.009762,0.350569,0.01103,1,IDLE
1759736165.31164,-0.110732,-3.716848,-9.642647,0.042263,0.30232,-0.040312,1,IDLE
1759736165.33162,0.279822,-3.598934,-9.318083,0.004195,0.085194,-0.015069,1,IDLE
1759736165.35163,0.130334,-3.574244,-9.607931,0.046197,-0.012153,-0.012659,1,IDLE
1759736165.37070,0.088436,-3.514538,-9.558401,0.066093,-0.049105,-0.023498,1,IDLE
1759736165.39096,-0.031424,-3.648464,-9.317784,0.059913,-0.079742,-0.050257,1,IDLE
1759736165.41097,-0.202011,-3.651756,-9.204957,0.015267,-0.031748,-0.084068,1,IDLE
1759736165.43162,-0.085892,-3.644573,-9.149442,-0.046682,0.040587,-0.099991,1,IDLE
1759736165.45162,-0.021847,-3.686023,-9.088988,-0.089602,0.032207,-0.082947,1,IDLE
1759736165.47072,-0.004938,-3.689914,-9.123854,-0.104478,0.053869,-0.083442,1,IDLE
1759736165.49096,0.058658,-3.599084,-9.250297,-0.076178,0.053662,-0.07563,1,IDLE
1759736165.51163,0.014515,-3.568558,-9.553463,-0.001239,0.081357,-0.096029,1,IDLE
1759736165.53162,0.023493,-3.548207,-9.458294,0.11221,0.06483,-0.152509,1,IDLE
1759736165.55164,0.137966,-3.606117,-9.229049,0.133772,0.058217,-0.185845,1,IDLE
1759736165.57133,0.239271,-3.724031,-9.012224,0.104024,0.057636,-0.184866,1,IDLE
1759736165.59162,0.368258,-3.749469,-8.865579,0.05416,0.060935,-0.160702,1,IDLE
1759736165.61163,0.328155,-3.784485,-8.858995,0.017995,0.068305,-0.140316,1,IDLE
1759736165.63162,0.409708,-3.760243,-8.918401,-0.008463,0.029103,-0.099848,1,IDLE
1759736165.65163,0.265158,-3.677494,-8.966734,-0.016651,0.005733,-0.078879,1,IDLE
1759736165.67163,0.2478,-3.727473,-9.117419,0.019992,-0.038009,-0.067256,1,IDLE
1759736165.69083,0.273837,-3.62138,-9.097218,0.065193,-0.016142,-0.066503,1,IDLE
1759736165.71159,0.168492,-3.689764,-9.002198,0.071026,0.026797,-0.076861,1,IDLE
1759736165.73162,0.195277,-3.73271,-8.880992,0.01983,0.004035,-0.093217,1,IDLE
1759736165.75163,0.231789,-3.712958,-8.833108,-0.015965,-0.029158,-0.152824,1,IDLE
1759736165.77131,0.261118,-3.823241,-8.842086,-0.059612,-0.076844,-0.18419,1,IDLE
1759736165.79145,0.373196,-3.809773,-8.871565,-0.108934,-0.084968,-0.147519,1,IDLE
1759736165.81125,0.530016,-3.769671,-8.96449,-0.130954,-0.080183,-0.074746,1,IDLE
1759736165.83126,0.531213,-3.673005,-9.132832,-0.102446,-0.070289,-0.023015,1,IDLE
1759736165.85163,0.4543,-3.662081,-9.263914,-0.026305,-0.081176,-0.003239,1,IDLE
1759736165.87132,0.402376,-3.536834,-9.145252,0.04058,-0.047661,-0.000995,1,IDLE
1759736165.89162,0.272191,-3.575291,-8.958803,0.033633,-0.017255,-0.013331,1,IDLE
1759736165.91163,0.37978,-3.620931,-8.817994,-0.028273,-0.004432,-0.032847,1,IDLE
1759736165.93161,0.395343,-3.690662,-8.972121,-0.080387,-0.03366,-0.05612,1,IDLE
1759736165.95166,0.479439,-3.706523,-9.157372,-0.091332,-0.066855,-0.08141,1,IDLE
1759736165.97132,0.456095,-3.648314,-9.312846,-0.049058,-0.075731,-0.093122,1,IDLE
1759736165.99162,0.550816,-3.640683,-9.413552,0.019704,-0.03906,-0.084065,1,IDLE
1759736166.01142,0.748188,-3.681384,-9.343971,0.071412,-0.053521,-0.031526,1,IDLE
1759736166.03118,0.710779,-3.735254,-9.120861,0.082334,-0.105457,0.022863,1,IDLE
1759736166.05162,0.56967,-3.736152,-9.034819,0.055185,-0.100472,0.046669,1,IDLE
1759736166.07130,0.47884,-3.751265,-8.966136,0.021673,-0.103993,0.065742,1,IDLE
1759736166.09161,0.50383,-3.737199,-9.003545,0.010752,-0.098992,0.086246,1,IDLE
1759736166.11162,0.469114,-3.656694,-9.076269,0.030893,-0.087806,0.099336,1,IDLE
1759736166.13162,0.42512,-3.605219,-9.042002,0.062414,-0.114911,0.092883,1,IDLE
1759736166.15166,0.273837,-3.57993,-8.981548,0.099365,-0.12385,0.078827,1,IDLE
1759736166.17129,0.171485,-3.730765,-9.003246,0.127813,-0.107319,0.052139,1,IDLE
1759736166.19162,0.320374,-3.648314,-8.761431,0.076489,-0.091493,0.070127,1,IDLE
1759736166.21163,0.164601,-3.811868,-8.670452,0.01864,-0.104368,0.077805,1,IDLE
1759736166.23161,0.186448,-3.7577,-8.780435,-0.013712,-0.150479,0.116298,1,IDLE
1759736166.25163,0.096666,-3.689614,-8.715193,-0.008363,-0.176774,0.112201,1,IDLE
1759736166.27130,-0.168193,-3.773262,-8.696638,0.015776,-0.141655,0.099504,1,IDLE
1759736166.29161,-0.266953,-3.850624,-8.557326,0.02257,-0.039025,0.091555,1,IDLE
1759736166.31163,-0.332644,-4.065205,-8.483405,-0.046724,0.08407,0.086982,1,IDLE
1759736166.33140,-0.159065,-4.006696,-8.72911,-0.131702,0.160367,0.111657,1,IDLE
1759736166.35163,-0.030227,-3.869479,-8.971971,-0.170019,0.127223,0.136378,1,IDLE
1759736166.37130,-0.048034,-3.727622,-9.152734,-0.135646,0.051293,0.132247,1,IDLE
1759736166.39161,-0.19393,-3.644274,-9.109937,-0.093632,0.003461,0.090137,1,IDLE
1759736166.41164,-0.3304,-3.768922,-8.971373,-0.130091,0.030538,0.051872,1,IDLE
1759736166.43161,-0.27249,-3.786729,-8.999355,-0.176225,0.057456,0.039301,1,IDLE
1759736166.45163,-0.175226,-3.661333,-9.303119,-0.146455,0.077166,0.032409,1,IDLE
1759736166.47130,-0.003891,-3.494188,-9.436147,-0.064145,0.023648,0.036037,1,IDLE
1759736166.49162,0.083049,-3.335721,-9.494057,0.021542,-0.043404,-0.001694,1,IDLE
1759736166.51163,0.023044,-3.335273,-9.391555,0.101242,-0.105223,-0.06605,1,IDLE
1759736166.53161,0.143054,-3.403058,-9.318382,0.191949,-0.169108,-0.108849,1,IDLE
1759736166.55164,0.456694,-3.298312,-9.03856,0.207878,-0.29835,-0.040901,1,IDLE
1759736166.57129,0.181062,-3.494487,-8.57633,0.098314,-0.364838,0.035691,1,IDLE
1759736166.59135,-0.181361,-3.493739,-8.550592,-0.026042,-0.27121,0.075311,1,IDLE
1759736166.61068,-0.220267,-3.35712,-8.673893,-0.123978,-0.192042,0.094722,1,IDLE
1759736166.63162,-0.423026,-3.457078,-8.84463,-0.161892,-0.130348,0.020587,1,IDLE
1759736166.65162,-0.415993,-3.557185,-8.904335,-0.154977,-0.155636,-0.063086,1,IDLE
1759736166.67132,-0.489465,-3.811719,-8.699332,-0.124539,-0.151905,-0.12676,1,IDLE
1759736166.69162,-0.492308,-3.938162,-8.551939,-0.159735,-0.016031,-0.125072,1,IDLE
1759736166.71161,-0.298377,-4.025252,-8.736292,-0.294943,0.194073,-0.047903,1,IDLE
1759736166.73161,-0.231789,-3.739743,-9.038859,-0.448309,0.337388,-0.019597,1,IDLE
1759736166.75162,0.114922,-3.320309,-9.672425,-0.500844,0.269669,-0.047043,1,IDLE
1759736166.77132,0.49949,-2.778172,-9.974543,-0.419905,-0.047341,-0.122411,1,IDLE
1759736166.79161,0.402974,-2.595464,-10.153061,-0.268292,-0.28877,-0.256694,1,IDLE
1759736166.81162,0.14859,-2.53112,-9.592519,-0.106068,-0.509662,-0.379611,1,IDLE
1759736166.83163,-0.197522,-2.577208,-9.098415,0.00528,-0.509124,-0.498157,1,IDLE
1759736166.85162,-0.233435,-2.944419,-9.192687,0.090742,-0.41526,-0.418675,1,IDLE
1759736166.87132,-0.032172,-3.091962,-9.001899,0.176068,-0.376291,-0.199038,1,IDLE
1759736166.89161,-0.295834,-3.165135,-8.98499,0.280438,-0.162132,-0.089724,1,IDLE
1759736166.91162,-0.871639,-3.104531,-8.911518,0.550763,0.039453,-0.206554,1,IDLE
1759736166.93094,-0.811784,-3.224391,-9.215731,0.787027,0.176208,-0.314497,1,IDLE
1759736166.95086,-0.783054,-3.454384,-9.309105,0.915955,0.300869,-0.354314,1,IDLE
1759736166.97130,-0.402525,-3.75321,-9.039159,0.961078,0.254257,-0.33947,1,IDLE
1759736166.99160,0.124349,-3.902549,-8.1964,0.638659,-0.191753,-0.129035,1,IDLE
1759736167.01127,0.156521,-4.205714,-7.954885,-0.011041,-0.38276,0.162215,1,IDLE
1759736167.03162,-0.224007,-4.421791,-7.946954,-0.543481,-0.479247,0.335373,1,IDLE
1759736167.05146,-1.175403,-4.843769,-8.982596,-0.697148,-0.363626,0.175861,1,IDLE
1759736167.07130,-1.25127,-4.420145,-9.554062,-0.558327,-0.294608,-0.005326,1,IDLE
1759736167.09159,-0.725892,-3.353977,-9.568427,-0.294022,-0.321094,-0.056405,1,IDLE
1759736167.11162,-0.956035,-3.667318,-9.742755,-0.02206,-0.324373,-0.160958,1,IDLE
1759736167.13119,-0.924162,-3.728221,-9.180866,0.068227,-0.419774,-0.175876,1,IDLE
1759736167.15162,-0.929549,-3.748572,-8.383896,-0.114536,-0.437216,-0.130831,1,IDLE
1759736167.17130,-1.01559,-3.946093,-8.260445,-0.322026,-0.216992,-0.053545,1,IDLE
1759736167.19159,-1.166126,-4.173692,-8.804677,-0.319226,0.113436,0.036196,1,IDLE
1759736167.21161,-0.896629,-3.42311,-10.067917,0.036474,0.285087,0.125748,1,IDLE
1759736167.23162,-0.651372,-3.028216,-10.78543,0.496903,0.293596,0.208467,1,IDLE
1759736167.25162,0.007482,-2.677466,-10.304045,0.731333,0.180247,0.490897,1,IDLE
1759736167.27135,0.126444,-3.156605,-10.167426,0.828403,0.157537,0.732159,1,IDLE
1759736167.29159,-0.458639,-3.729119,-9.933243,0.816207,0.231264,0.75083,1,IDLE
1759736167.31161,-1.382203,-3.799149,-8.317157,0.361345,0.306795,0.528135,1,IDLE
1759736167.33067,-1.482759,-3.977368,-7.819014,0.082174,0.268488,0.405392,1,IDLE
1759736167.35160,-1.617582,-5.01286,-8.337658,-0.363668,0.169946,0.203075,1,IDLE
1759736167.37130,-1.613842,-5.217265,-8.636484,-0.413415,0.275572,0.12917,1,IDLE
1759736167.39159,-1.236306,-4.186112,-8.297555,-0.76089,0.86896,0.065109,1,IDLE
1759736167.41160,-0.912191,-3.300706,-8.565556,-0.971031,0.605558,-0.119813,1,IDLE
1759736167.43098,-0.578798,-3.219303,-9.258527,-0.949341,0.439475,-0.28085,1,IDLE
1759736167.45160,-0.439186,-3.021782,-10.408642,-0.551607,-0.083485,-0.531124,1,IDLE
1759736167.47130,-0.371401,-2.768296,-10.499173,0.04119,-0.413881,-0.616612,1,IDLE
1759736167.49159,0.199168,-1.826327,-10.224887,0.392851,-0.282941,-0.442657,1,IDLE
1759736167.51162,-0.082301,-2.56419,-9.234137,0.41402,-0.025113,-0.332602,1,IDLE
1759736167.53162,-0.357933,-3.371634,-8.549544,0.237479,0.186938,-0.308091,1,IDLE
1759736167.55161,-0.380977,-3.823241,-8.207323,0.068434,0.104076,-0.287999,1,IDLE
1759736167.57130,-0.164751,-3.8813,-8.667459,0.105628,-0.138537,-0.257589,1,IDLE
1759736167.59159,-0.072425,-3.627814,-9.052028,0.187123,-0.195864,-0.186868,1,IDLE
1759736167.61161,-0.28476,-3.664775,-9.000253,0.221598,-0.115769,-0.184437,1,IDLE
1759736167.63162,-0.529567,-3.886089,-8.880842,0.190884,-0.000998,-0.213684,1,IDLE
1759736167.65161,-0.421679,-3.950732,-8.710255,0.146054,0.08017,-0.147606,1,IDLE
1759736167.67130,-0.288501,-3.903596,-8.813804,0.100647,0.221695,-0.149162,1,IDLE
1759736167.69159,-0.128389,-4.109348,-9.075221,0.126347,0.09888,-0.103051,1,IDLE
1759736167.71161,-0.027982,-3.901501,-8.977059,0.08635,-0.200365,-0.015921,1,IDLE
1759736167.73161,-0.286556,-3.965696,-8.635586,-0.017584,-0.305464,-0.017539,1,IDLE
1759736167.75162,-0.472556,-4.17025,-8.997859,0.007224,-0.021622,-0.018172,1,IDLE
1759736167.77129,-0.34686,-4.291457,-8.931719,-0.010265,0.392079,0.081718,1,IDLE
1759736167.79106,-0.35524,-4.412514,-9.141212,0.042231,0.596376,0.184401,1,IDLE
1759736167.81162,-0.074819,-4.07119,-8.981997,-0.006589,0.47452,0.248994,1,IDLE
1759736167.83082,0.126144,-3.841347,-8.618827,-0.216316,0.284266,0.290452,1,IDLE
1759736167.85161,0.287005,-3.916914,-9.019407,-0.322725,0.191507,0.361948,1,IDLE
1759736167.87129,0.608875,-4.113238,-9.297284,-0.389831,-0.027005,0.515615,1,IDLE
1759736167.89159,0.20216,-4.195389,-9.744401,-0.267783,-0.135375,0.485568,1,IDLE
1759736167.91074,-0.176872,-4.176834,-9.965864,-0.03665,0.148354,0.408544,1,IDLE
1759736167.93161,-0.073921,-4.31495,-9.818771,0.041157,0.441076,0.434676,1,IDLE
1759736167.95162,-0.268001,-4.068048,-9.499743,0.08611,0.443284,0.324858,1,IDLE
1759736167.97129,-0.810288,-3.882048,-9.214534,0.054277,0.39187,-0.011545,1,IDLE
1759736167.99159,-0.666785,-3.53848,-8.735993,-0.015112,0.247562,-0.256533,1,IDLE
1759736168.01161,-0.283863,-3.12982,-8.380155,-0.066782,0.168087,-0.404823,1,IDLE
1759736168.03161,-0.207098,-3.382259,-8.792855,-0.134011,0.384888,-0.412159,1,IDLE
1759736168.05161,0.485424,-3.314024,-9.258527,-0.141615,0.506737,-0.231586,1,IDLE
1759736168.07130,0.987907,-3.180098,-9.598354,-0.044315,0.335225,-0.013696,1,IDLE
1759736168.09140,0.953042,-2.736572,-9.425822,-0.040921,0.26352,0.081999,1,IDLE
1759736168.11162,0.37155,-2.831592,-9.31928,-0.023827,0.187589,-0.07662,1,IDLE
1759736168.13163,0.350302,-2.834884,-8.765472,0.038492,-0.143316,-0.250883,1,IDLE
1759736168.15161,0.611419,-2.911798,-8.71654,0.0947,-0.262014,-0.297206,1,IDLE
1759736168.17129,0.784849,-3.115754,-8.746767,0.116039,-0.112559,-0.185885,1,IDLE
1759736168.19158,0.821959,-3.394529,-8.950124,0.128887,0.121862,-0.019411,1,IDLE
1759736168.21161,0.824204,-3.34889,-8.752902,0.132305,0.193727,0.061208,1,IDLE
1759736168.23150,0.773177,-3.375375,-8.512434,0.056944,0.136745,0.038747,1,IDLE
1759736168.25161,0.84665,-3.470246,-8.478167,-0.053006,0.029725,0.008603,1,IDLE
1759736168.27130,0.823306,-3.461417,-8.597429,-0.141046,-0.100334,-0.008824,1,IDLE
1759736168.29159,0.699257,-3.432687,-8.988432,-0.1506,-0.162169,-0.052062,1,IDLE
1759736168.31165,0.686238,-3.45184,-9.026739,-0.094822,-0.230279,-0.090429,1,IDLE
1759736168.33162,0.679355,-3.4891,-9.24491,-0.006636,-0.161387,-0.08393,1,IDLE
1759736168.35161,0.741155,-3.506757,-9.101408,0.079765,-0.076729,-0.076744,1,IDLE
1759736168.37129,0.642095,-3.588609,-9.101109,0.124823,0.084018,-0.088363,1,IDLE
1759736168.39158,0.578499,-3.696348,-9.10874,0.171815,0.159889,-0.10571,1,IDLE
1759736168.41159,0.77198,-3.689914,-9.047239,0.185056,0.155584,-0.082356,1,IDLE
1759736168.43161,1.087117,-3.733009,-9.160066,0.178424,0.077743,0.033736,1,IDLE
1759736168.45161,0.977283,-3.821295,-8.970924,0.123234,0.025636,0.088445,1,IDLE
1759736168.47132,0.700603,-3.81112,-8.941296,0.074987,0.044679,0.058475,1,IDLE
1759736168.49158,0.588225,-3.763086,-8.984541,0.036359,0.104617,0.022945,1,IDLE
1759736168.51161,0.586879,-3.81127,-9.020155,0.001308,0.101223,-0.013045,1,IDLE
1759736168.53160,0.888398,-3.804686,-9.151836,0.010721,0.041201,0.015209,1,IDLE
1759736168.55160,0.886154,-3.822792,-9.088988,0.033366,-0.008697,0.034871,1,IDLE
1759736168.57130,0.857723,-3.818602,-8.973767,0.039498,0.000052,0.051728,1,IDLE
1759736168.59158,0.731728,-3.862745,-9.02225,0.054564,0.053336,0.061994,1,IDLE
1759736168.61161,0.731279,-3.797054,-9.014469,0.081788,0.087755,0.067613,1,IDLE
1759736168.63161,0.685789,-3.84,-8.953566,0.085589,0.113525,0.076249,1,IDLE
1759736168.65161,0.66499,-3.858256,-8.798541,0.03677,0.06846,0.085861,1,IDLE
1759736168.67129,0.755071,-3.85676,-8.841936,-0.022983,-0.042345,0.091712,1,IDLE
1759736168.69134,0.597353,-3.800197,-8.962844,-0.026762,-0.065818,0.076388,1,IDLE
1759736168.71161,0.459687,-3.775656,-8.997859,0.009614,0.004703,0.059239,1,IDLE
1759736168.73161,0.479738,-3.784784,-8.966435,0.044182,0.071906,0.058758,1,IDLE
1759736168.75160,0.740108,-3.764433,-8.918102,0.054868,0.039146,0.098373,1,IDLE
1759736168.77128,0.702848,-3.876961,-8.87755,0.040565,-0.024536,0.128646,1,IDLE
1759736168.79158,0.559645,-3.861698,-8.794501,0.009563,-0.031159,0.11303,1,IDLE
1759736168.81161,0.603638,-3.813514,-8.711602,-0.046323,-0.012559,0.112231,1,IDLE
1759736168.83161,0.590919,-3.785682,-8.768165,-0.081362,0.012287,0.10949,1,IDLE
1759736168.85160,0.518494,-3.742586,-8.885481,-0.047352,-0.0079,0.090074,1,IDLE
1759736168.87128,0.43754,-3.698443,-8.877251,-0.014271,-0.025557,0.06034,1,IDLE
1759736168.89158,0.358981,-3.763984,-8.690054,-0.016916,-0.036396,0.014091,1,IDLE
1759736168.91161,0.352995,-3.74528,-8.619725,-0.040116,-0.004027,-0.006803,1,IDLE
1759736168.93160,0.43365,-3.806631,-8.708609,-0.057848,-0.034421,-0.007436,1,IDLE
1759736168.95160,0.5369,-3.799299,-8.647557,-0.078597,-0.046906,-0.023542,1,IDLE
1759736168.97128,0.489315,-3.830423,-8.761431,-0.084221,0.025856,-0.027466,1,IDLE
1759736168.99158,0.633266,-3.82339,-8.933215,-0.071028,0.057866,-0.017383,1,IDLE
1759736169.01161,0.68534,-3.807678,-8.935759,-0.060222,0.042458,-0.006405,1,IDLE
1759736169.03096,0.720804,-3.817106,-8.967782,-0.083012,0.003584,0.019907,1,IDLE
1759736169.05160,0.787692,-3.836858,-9.0016,-0.122455,-0.076777,0.054779,1,IDLE
1759736169.07130,0.765546,-3.783587,-8.98903,-0.174556,-0.133705,0.084112,1,IDLE
1759736169.09158,0.597802,-3.80304,-9.110237,-0.169406,-0.137092,0.079076,1,IDLE
1759736169.11069,0.611719,-3.748422,-9.210045,-0.135362,-0.128693,0.077765,1,IDLE
1759736169.13158,0.595558,-3.738247,-9.161413,-0.114958,-0.110733,0.084221,1,IDLE
1759736169.15160,0.50802,-3.712659,-9.111134,-0.118279,-0.103692,0.092923,1,IDLE
1759736169.17130,0.33878,-3.671957,-9.036765,-0.122743,-0.135432,0.075519,1,IDLE
1759736169.19158,0.280571,-3.617339,-9.141212,-0.118072,-0.172985,0.060056,1,IDLE
1759736169.21161,0.149189,-3.543119,-9.194333,-0.106475,-0.151563,0.027886,1,IDLE
1759736169.23087,-0.036811,-3.547159,-9.329605,-0.066457,-0.08303,-0.023305,1,IDLE
1759736169.25159,0.023343,-3.475932,-9.470265,0.036034,-0.057661,-0.039377,1,IDLE
1759736169.27134,0.07422,-3.500323,-9.349058,0.097242,-0.034759,-0.04037,1,IDLE
1759736169.29083,0.042647,-3.555988,-9.085846,0.093462,-0.019958,-0.040812,1,IDLE
1759736169.31075,0.043096,-3.615394,-9.027337,0.044469,-0.005908,-0.03403,1,IDLE
1759736169.33089,0.141408,-3.543718,-8.906131,-0.009779,-0.022351,-0.024587,1,IDLE
1759736169.35159,0.110732,-3.614646,-8.977807,-0.100956,-0.040344,-0.01545,1,IDLE
1759736169.37129,0.092326,-3.624672,-9.034819,-0.11054,-0.05529,-0.01657,1,IDLE
1759736169.39157,0.025738,-3.512443,-9.163208,-0.079253,-0.030204,-0.047355,1,IDLE
1759736169.41160,0.075268,-3.507805,-9.202413,-0.070159,0.00513,-0.04614,1,IDLE
1759736169.43096,0.187496,-3.596241,-9.295189,-0.055655,0.031397,-0.034929,1,IDLE
1759736169.45101,0.287603,-3.496732,-9.299379,-0.04432,-0.008266,-0.042267,1,IDLE
1759736169.47128,0.298677,-3.465607,-9.271696,-0.037455,-0.057803,-0.052215,1,IDLE
1759736169.49157,0.365565,-3.453786,-9.314791,-0.015426,-0.047558,-0.04954,1,IDLE
1759736169.51064,0.307206,-3.532944,-9.311798,0.026444,-0.035661,-0.057129,1,IDLE
1759736169.53160,0.32187,-3.476381,-9.223213,0.05723,-0.066752,-0.075243,1,IDLE
1759736169.55160,0.335488,-3.479074,-9.082703,0.051773,-0.054207,-0.088017,1,IDLE
1759736169.57127,0.433799,-3.54267,-9.029283,0.019327,-0.010264,-0.080739,1,IDLE
1759736169.59157,0.535403,-3.531447,-9.066692,0.013941,0.016788,-0.050835,1,IDLE
1759736169.61160,0.60693,-3.50167,-8.996512,0.018754,0.02198,-0.011141,1,IDLE
1759736169.63160,0.632219,-3.532944,-8.942493,-0.014946,0.0163,0.049416,1,IDLE
1759736169.65160,0.559046,-3.50556,-8.933515,-0.051319,0.006842,0.089682,1,IDLE
1759736169.67132,0.383372,-3.432687,-9.074922,-0.062999,0.00187,0.087606,1,IDLE
1759736169.69157,0.345663,-3.341258,-9.135974,-0.067541,0.00715,0.079846,1,IDLE
1759736169.71159,0.303914,-3.387945,-9.190891,-0.067499,0.009468,0.082785,1,IDLE
1759736169.73159,0.262315,-3.366547,-9.15827,-0.056367,0.010818,0.085326,1,IDLE
1759736169.75098,0.230741,-3.388244,-9.243863,-0.061117,0.030394,0.083132,1,IDLE
1759736169.77127,0.252588,-3.340211,-9.275736,-0.064508,0.01436,0.070832,1,IDLE
1759736169.79157,0.225504,-3.307739,-9.246407,-0.042842,-0.04408,0.031077,1,IDLE
1759736169.81160,0.191835,-3.275866,-9.131335,-0.028472,-0.057584,0.00188,1,IDLE
1759736169.83160,0.084246,-3.351733,-9.067291,-0.021342,0.01136,-0.030881,1,IDLE
1759736169.85106,0.079308,-3.348441,-9.006089,-0.01132,0.039624,-0.05293,1,IDLE
1759736169.87127,0.289848,-3.370138,-9.134478,0.002162,0.027027,-0.04709,1,IDLE
1759736169.89157,0.320075,-3.358317,-9.110386,-0.005614,0.050305,-0.023551,1,IDLE
1759736169.91159,0.323367,-3.367744,-9.256133,-0.005808,0.047376,0.015016,1,IDLE
1759736169.93160,0.436343,-3.302352,-9.273192,0.000568,-0.058927,0.028602,1,IDLE
1759736169.95107,0.263362,-3.289633,-9.289203,-0.029143,-0.040753,0.009096,1,IDLE
1759736169.97128,0.254085,-3.409044,-9.395895,-0.023149,-0.022643,0.006032,1,IDLE
1759736169.99157,0.482731,-3.32001,-9.46413,0.030355,-0.047538,0.033303,1,IDLE
1759736170.01159,0.321122,-3.382408,-9.355792,0.071643,-0.025707,0.035288,1,IDLE
1759736170.03144,0.251391,-3.464859,-9.086594,0.048508,-0.032374,0.033874,1,IDLE
1759736170.05104,0.218172,-3.491195,-8.918252,-0.0132,-0.039373,0.030552,1,IDLE
1759736170.07127,0.184952,-3.467253,-8.967632,-0.056053,-0.004709,0.027443,1,IDLE
1759736170.09157,0.220865,-3.400963,-9.112332,-0.058148,-0.005076,0.024188,1,IDLE
1759736170.11163,0.198719,-3.313276,-9.198074,-0.030691,-0.037274,-0.01324,1,IDLE
1759736170.13157,0.108637,-3.352032,-9.127894,-0.012739,-0.041007,-0.054827,1,IDLE
1759736170.15106,0.135123,-3.399018,-9.179369,0.015711,-0.00551,-0.077108,1,IDLE
1759736170.17128,0.193033,-3.453786,-9.101109,0.041168,0.050075,-0.081197,1,IDLE
1759736170.19157,0.346411,-3.509002,-9.057564,0.027539,0.06573,-0.048721,1,IDLE
1759736170.21163,0.409259,-3.504962,-9.059659,-0.003394,0.039094,-0.02616,1,IDLE
1759736170.23158,0.442029,-3.467702,-9.164256,-0.0191,0.007887,-0.001555,1,IDLE
1759736170.25107,0.446668,-3.380164,-9.368062,0.01791,0.005297,0.025876,1,IDLE
1759736170.27087,0.426617,-3.337667,-9.41026,0.069127,0.008906,0.0436,1,IDLE
1759736170.29157,0.381576,-3.313425,-9.220968,0.059025,-0.00651,0.049173,1,IDLE
1759736170.31159,0.402376,-3.358167,-9.069834,0.020871,-0.033649,0.055045,1,IDLE
1759736170.33159,0.381875,-3.362357,-9.080459,0.015475,-0.038816,0.07259,1,IDLE
1759736170.35111,0.269647,-3.43553,-9.028385,0.018269,-0.022472,0.076136,1,IDLE
1759736170.37128,0.188693,-3.449895,-8.880094,-0.004429,0.011635,0.075534,1,IDLE
1759736170.39157,0.181959,-3.463512,-8.879495,-0.043055,0.05802,0.083526,1,IDLE
1759736170.41159,0.192733,-3.413533,-8.990377,-0.061546,0.050406,0.072338,1,IDLE
1759736170.43113,0.123002,-3.316867,-9.07178,-0.057238,0.025123,0.04348,1,IDLE
1759736170.45111,0.026336,-3.325247,-9.122507,-0.037428,0.039635,0.0025,1,IDLE
1759736170.47128,-0.001496,-3.34036,-9.100361,-0.019347,0.076555,-0.020565,1,IDLE
1759736170.49157,0.073921,-3.374777,-9.148095,-0.007905,0.067562,-0.027769,1,IDLE
1759736170.51159,0.088436,-3.378967,-9.088539,-0.016929,0.047964,-0.032596,1,IDLE
1759736170.53159,0.171784,-3.425953,-9.136722,-0.023905,0.039665,-0.028327,1,IDLE
1759736170.55111,0.285658,-3.384653,-9.230246,-0.013941,0.056779,-0.003371,1,IDLE
1759736170.57128,0.369006,-3.388394,-9.326313,-0.000128,0.029247,0.025821,1,IDLE
1759736170.59086,0.402525,-3.362507,-9.283966,0.004529,-0.029833,0.038843,1,IDLE
1759736170.61159,0.351648,-3.40231,-9.201516,-0.011455,-0.05121,0.048486,1,IDLE
1759736170.63084,0.394594,-3.389292,-9.184906,-0.026608,-0.056223,0.069754,1,IDLE
1759736170.65113,0.360477,-3.453786,-9.28621,0.010244,-0.063849,0.078131,1,IDLE
1759736170.67127,0.272191,-3.455581,-9.199271,0.038064,-0.046524,0.064543,1,IDLE
1759736170.69156,0.314987,-3.557335,-9.05083,0.006624,-0.031848,0.056297,1,IDLE
1759736170.71159,0.3304,-3.560328,-9.042002,-0.025308,-0.028046,0.063416,1,IDLE
1759736170.73159,0.368258,-3.49733,-9.118317,-0.037146,-0.030382,0.062544,1,IDLE
1759736170.75114,0.333692,-3.443012,-9.314043,-0.011846,-0.016529,0.04342,1,IDLE
1759736170.77127,0.364966,-3.367594,-9.344419,0.027022,-0.004933,0.032061,1,IDLE
1759736170.79156,0.391602,-3.378219,-9.305364,0.023946,0.011848,0.03935,1,IDLE
1759736170.81159,0.376937,-3.383157,-9.305065,-0.001081,0.001901,0.046305,1,IDLE
1759736170.83115,0.330849,-3.36101,-9.348011,-0.016846,-0.026531,0.02824,1,IDLE
1759736170.85116,0.410755,-3.248483,-9.49271,0.002804,-0.030774,0.000781,1,IDLE
1759736170.87127,0.610821,-3.171868,-9.591471,0.056843,0.004428,0.002136,1,IDLE
1759736170.89156,0.725892,-3.141941,-9.540295,0.098397,0.11555,0.02419,1,IDLE
1759736170.91161,0.965163,-3.124882,-9.435998,0.119811,0.147323,0.054243,1,IDLE
1759736170.93126,1.35452,-2.966266,-9.261071,0.115765,0.054962,0.121528,1,IDLE
1759736170.95118,1.307384,-3.00203,-8.991574,0.116006,-0.101802,0.165755,1,IDLE
1759736170.97127,1.058387,-3.192219,-8.722526,0.094763,-0.114463,0.211034,1,IDLE
1759736170.99156,0.945859,-3.355623,-8.63394,0.015,0.055526,0.296003,1,IDLE
1759736171.01163,0.989105,-3.315969,-8.852411,-0.08861,0.188176,0.401792,1,IDLE
1759736171.03159,0.819565,-3.182193,-9.089736,-0.114505,0.091606,0.400992,1,IDLE
1759736171.05120,0.746392,-3.106477,-9.259874,-0.082433,-0.030316,0.351343,1,IDLE
1759736171.07127,0.630872,-3.293823,-9.333197,-0.055355,0.022771,0.358017,1,IDLE
1759736171.09156,0.6195,-3.203292,-9.180866,-0.055552,0.127221,0.418893,1,IDLE
1759736171.11162,0.501885,-2.970606,-9.124303,-0.077112,0.165416,0.446744,1,IDLE
1759736171.13159,0.211588,-2.811242,-9.131036,-0.074868,0.185076,0.355643,1,IDLE
1759736171.15121,0.024241,-3.051709,-9.246856,-0.035532,0.203134,0.207955,1,IDLE
1759736171.17127,0.366313,-3.154959,-9.292944,0.020503,0.229808,0.161298,1,IDLE
1759736171.19114,0.465074,-3.413084,-9.11697,0.026014,0.250242,0.191805,1,IDLE
1759736171.21161,0.451307,-3.512892,-8.892065,-0.013071,0.226864,0.26526,1,IDLE
1759736171.23160,0.16535,-3.585766,-8.838644,-0.080457,0.256087,0.313829,1,IDLE
1759736171.25127,-0.141707,-3.459621,-8.927828,-0.105084,0.273979,0.29726,1,IDLE
1759736171.27130,-0.326509,-3.317316,-9.038411,-0.044613,0.218012,0.229546,1,IDLE
1759736171.29156,-0.445172,-3.431639,-8.877251,-0.046926,0.209091,0.173386,1,IDLE
1759736171.31157,-0.293589,-3.605069,-8.818443,-0.070327,0.210984,0.167943,1,IDLE
1759736171.33159,-0.02903,-3.684676,-8.747665,-0.087539,0.127443,0.193884,1,IDLE
1759736171.35123,-0.135572,-3.731962,-8.677485,-0.142035,0.127434,0.178275,1,IDLE
1759736171.37125,-0.182708,-3.878307,-8.855703,-0.149157,0.177459,0.159977,1,IDLE
1759736171.39156,-0.047734,-3.892972,-9.095273,-0.134539,0.201551,0.177201,1,IDLE
1759736171.41156,-0.593612,-4.842123,-9.570223,-0.135082,0.190324,0.11897,1,IDLE
1759736171.43121,-0.696413,-5.42571,-10.022278,-0.099605,0.199588,0.160033,1,IDLE
1759736171.45124,0.597802,-4.023306,-10.423755,0.052028,0.071093,0.398655,1,IDLE
1759736171.47125,-0.266953,-4.057274,-10.21112,0.199701,-0.110981,0.278281,1,IDLE
1759736171.49156,-0.840066,-4.437354,-10.133459,0.25596,-0.033108,0.169314,1,IDLE
1759736171.51158,-0.213383,-3.946991,-9.905112,0.245198,0.094426,0.137355,1,IDLE
1759736171.53160,0.27234,-3.706075,-9.966463,0.320728,0.100475,0.149508,1,IDLE
1759736171.55127,0.49964,-3.591302,-9.705944,0.436016,-0.0266,0.184929,1,IDLE
1759736171.57126,0.621894,-3.500472,-9.059809,0.408256,-0.177012,0.171049,1,IDLE
1759736171.59156,0.475399,-3.583521,-8.599523,0.279959,-0.116443,0.180966,1,IDLE
1759736171.61071,0.481085,-3.557933,-8.649652,0.205357,0.014121,0.22694,1,IDLE
1759736171.63158,0.571316,-3.261052,-8.877999,0.23516,0.086982,0.257131,1,IDLE
1759736171.65128,0.515801,-3.285593,-8.76592,0.29245,0.00532,0.245311,1,IDLE
1759736171.67127,0.346411,-3.370288,-8.361749,0.249976,-0.053209,0.261682,1,IDLE
1759736171.69068,-0.035165,-3.62931,-8.136844,0.114647,0.008258,0.252036,1,IDLE
1759736171.71159,-0.228197,-3.538331,-8.30369,0.056217,0.059109,0.217244,1,IDLE
1759736171.73158,-0.335936,-3.459023,-8.544158,0.098112,0.04503,0.144721,1,IDLE
1759736171.75131,-0.392051,-3.590105,-8.516624,0.110081,0.06597,0.083706,1,IDLE
1759736171.77126,-0.183456,-3.839851,-8.366388,0.010462,0.112337,0.079282,1,IDLE
1759736171.79156,0.033968,-3.864092,-8.585308,-0.066073,0.089558,0.098701,1,IDLE
1759736171.81071,0.083498,-3.804386,-8.850466,-0.053701,0.037136,0.094064,1,IDLE
1759736171.83158,0.009278,-3.854814,-8.95611,-0.010749,0.042912,0.044437,1,IDLE
1759736171.85131,0.246303,-3.907936,-8.954913,0.018436,0.029084,0.037978,1,IDLE
1759736171.87126,0.362273,-4.026149,-8.849867,0.032118,-0.023493,0.047145,1,IDLE
1759736171.89155,0.381726,-4.062811,-8.582914,0.001988,-0.07358,0.077219,1,IDLE
1759736171.91157,0.16101,-4.143316,-8.408287,-0.055303,-0.082744,0.094546,1,IDLE
1759736171.93158,-0.091129,-4.148852,-8.462156,-0.064619,-0.051755,0.079229,1,IDLE
1759736171.95133,-0.148141,-4.134786,-8.604461,-0.080243,0.042941,0.060496,1,IDLE
1759736171.97127,-0.031274,-4.175937,-8.790311,-0.098676,0.080069,0.057736,1,IDLE
1759736171.99155,0.11956,-3.978116,-9.033921,-0.103287,0.051778,0.075723,1,IDLE
1759736172.01156,0.140659,-3.888034,-9.317335,-0.085558,-0.015633,0.063328,1,IDLE
1759736172.03158,0.117914,-3.747674,-9.436447,-0.011841,-0.084826,0.02002,1,IDLE
1759736172.05135,0.156371,-3.815909,-9.276484,0.014724,-0.062341,-0.023715,1,IDLE
1759736172.07126,0.294487,-3.876063,-9.090933,0.002615,-0.008569,-0.017371,1,IDLE
1759736172.09155,0.337732,-3.917662,-8.911817,0.017324,-0.022314,-0.004348,1,IDLE
1759736172.11157,0.253636,-3.95148,-8.660875,-0.001745,-0.037168,0.00164,1,IDLE
1759736172.13157,0.184653,-3.940557,-8.577078,-0.063643,-0.003303,0.015843,1,IDLE
1759736172.15135,0.053271,-3.954473,-8.757241,-0.080186,0.027774,0.011595,1,IDLE
1759736172.17126,0.013018,-3.832518,-8.88593,-0.053346,0.048234,0.003128,1,IDLE
1759736172.19155,-0.011672,-3.804386,-8.898499,-0.045996,0.063564,-0.001881,1,IDLE
1759736172.21137,0.036063,-3.853168,-8.991275,-0.04206,0.051743,-0.00746,1,IDLE
1759736172.23111,0.157419,-3.747973,-9.042151,-0.032597,0.022896,-0.007609,1,IDLE
1759736172.25137,0.1857,-3.772364,-9.003395,-0.051017,-0.015316,0.000578,1,IDLE
1759736172.27097,0.191386,-3.777152,-8.925285,-0.065487,-0.047475,0.012406,1,IDLE
1759736172.29155,0.095918,-3.820847,-8.89416,-0.081698,-0.019342,0.013868,1,IDLE
1759736172.31157,0.0413,-3.829226,-8.950723,-0.084894,0.002017,0.004616,1,IDLE
1759736172.33158,0.131083,-3.771466,-8.981099,-0.076067,-0.029871,-0.016869,1,IDLE
1759736172.35139,0.040103,-3.76144,-8.965088,-0.063657,-0.014166,-0.050845,1,IDLE
1759736172.37126,0.093673,-3.770419,-8.995614,-0.054192,0.027227,-0.062949,1,IDLE
1759736172.39155,0.152331,-3.777302,-8.988581,-0.061644,0.038671,-0.072421,1,IDLE
1759736172.41161,0.215628,-3.746177,-9.002348,-0.081729,0.011479,-0.079937,1,IDLE
1759736172.43158,0.300622,-3.721338,-9.09213,-0.081057,-0.013054,-0.081382,1,IDLE
1759736172.45140,0.307505,-3.727473,-9.142409,-0.058262,0.014214,-0.079598,1,IDLE
1759736172.47126,0.364218,-3.726725,-9.173683,-0.030169,0.034479,-0.069613,1,IDLE
1759736172.49155,0.396689,-3.749021,-9.084349,-0.023479,0.01356,-0.057851,1,IDLE
1759736172.51159,0.436493,-3.781642,-9.018808,-0.046405,-0.007186,-0.044848,1,IDLE
1759736172.53159,0.378733,-3.758448,-9.086893,-0.039007,-0.003059,-0.0375,1,IDLE
1759736172.55143,0.409408,-3.711461,-9.129989,-0.018673,0.002822,-0.035319,1,IDLE
1759736172.57127,0.423325,-3.69156,-9.112032,-0.000823,-0.011838,-0.015559,1,IDLE
1759736172.59156,0.439336,-3.664026,-9.022549,-0.013988,-0.037665,0.000893,1,IDLE
1759736172.61159,0.368857,-3.617639,-8.919299,-0.036481,-0.032672,-0.004407,1,IDLE
1759736172.63158,0.303615,-3.621679,-8.919898,-0.034369,-0.008372,-0.004159,1,IDLE
1759736172.65144,0.312294,-3.58831,-8.904635,-0.043104,0.000324,-0.003067,1,IDLE
1759736172.67127,0.24346,-3.599981,-8.889371,-0.065096,0.021249,-0.018672,1,IDLE
1759736172.69155,0.261567,-3.575441,-8.990078,-0.071662,0.017438,-0.028611,1,IDLE
1759736172.71161,0.294337,-3.520524,-9.146599,-0.058457,0.002034,-0.035441,1,IDLE
1759736172.73086,0.321571,-3.447501,-9.180417,-0.036333,-0.012251,-0.036229,1,IDLE
1759736172.75146,0.13632,-3.490297,-9.085546,-0.02491,-0.005922,-0.0727,1,IDLE
1759736172.77126,0.224606,-3.541324,-8.931719,-0.031877,-0.006144,-0.09598,1,IDLE
1759736172.79155,0.399682,-3.638588,-8.804677,-0.081336,-0.00435,-0.052863,1,IDLE
1759736172.81156,0.413898,-3.708169,-8.864382,-0.126977,0.009815,-0.015085,1,IDLE
1759736172.83158,0.359729,-3.615544,-9.148095,-0.105953,0.033713,0.004422,1,IDLE
1759736172.85146,0.406865,-3.489998,-9.303868,-0.090738,0.038319,0.020525,1,IDLE
1759736172.87127,0.413299,-3.487753,-9.345766,-0.096223,-0.002896,0.028565,1,IDLE
1759736172.89155,0.392799,-3.438971,-9.437195,-0.063768,-0.041883,0.03499,1,IDLE
1759736172.91159,0.210091,-3.416226,-9.404274,-0.010492,-0.039491,0.012279,1,IDLE
1759736172.93158,0.124947,-3.431789,-9.233688,0.001748,-0.020089,-0.032516,1,IDLE
1759736172.95148,0.183905,-3.454384,-9.102007,-0.008014,-0.024261,-0.050669,1,IDLE
1759736172.97125,0.307356,-3.475483,-9.151985,-0.009588,-0.026984,-0.036263,1,IDLE
1759736172.99155,0.264709,-3.50137,-9.144204,0.00205,-0.018198,-0.036061,1,IDLE
1759736173.01135,0.292841,-3.499575,-9.075221,-0.005404,0.002138,-0.031901,1,IDLE
1759736173.03157,0.355838,-3.494337,-9.053225,-0.01019,-0.025358,-0.017293,1,IDLE
1759736173.05149,0.341772,-3.507505,-9.012074,-0.025187,-0.036649,-0.004011,1,IDLE
1759736173.07125,0.283414,-3.471293,-9.016264,-0.041847,0.013434,-0.002759,1,IDLE
1759736173.09154,0.314089,-3.469946,-9.128792,-0.031266,0.007571,-0.008181,1,IDLE
1759736173.11158,0.304812,-3.447351,-9.131635,-0.018178,-0.018116,-0.01146,1,IDLE
1759736173.13157,0.268151,-3.466056,-9.101258,-0.021748,-0.008436,-0.019363,1,IDLE
1759736173.15151,0.32636,-3.503316,-9.089437,-0.033621,0.011837,-0.006415,1,IDLE
1759736173.17125,0.317232,-3.507805,-9.103054,-0.035855,0.013536,-0.012263,1,IDLE
1759736173.19154,0.337882,-3.473538,-9.112032,-0.027493,-0.001995,-0.023368,1,IDLE
1759736173.21157,0.362273,-3.476381,-9.085846,-0.034801,0.011076,-0.016148,1,IDLE
1759736173.23127,0.35913,-3.494337,-9.120711,-0.047304,0.026134,-0.003983,1,IDLE
1759736173.25157,0.320673,-3.475333,-9.295039,-0.02795,0.017729,-0.008576,1,IDLE
1759736173.27124,0.329053,-3.438822,-9.326463,-0.003057,-0.010202,-0.018372,1,IDLE
1759736173.29154,0.272939,-3.495385,-9.26975,0.004631,-0.006419,-0.021907,1,IDLE
1759736173.31156,0.321422,-3.460519,-9.267655,-0.005939,-0.003008,-0.007922,1,IDLE
1759736173.33153,0.319327,-3.461267,-9.298481,0.000364,-0.028816,-0.006898,1,IDLE
1759736173.35152,0.236128,-3.425205,-9.258079,0.019961,-0.013393,-0.022018,1,IDLE
1759736173.37125,0.265457,-3.491943,-9.238925,0.023341,-0.012773,-0.02575,1,IDLE
1759736173.39154,0.321571,-3.477279,-9.105149,0.036138,-0.023315,-0.035066,1,IDLE
1759736173.41154,0.287454,-3.544466,-9.031826,0.026817,-0.011787,-0.032319,1,IDLE
1759736173.43155,0.348805,-3.486107,-8.992322,0.002815,-0.008268,-0.010588,1,IDLE
1759736173.45155,0.324564,-3.464559,-8.996063,-0.008435,0.008119,-0.013974,1,IDLE
1759736173.47125,0.273089,-3.444358,-9.077765,-0.000951,0.018834,-0.018265,1,IDLE
1759736173.49154,0.372897,-3.37343,-9.131036,0.013756,0.03014,-0.006556,1,IDLE
1759736173.51156,0.347159,-3.375226,-9.145102,0.00581,0.016341,0.00937,1,IDLE
1759736173.53157,0.238971,-3.308787,-9.140613,0.00927,-0.031358,-0.016594,1,IDLE
1759736173.55158,0.216825,-3.306692,-9.032874,-0.004135,-0.024464,-0.038177,1,IDLE
1759736173.57124,0.247351,-3.356671,-8.998757,-0.017259,-0.002931,-0.029232,1,IDLE
1759736173.59154,0.232537,-3.432986,-9.027637,-0.009162,-0.028399,-0.038536,1,IDLE
1759736173.61157,0.20246,-3.452738,-8.965537,-0.016597,-0.047588,-0.059755,1,IDLE
1759736173.63157,0.231489,-3.530699,-8.95192,-0.050202,-0.01813,-0.055032,1,IDLE
1759736173.65112,0.308702,-3.529353,-9.143307,-0.042819,-0.017135,-0.035991,1,IDLE
1759736173.67125,0.257377,-3.441515,-9.25763,-0.009563,-0.024131,-0.032799,1,IDLE
1759736173.69114,0.223409,-3.453337,-9.186103,-0.010909,-0.033,-0.049814,1,IDLE
1759736173.71156,0.319776,-3.410091,-9.163508,-0.035741,-0.022924,-0.049509,1,IDLE
1759736173.73157,0.409259,-3.377171,-9.279477,-0.021051,-0.01542,-0.033221,1,IDLE
1759736173.75115,0.436044,-3.337667,-9.266758,-0.00486,-0.025759,-0.022797,1,IDLE
1759736173.77127,0.401029,-3.344999,-9.192388,-0.007466,-0.018276,-0.029396,1,IDLE
1759736173.79154,0.40073,-3.366696,-9.191191,0.001091,0.003704,-0.048382,1,IDLE
1759736173.81157,0.537947,-3.416975,-9.169493,0.016902,-0.013152,-0.03831,1,IDLE
1759736173.83156,0.584335,-3.502118,-9.067291,0.006548,-0.019757,-0.008559,1,IDLE
1759736173.85116,0.500987,-3.556287,-8.969128,-0.017876,-0.001583,0.026114,1,IDLE
1759736173.87124,0.385466,-3.532046,-8.982895,-0.031915,0.024721,0.039543,1,IDLE
1759736173.89154,0.274884,-3.541473,-9.06759,-0.023548,0.035916,0.034859,1,IDLE
1759736173.91156,0.29748,-3.470545,-9.038261,-0.035281,0.043536,0.038002,1,IDLE
1759736173.93154,0.286107,-3.453935,-9.167099,-0.033127,0.034039,0.051895,1,IDLE
1759736173.95119,0.221763,-3.380912,-9.189545,-0.01972,0.00304,0.060595,1,IDLE
1759736173.97124,0.095319,-3.368791,-9.099463,-0.032356,-0.000612,0.042138,1,IDLE
1759736173.99154,0.057311,-3.366248,-9.104101,-0.04324,-0.022863,0.031558,1,IDLE
1759736174.01159,0.120758,-3.302801,-9.19553,-0.041014,-0.019732,0.019762,1,IDLE
1759736174.03156,0.099509,-3.325696,-9.302521,-0.009563,-0.00477,0.011662,1,IDLE
1759736174.05121,0.130933,-3.323451,-9.280674,0.004716,0.006298,-0.0065,1,IDLE
1759736174.07128,0.175076,-3.383605,-9.200767,0.003006,-0.029469,-0.025426,1,IDLE
1759736174.09154,0.281468,-3.420865,-9.109788,-0.017556,-0.049696,-0.025693,1,IDLE
1759736174.11157,0.276081,-3.468899,-9.115025,-0.021573,-0.019063,-0.011482,1,IDLE
1759736174.13156,0.242712,-3.437176,-9.163956,-0.011638,0.00849,-0.008663,1,IDLE
1759736174.15126,0.221164,-3.404704,-9.153631,0.00122,0.004315,-0.03642,1,IDLE
1759736174.17126,0.277877,-3.358466,-9.15004,0.00692,-0.0004,-0.045447,1,IDLE
1759736174.19153,0.315735,-3.432986,-9.091532,-0.008878,-0.002262,-0.042846,1,IDLE
1759736174.21158,0.324115,-3.384803,-9.091382,-0.020673,-0.002416,-0.026663,1,IDLE
1759736174.23156,0.286107,-3.370737,-9.154978,-0.026364,-0.012805,-0.033543,1,IDLE
1759736174.25122,0.262764,-3.310732,-9.179369,-0.01784,-0.00085,-0.04939,1,IDLE
1759736174.27125,0.346112,-3.368342,-9.203311,-0.026128,0.011968,-0.051436,1,IDLE
1759736174.29153,0.462829,-3.396325,-9.289054,-0.026532,-0.008432,-0.037691,1,IDLE
1759736174.31155,0.465074,-3.342455,-9.308058,0.003192,-0.025694,-0.035858,1,IDLE
1759736174.33156,0.363919,-3.382558,-9.278579,0.026307,-0.004101,-0.046995,1,IDLE
1759736174.35124,0.434697,-3.381211,-9.148394,0.0349,0.001319,-0.04219,1,IDLE
1759736174.37127,0.474501,-3.472041,-9.046641,0.016402,-0.023995,-0.026266,1,IDLE
1759736174.39154,0.474351,-3.483863,-9.012673,-0.017165,-0.028342,-0.007283,1,IDLE
1759736174.41156,0.440234,-3.421165,-9.113379,-0.017986,-0.009778,0.024232,1,IDLE
1759736174.43155,0.339677,-3.368791,-9.167548,-0.007556,-0.001932,0.039761,1,IDLE
1759736174.45126,0.180613,-3.313874,-9.171887,-0.006821,-0.005005,0.017405,1,IDLE
1759736174.47157,0.137966,-3.245191,-9.235184,0.006916,-0.004056,-0.006805,1,IDLE
1759736174.49153,0.211288,-3.203292,-9.229348,0.010191,-0.014974,-0.006009,1,IDLE
1759736174.51061,0.183306,-3.222147,-9.20795,0.013884,-0.059053,-0.00902,1,IDLE
1759736174.53154,0.092027,-3.228731,-9.14585,0.005051,-0.063247,-0.032296,1,IDLE
1759736174.55127,0.033519,-3.269282,-9.081057,0.008482,-0.042733,-0.073077,1,IDLE
1759736174.57124,0.199617,-3.332878,-9.076568,0.008467,-0.023727,-0.073558,1,IDLE
1759736174.59154,0.323816,-3.426252,-9.115025,0.009277,-0.015501,-0.044662,1,IDLE
1759736174.61154,0.325312,-3.438522,-9.125649,0.007731,-0.042121,-0.02499,1,IDLE
1759736174.63154,0.263961,-3.400365,-9.094225,-0.003586,-0.056277,-0.026443,1,IDLE
1759736174.65127,0.203806,-3.43553,-9.211092,-0.01466,-0.025564,-0.032941,1,IDLE
1759736174.67123,0.207697,-3.427,-9.387665,0.003046,-0.020741,-0.033675,1,IDLE
1759736174.69153,0.223259,-3.397223,-9.488072,0.037722,-0.04709,-0.040718,1,IDLE
1759736174.71160,0.241365,-3.418321,-9.495703,0.049578,-0.076525,-0.053991,1,IDLE
1759736174.73162,0.195427,-3.49733,-9.428965,0.048149,-0.095872,-0.057294,1,IDLE
1759736174.75129,0.109984,-3.598036,-9.327959,0.024709,-0.040108,-0.057941,1,IDLE
1759736174.77156,0.117017,-3.533542,-9.417592,0.00064,0.041088,-0.054866,1,IDLE
1759736174.79153,0.260369,-3.351882,-9.623194,0.044211,-0.034563,-0.086772,1,IDLE
1759736174.81155,0.222361,-3.238906,-9.511116,0.102229,-0.124631,-0.143998,1,IDLE
1759736174.83155,0.120458,-3.434482,-9.136722,0.126655,-0.154615,-0.197631,1,IDLE
1759736174.85136,0.112228,-3.594595,-8.772804,0.12386,-0.097712,-0.208994,1,IDLE
1759736174.87123,0.14874,-3.755904,-8.545205,0.10909,-0.027404,-0.172387,1,IDLE
1759736174.89058,0.134075,-3.809773,-8.456171,0.062003,-0.005211,-0.125145,1,IDLE
1759736174.91159,0.043545,-3.746626,-8.519767,0.009692,-0.029272,-0.108541,1,IDLE
1759736174.93154,-0.071078,-3.646818,-8.755745,0.014554,-0.04175,-0.124842,1,IDLE
1759736174.95133,-0.032771,-3.451691,-9.059509,0.160691,-0.150512,-0.176459,1,IDLE
1759736174.97112,-0.232088,-2.95654,-10.192715,0.305933,-0.124512,-0.203232,1,IDLE
1759736174.99056,-0.036063,-3.997868,-8.292317,0.052825,-0.043602,-0.129358,1,IDLE
1759736175.01154,0.259771,-3.610007,-7.999477,-0.143098,-0.127169,-0.103675,1,IDLE
1759736175.03155,0.10325,-3.535637,-8.817097,-0.113911,-0.242348,-0.120681,1,IDLE
1759736175.05135,0.115371,-3.401562,-9.152285,-0.025562,-0.246036,-0.132344,1,IDLE
1759736175.07124,-0.011223,-3.454234,-9.122956,0.029197,-0.151372,-0.135974,1,IDLE
1759736175.09152,-0.125247,-3.499425,-8.924387,0.00567,-0.094135,-0.156209,1,IDLE
1759736175.11155,-0.157419,-3.518728,-8.919748,-0.046901,-0.094952,-0.207374,1,IDLE
1759736175.13155,-0.144999,-3.532645,-9.059061,-0.06008,-0.075521,-0.25121,1,IDLE
1759736175.15136,0.105046,-3.457975,-9.138817,-0.048952,-0.054078,-0.252875,1,IDLE
1759736175.17122,0.155324,-3.432387,-9.081955,-0.028216,-0.04829,-0.250438,1,IDLE
1759736175.19152,0.083199,-3.467253,-8.98903,-0.018162,-0.04286,-0.261283,1,IDLE
1759736175.21155,0.020949,-3.584718,-8.87351,-0.051571,-0.0143,-0.26525,1,IDLE
1759736175.23155,0.09083,-3.647117,-8.923788,-0.107588,0.008861,-0.240019,1,IDLE
1759736175.25139,0.122254,-3.544466,-9.205705,-0.11056,-0.002684,-0.213703,1,IDLE
1759736175.27123,0.062249,-3.429245,-9.470714,-0.066234,-0.022726,-0.225578,1,IDLE
1759736175.29059,0.047285,-3.404854,-9.52593,-0.036964,-0.041749,-0.240687,1,IDLE
1759736175.31155,0.183156,-3.392733,-9.373898,-0.002719,-0.041526,-0.268554,1,IDLE
1759736175.33155,0.354043,-3.484012,-9.419986,0.029868,-0.021915,-0.238428,1,IDLE
1759736175.35139,0.373944,-3.482366,-9.251345,0.063719,-0.06649,-0.207852,1,IDLE
1759736175.37121,0.253187,-3.535188,-8.885032,0.024074,-0.108202,-0.204159,1,IDLE
1759736175.39152,0.125995,-3.551349,-8.719084,-0.033634,-0.098138,-0.199566,1,IDLE
1759736175.41153,0.018555,-3.512892,-8.826224,-0.044181,-0.033298,-0.200039,1,IDLE
1759736175.43153,0.013018,-3.476979,-9.045892,-0.016041,0.00644,-0.190599,1,IDLE
1759736175.45141,0.034566,-3.446304,-9.127595,-0.004212,0.006977,-0.184452,1,IDLE
1759736175.47124,-0.006734,-3.404555,-9.203012,0.013046,-0.018202,-0.205028,1,IDLE
1759736175.49064,0.101005,-3.395577,-9.189545,0.007686,-0.062501,-0.205492,1,IDLE
1759736175.51156,0.258574,-3.440917,-9.224859,-0.023012,-0.103712,-0.181215,1,IDLE
1759736175.53155,0.279074,-3.378667,-9.237877,-0.0166,-0.138356,-0.17009,1,IDLE
1759736175.55143,0.196773,-3.354875,-9.227852,-0.00775,-0.122262,-0.166133,1,IDLE
1759736175.57123,0.155773,-3.386299,-9.207651,0.013559,-0.120345,-0.188373,1,IDLE
1759736175.59152,0.195277,-3.38181,-9.124153,0.023772,-0.120289,-0.2017,1,IDLE
1759736175.61160,0.218022,-3.465607,-8.993968,-0.007099,-0.107791,-0.20853,1,IDLE
1759736175.63155,0.254833,-3.452588,-8.982446,-0.053008,-0.077942,-0.208454,1,IDLE
1759736175.65144,0.276231,-3.452888,-9.189694,-0.075164,-0.068562,-0.217219,1,IDLE
1759736175.67124,0.209343,-3.412934,-9.439739,-0.039643,-0.090609,-0.243062,1,IDLE
1759736175.69152,0.113126,-3.374478,-9.425373,0.013156,-0.101619,-0.289513,1,IDLE
1759736175.71154,0.123152,-3.404106,-9.228301,0.013706,-0.050384,-0.32249,1,IDLE
1759736175.73154,0.237924,-3.531447,-9.160365,-0.001825,-0.018581,-0.321014,1,IDLE
1759736175.75147,0.243011,-3.629011,-9.148245,-0.00912,-0.050986,-0.311549,1,IDLE
1759736175.77123,0.112527,-3.66657,-9.151088,-0.007696,-0.054768,-0.309776,1,IDLE
1759736175.79152,0.047734,-3.640533,-9.234735,0.003201,-0.026367,-0.308262,1,IDLE
1759736175.81155,0.036811,-3.592949,-9.359383,0.028559,-0.052464,-0.318935,1,IDLE
1759736175.83152,0.096816,-3.527407,-9.337087,0.057649,-0.130511,-0.329886,1,IDLE
1759736175.85149,0.158765,-3.554192,-9.22441,0.05937,-0.165358,-0.329217,1,IDLE
1759736175.87080,0.160262,-3.582175,-9.178322,0.057518,-0.152731,-0.324125,1,IDLE
1759736175.89066,0.175974,-3.563919,-9.182661,0.066211,-0.143286,-0.309589,1,IDLE
1759736175.91158,0.192883,-3.495534,-9.132682,0.063039,-0.140707,-0.307497,1,IDLE
1759736175.93140,0.190189,-3.469497,-9.20361,0.065752,-0.0936,-0.313721,1,IDLE
1759736175.95150,0.294337,-3.483863,-9.268404,0.08063,-0.090537,-0.319528,1,IDLE
1759736175.97125,0.405967,-3.429844,-9.255834,0.103227,-0.122963,-0.323865,1,IDLE
1759736175.99152,0.394894,-3.476231,-9.076269,0.082509,-0.16614,-0.328164,1,IDLE
1759736176.01153,0.397587,-3.490896,-8.909872,0.038788,-0.172156,-0.330649,1,IDLE
1759736176.03154,0.470161,-3.508104,-8.872911,0.00697,-0.145262,-0.311452,1,IDLE
1759736176.05151,0.52867,-3.454085,-8.972121,0.012024,-0.129667,-0.304651,1,IDLE
1759736176.07123,0.501585,-3.404555,-9.0221,0.040361,-0.110113,-0.325157,1,IDLE
1759736176.09152,0.468665,-3.436876,-8.930821,0.04578,-0.103572,-0.33891,1,IDLE
1759736176.11153,0.58224,-3.429694,-8.805275,-0.007768,-0.127727,-0.331267,1,IDLE
1759736176.13154,0.603189,-3.464709,-8.847922,-0.055534,-0.150547,-0.323592,1,IDLE
1759736176.15154,0.561889,-3.396025,-8.969577,-0.04832,-0.140075,-0.323368,1,IDLE
1759736176.17122,0.563086,-3.400814,-9.000552,-0.034174,-0.107094,-0.326566,1,IDLE
1759736176.19152,0.590021,-3.383605,-8.88578,-0.034387,-0.104252,-0.323217,1,IDLE
1759736176.21153,0.61127,-3.482366,-8.73315,-0.077268,-0.102327,-0.295842,1,IDLE
1759736176.23110,0.62339,-3.504662,-8.76203,-0.131616,-0.084669,-0.253827,1,IDLE
1759736176.25154,0.555305,-3.434482,-9.085696,-0.141255,-0.038091,-0.235461,1,IDLE
1759736176.27123,0.549469,-3.386449,-9.383176,-0.102378,-0.030079,-0.247742,1,IDLE
1759736176.29151,0.710928,-3.319561,-9.482086,-0.073084,-0.027949,-0.239545,1,IDLE
1759736176.31154,0.740407,-3.388244,-9.510218,-0.070086,-0.036855,-0.219057,1,IDLE
1759736176.33154,0.811335,-3.334674,-9.494057,-0.048625,-0.082281,-0.197492,1,IDLE
1759736176.35121,0.789638,-3.349787,-9.397092,-0.043463,-0.05879,-0.17322,1,IDLE
1759736176.37124,0.791134,-3.395726,-9.46383,0.014971,0.005745,-0.143338,1,IDLE
1759736176.39151,0.987758,-3.309685,-9.370905,0.060795,0.022835,-0.091374,1,IDLE
1759736176.41154,1.138443,-3.288885,-9.223961,0.038351,-0.013123,-0.009437,1,IDLE
1759736176.43154,0.953341,-3.319112,-9.183409,0.011857,-0.069035,0.051093,1,IDLE
1759736176.45154,0.718111,-3.245789,-9.128941,-0.013728,-0.037136,0.059309,1,IDLE
1759736176.47154,0.646883,-3.148525,-9.230246,-0.016567,0.039634,0.089424,1,IDLE
1759736176.49076,0.691924,-3.03061,-9.371354,0.031483,-0.003888,0.119322,1,IDLE
1759736176.51154,0.47091,-3.016544,-9.185654,0.077052,-0.093687,0.095816,1,IDLE
1759736176.53062,0.235829,-3.156156,-8.833856,0.068703,-0.066235,0.067167,1,IDLE
1759736176.55114,0.248398,-3.241599,-8.604013,0.029927,0.015255,0.079137,1,IDLE
1759736176.57156,0.324265,-3.262549,-8.604162,-0.018941,0.063211,0.078803,1,IDLE
1759736176.59085,0.320524,-3.254169,-8.74557,-0.071962,0.060333,0.062413,1,IDLE
1759736176.61154,0.316035,-3.263447,-8.915708,-0.087241,0.030202,0.037432,1,IDLE
1759736176.63056,0.422577,-3.242198,-9.074324,-0.083993,0.055129,0.035587,1,IDLE
1759736176.65155,0.493954,-3.307739,-9.140763,-0.057755,0.035151,0.05684,1,IDLE
1759736176.67153,0.53271,-3.373131,-9.079561,-0.075374,-0.037473,0.079289,1,IDLE
1759736176.69151,0.376488,-3.423858,-8.96853,-0.113451,-0.054259,0.084625,1,IDLE
1759736176.71159,0.264709,-3.467403,-9.019257,-0.160409,0.017014,0.091837,1,IDLE
1759736176.73154,0.287155,-3.412934,-9.282021,-0.165275,0.087915,0.097925,1,IDLE
1759736176.75153,0.30122,-3.334824,-9.562441,-0.134435,0.06405,0.09144,1,IDLE
1759736176.77154,0.240767,-3.244592,-9.617059,-0.085045,0.017846,0.068879,1,IDLE
1759736176.79078,0.144251,-3.3444,-9.440487,-0.068103,-0.007181,0.053029,1,IDLE
1759736176.81154,0.09083,-3.365799,-9.383026,-0.067324,0.025565,0.037444,1,IDLE
1759736176.83154,0.077213,-3.367445,-9.321974,-0.04942,0.092796,0.005004,1,IDLE
1759736176.85058,0.227748,-3.380613,-9.31524,-0.027467,0.129785,0.012008,1,IDLE
1759736176.87154,0.324414,-3.412336,-9.306262,-0.014946,0.132263,0.043089,1,IDLE
1759736176.89151,0.257227,-3.436577,-9.299379,-0.024564,0.139425,0.063482,1,IDLE
1759736176.91086,0.240468,-3.407548,-9.364621,-0.050243,0.129662,0.078774,1,IDLE
1759736176.93154,0.314389,-3.291578,-9.49705,-0.038045,0.082012,0.110003,1,IDLE
1759736176.95153,0.310348,-3.203143,-9.552865,-0.004449,0.057474,0.12129,1,IDLE
1759736176.97154,0.379331,-3.139846,-9.529372,0.015231,0.053705,0.119497,1,IDLE
1759736176.99151,0.646135,-3.049315,-9.655516,0.044287,0.011818,0.117102,1,IDLE
1759736177.01154,0.84635,-3.057545,-9.697863,0.116048,-0.129822,0.095924,1,IDLE
1759736177.03153,1.02831,-2.990956,-9.495254,0.200566,-0.259539,0.09501,1,IDLE
1759736177.05153,0.950797,-3.135207,-9.069685,0.224006,-0.298123,0.135208,1,IDLE
1759736177.07153,0.690428,-3.284246,-8.620772,0.201337,-0.275384,0.156076,1,IDLE
1759736177.09151,0.547075,-3.38181,-8.368034,0.104072,-0.203277,0.188015,1,IDLE
1759736177.11153,0.326509,-3.43957,-8.368333,-0.013829,-0.1179,0.183417,1,IDLE
1759736177.13153,0.220566,-3.350835,-8.624663,-0.088581,-0.093993,0.152824,1,IDLE
1759736177.15153,0.09891,-3.358766,-8.962095,-0.085511,-0.115615,0.097424,1,IDLE
1759736177.17154,-0.01661,-3.372233,-8.989479,-0.078005,-0.043603,0.054199,1,IDLE
1759736177.19151,-0.022595,-3.438373,-9.049633,-0.117813,0.127025,0.055678,1,IDLE
1759736177.21153,-0.073921,-3.386,-9.205556,-0.161617,0.253107,0.042381,1,IDLE
1759736177.23154,0.001347,-3.2621,-9.4969,-0.181295,0.274738,0.003282,1,IDLE
1759736177.25153,0.01227,-3.179201,-9.763405,-0.115544,0.243603,-0.052141,1,IDLE
1759736177.27157,0.030376,-3.063231,-9.789142,-0.019379,0.294668,-0.07714,1,IDLE
1759736177.29151,0.065841,-3.089867,-9.645341,0.038678,0.351907,-0.076328,1,IDLE
1759736177.31152,0.167295,-3.058144,-9.510816,0.059745,0.356374,-0.073064,1,IDLE
1759736177.33152,0.260968,-3.045275,-9.504532,0.096605,0.302816,-0.066689,1,IDLE
1759736177.35118,0.440234,-2.983026,-9.437793,0.115275,0.27171,-0.048634,1,IDLE
1759736177.37152,0.65646,-2.924517,-9.341876,0.136978,0.146478,0.062842,1,IDLE
1759736177.39150,0.569371,-2.884863,-9.194034,0.131835,0.086906,0.099415,1,IDLE
1759736177.41151,0.399682,-2.894739,-8.960599,0.134856,-0.106057,0.139456,1,IDLE
1759736177.43136,0.287304,-2.937087,-8.721478,0.13178,-0.119881,0.15521,1,IDLE
1759736177.45137,0.200365,-3.052607,-8.63005,0.10013,-0.082368,0.172465,1,IDLE
1759736177.47153,0.304662,-3.172317,-8.524555,0.048943,-0.107276,0.218105,1,IDLE
1759736177.49096,0.30137,-3.285443,-8.425196,-0.036255,-0.178222,0.246424,1,IDLE
1759736177.51153,0.221164,-3.298013,-8.46051,-0.136261,-0.197235,0.267371,1,IDLE
1759736177.53153,0.166547,-3.240552,-8.777742,-0.181739,-0.185824,0.269252,1,IDLE
1759736177.55153,0.099509,-3.147028,-9.135076,-0.143615,-0.154349,0.221822,1,IDLE
1759736177.57153,0.122852,-3.098247,-9.273491,-0.106195,-0.128994,0.171395,1,IDLE
1759736177.59150,0.092326,-3.165135,-9.278429,-0.094784,-0.137475,0.111057,1,IDLE
1759736177.61156,0.122553,-3.228581,-9.264363,-0.105121,-0.127659,0.05249,1,IDLE
1759736177.63123,0.13213,-3.2826,-9.351003,-0.099395,-0.067677,0.011175,1,IDLE
1759736177.65153,0.22311,-3.334524,-9.414151,-0.075656,-0.035818,-0.017552,1,IDLE
1759736177.67153,0.252588,-3.304597,-9.357887,-0.074408,-0.026517,-0.040061,1,IDLE
1759736177.69150,0.232238,-3.350087,-9.324518,-0.082253,-0.012459,-0.067252,1,IDLE
1759736177.71153,0.29718,-3.349338,-9.42687,-0.067169,0.024487,-0.081885,1,IDLE
1759736177.73153,0.364517,-3.351733,-9.514707,-0.023399,0.035902,-0.089798,1,IDLE
1759736177.75153,0.477344,-3.363704,-9.454553,0.016869,0.014256,-0.092186,1,IDLE
1759736177.77153,0.522983,-3.451391,-9.263017,0.024172,-0.001248,-0.077914,1,IDLE
1759736177.79150,0.492008,-3.539678,-9.089138,-0.010737,0.024045,-0.032828,1,IDLE
1759736177.81153,0.464325,-3.523068,-9.059958,-0.056641,0.039419,0.025061,1,IDLE
1759736177.83153,0.350751,-3.405752,-9.185355,-0.083506,0.027696,0.060951,1,IDLE
1759736177.85153,0.20246,-3.185336,-9.390657,-0.062996,0.01124,0.048222,1,IDLE
1759736177.87152,0.125546,-3.0556,-9.531317,-0.009853,-0.004839,0.01163,1,IDLE
1759736177.89151,0.130783,-3.077447,-9.453356,0.033182,-0.03241,-0.015025,1,IDLE
1759736177.91153,0.175525,-3.155408,-9.226355,0.022881,-0.049839,-0.022743,1,IDLE
1759736177.93153,0.179116,-3.189974,-9.089587,0.00932,-0.03591,-0.007574,1,IDLE
1759736177.95153,0.154725,-3.221099,-9.090933,-0.0037,-0.029,0.017473,1,IDLE
1759736177.97155,0.047285,-3.191022,-9.097817,-0.006772,0.00062,0.007001,1,IDLE
1759736177.99151,0.06614,-3.198803,-9.225158,-0.012374,0.007921,0.001079,1,IDLE
1759736178.01153,0.207098,-3.149273,-9.333496,-0.000877,-0.0275,0.007474,1,IDLE
1759736178.03101,0.241066,-3.198504,-9.436895,0.007523,-0.027656,0.034197,1,IDLE
1759736178.05153,0.237325,-3.178901,-9.479692,0.029128,-0.022311,0.057886,1,IDLE
1759736178.07152,0.187945,-3.163339,-9.53401,0.060889,-0.041773,0.060068,1,IDLE
1759736178.09150,0.196773,-3.164087,-9.403826,0.086029,-0.068196,0.054495,1,IDLE
1759736178.11152,0.21877,-3.255965,-9.243713,0.068197,-0.062553,0.069283,1,IDLE
1759736178.13153,0.240617,-3.32405,-9.182811,0.048096,-0.044223,0.096307,1,IDLE
1759736178.15152,0.273687,-3.322703,-9.25763,0.04195,-0.008173,0.118541,1,IDLE
1759736178.17152,0.271293,-3.24953,-9.332,0.033234,0.00273,0.130765,1,IDLE
1759736178.19150,0.251242,-3.159897,-9.348011,0.039227,-0.040878,0.121383,1,IDLE
1759736178.21152,0.126893,-3.107225,-9.244611,0.047797,-0.028228,0.100209,1,IDLE
1759736178.23154,0.064643,-3.145233,-9.119664,0.054611,0.026868,0.085014,1,IDLE
1759736178.25151,0.048183,-3.142539,-9.007436,0.061903,0.063512,0.068935,1,IDLE
1759736178.27154,0.04115,-3.174412,-8.866776,0.055702,0.05298,0.053594,1,IDLE
1759736178.29150,0.019902,-3.218705,-8.689156,0.019282,0.037808,0.057072,1,IDLE
1759736178.31153,-0.067786,-3.267187,-8.595483,-0.047895,0.060887,0.075962,1,IDLE
1759736178.33152,-0.191386,-3.244891,-8.722526,-0.09864,0.072507,0.073836,1,IDLE
1759736178.35119,-0.244508,-3.169624,-8.998158,-0.093073,0.063141,0.062965,1,IDLE
1759736178.37055,-0.279523,-3.151667,-9.20376,-0.06801,0.058219,0.043902,1,IDLE
1759736178.39151,-0.218022,-3.205986,-9.308506,-0.040781,0.037725,0.035272,1,IDLE
1759736178.41153,-0.158167,-3.281702,-9.283517,-0.05034,-0.014561,0.033439,1,IDLE
1759736178.43153,-0.050578,-3.348291,-9.258378,-0.084886,-0.073175,0.054821,1,IDLE
1759736178.45152,-0.171185,-3.359813,-9.372402,-0.095542,-0.076709,0.055722,1,IDLE
1759736178.47056,-0.208894,-3.310133,-9.500491,-0.070982,-0.050977,0.036947,1,IDLE
1759736178.49150,-0.176572,-3.323601,-9.577854,-0.045288,-0.045942,0.005485,1,IDLE
1759736178.51156,0.009128,-3.271976,-9.575759,-0.022924,-0.051525,-0.001622,1,IDLE
1759736178.53152,0.061202,-3.283648,-9.515605,0.005148,-0.059071,-0.007452,1,IDLE
1759736178.55152,0.04953,-3.233968,-9.358485,0.013011,-0.066781,-0.037475,1,IDLE
1759736178.57057,0.065841,-3.310283,-9.200767,0.01321,-0.064768,-0.070824,1,IDLE
1759736178.59150,0.149937,-3.293673,-9.177424,0.019924,-0.024824,-0.061738,1,IDLE
1759736178.61151,0.121356,-3.324199,-9.190293,0.043387,0.023939,-0.046648,1,IDLE
1759736178.63152,0.068983,-3.258957,-9.083152,0.052135,0.031207,-0.037785,1,IDLE
1759736178.65148,0.014814,-3.228431,-8.978406,0.042171,0.018982,-0.041366,1,IDLE
1759736178.67059,-0.005986,-3.227533,-8.900445,-0.00221,0.0315,-0.026775,1,IDLE
1759736178.69149,-0.055516,-3.20404,-9.062053,-0.015869,0.051788,-0.024843,1,IDLE
1759736178.71151,0.007632,-3.14209,-9.245509,-0.005332,0.049408,-0.019125,1,IDLE
1759736178.73152,0.162806,-3.137901,-9.346365,-0.013858,0.019345,0.019908,1,IDLE
1759736178.75152,0.09098,-3.131017,-9.422979,-0.020088,-0.046285,0.03392,1,IDLE
1759736178.77061,-0.067038,-3.10109,-9.435848,0.003061,-0.097103,0.004435,1,IDLE
1759736178.79109,-0.078111,-3.152116,-9.312547,0.008475,-0.054111,-0.004835,1,IDLE
1759736178.81152,0.041001,-3.230377,-9.274838,-0.001694,0.015356,0.024148,1,IDLE
1759736178.83094,0.123451,-3.174412,-9.299977,-0.014365,-0.011583,0.033197,1,IDLE
1759736178.85153,0.058209,-3.090017,-9.243564,-0.016017,-0.075874,-0.006073,1,IDLE
1759736178.87062,0.008978,-3.102137,-9.142109,-0.009791,-0.044959,-0.043512,1,IDLE
1759736178.89149,0.088137,-3.125032,-9.191789,0.020779,0.044485,-0.039093,1,IDLE
1759736178.91153,0.109385,-3.15451,-9.127595,0.045054,0.081262,-0.030566,1,IDLE
1759736178.93152,0.049829,-3.205836,-8.980351,0.020591,0.060763,-0.04607,1,IDLE
1759736178.95155,0.077063,-3.237559,-8.913314,-0.02614,0.046245,-0.051164,1,IDLE
1759736178.97065,0.129137,-3.228282,-9.074922,-0.036954,0.077007,-0.024907,1,IDLE
1759736178.99150,0.197073,-3.22903,-9.277083,-0.014799,0.085646,0.013602,1,IDLE
1759736179.01097,0.200963,-3.202544,-9.33589,-0.003215,0.076991,0.038365,1,IDLE
1759736179.03152,0.232537,-3.181146,-9.425373,0.00141,0.015404,0.066384,1,IDLE
1759736179.05151,0.163404,-3.226486,-9.427917,-0.003225,-0.037907,0.081869,1,IDLE
1759736179.07065,0.118363,-3.17935,-9.399486,0.008226,-0.055686,0.090387,1,IDLE
1759736179.09111,0.033818,-3.25372,-9.336788,0.030453,-0.035441,0.084498,1,IDLE
1759736179.11151,0.106392,-3.348141,-9.198373,0.035293,-0.03224,0.096628,1,IDLE
1759736179.13152,0.131681,-3.354875,-9.054571,-0.007016,-0.027477,0.122349,1,IDLE
1759736179.15151,-0.005686,-3.331681,-9.099163,-0.027061,-0.03546,0.110873,1,IDLE
1759736179.17066,-0.112827,-3.242348,-9.093627,-0.040011,-0.020517,0.075744,1,IDLE
1759736179.19109,-0.210839,-3.201048,-9.110835,-0.038415,0.011267,0.040783,1,IDLE
1759736179.21151,-0.244059,-3.144485,-9.201516,-0.024605,0.053336,0.004932,1,IDLE
1759736179.23153,-0.291943,-3.122189,-9.209746,-0.011053,0.072421,-0.043242,1,IDLE
1759736179.25151,-0.200065,-3.102137,-9.185654,-0.006666,0.065454,-0.079173,1,IDLE
1759736179.27069,-0.162806,-3.127576,-9.149442,-0.007516,0.062458,-0.089561,1,IDLE
1759736179.29149,-0.046388,-3.132364,-9.144803,-0.006751,0.062732,-0.080785,1,IDLE
1759736179.31151,-0.040552,-3.148375,-9.140164,-0.011501,0.036005,-0.077203,1,IDLE
1759736179.33076,-0.010624,-3.128024,-9.116072,-0.017099,0.014969,-0.076777,1,IDLE
1759736179.35116,0.176572,-3.119046,-9.186701,-0.019588,-0.011435,-0.041598,1,IDLE
1759736179.37070,0.212934,-3.122787,-9.209297,-0.015998,-0.007095,-0.020803,1,IDLE
1759736179.39149,0.259771,-3.152715,-9.237129,-0.031218,-0.047387,0.030158,1,IDLE
1759736179.41149,0.26426,-3.14628,-9.275736,-0.053783,-0.079976,0.048834,1,IDLE
1759736179.43054,0.211737,-3.126079,-9.314043,-0.049759,-0.08889,0.048433,1,IDLE
1759736179.45152,0.162357,-3.115305,-9.37734,-0.033109,-0.089984,0.044624,1,IDLE
1759736179.47071,0.139313,-3.130119,-9.343971,-0.018046,-0.077858,0.034028,1,IDLE
1759736179.49149,0.175824,-3.222147,-9.238775,-0.030665,-0.087998,0.029851,1,IDLE
1759736179.51152,0.118962,-3.259556,-9.133131,-0.055537,-0.056213,0.017709,1,IDLE
1759736179.53055,0.085593,-3.266589,-9.128941,-0.07025,0.009676,0.003304,1,IDLE
1759736179.55152,0.120608,-3.236811,-9.247305,-0.066134,0.052518,-0.004863,1,IDLE
1759736179.57073,0.13632,-3.16708,-9.336189,-0.047436,0.039809,-0.024646,1,IDLE
1759736179.59109,0.050877,-3.139696,-9.329306,-0.037341,0.035199,-0.052932,1,IDLE
1759736179.61151,-0.005986,-3.168277,-9.307908,-0.020818,0.044188,-0.082124,1,IDLE
1759736179.63057,0.021697,-3.177854,-9.29459,0.000557,0.06894,-0.080678,1,IDLE
1759736179.65149,0.046088,-3.182044,-9.29459,0.023023,0.071318,-0.071595,1,IDLE
1759736179.67075,0.041001,-3.151368,-9.219622,0.008295,0.059452,-0.055865,1,IDLE
1759736179.69110,0.010924,-3.126678,-9.343522,0.006778,0.034282,-0.045399,1,IDLE
1759736179.71150,-0.044891,-3.041983,-9.427319,0.023926,0.010438,-0.047768,1,IDLE
1759736179.73150,-0.063446,-3.022081,-9.417892,0.04268,-0.01037,-0.044748,1,IDLE
1759736179.75150,-0.019902,-3.006818,-9.298032,0.021384,-0.005217,-0.035474,1,IDLE
1759736179.77076,0.056713,-3.016395,-9.323919,0.012126,-0.018384,-0.028224,1,IDLE
1759736179.79131,0.126294,-2.991555,-9.390807,0.022723,-0.043652,-0.028204,1,IDLE
1759736179.81150,0.168941,-3.000982,-9.349357,0.032864,-0.036014,-0.035229,1,IDLE
1759736179.83150,0.259472,-3.115455,-9.222315,0.0228,-0.058363,-0.040049,1,IDLE
1759736179.85155,0.43365,-3.124732,-9.065645,-0.025183,-0.083201,-0.00207,1,IDLE
1759736179.87080,0.282217,-3.178153,-9.072528,-0.057708,-0.038431,0.008001,1,IDLE
1759736179.89149,0.292093,-3.117251,-9.189245,-0.041236,-0.003106,-0.003206,1,IDLE
1759736179.91151,0.303465,-3.12967,-9.182811,-0.002615,-0.006699,-0.011053,1,IDLE
1759736179.93151,0.290746,-3.180098,-9.072378,0.003262,0.013329,0.000795,1,IDLE
1759736179.95150,0.195576,-3.230077,-9.03048,-0.012673,0.044044,0.011023,1,IDLE
1759736179.97080,0.176572,-3.182193,-9.091233,-0.018489,0.037061,0.022103,1,IDLE
1759736179.99149,0.109086,-3.148525,-9.14196,-0.025851,0.034102,0.031528,1,IDLE
1759736180.01151,-0.001047,-3.128922,-9.193734,-0.028076,0.052394,0.038403,1,IDLE
1759736180.03151,-0.030676,-3.097648,-9.35669,-0.019992,0.05518,0.038626,1,IDLE
1759736180.05152,0.035464,-3.011008,-9.456049,-0.014121,0.036384,0.051934,1,IDLE
1759736180.07079,0.023493,-2.991405,-9.542091,-0.00968,-0.020147,0.046666,1,IDLE
1759736180.09149,0.027084,-2.93589,-9.586234,0.009278,-0.043267,0.023218,1,IDLE
1759736180.11151,0.085443,-3.048268,-9.554511,0.050539,-0.045953,0.016036,1,IDLE
1759736180.13151,0.206201,-3.154211,-9.306561,0.066715,-0.052278,0.03303,1,IDLE
1759736180.15152,0.209493,-3.290381,-8.992921,0.011709,-0.046937,0.058069,1,IDLE
1759736180.17082,0.16116,-3.32824,-8.897003,-0.063947,-0.011767,0.076999,1,IDLE
1759736180.19149,0.104148,-3.229628,-9.178172,-0.070326,0.019128,0.063225,1,IDLE
1759736180.21150,0.1034,-3.095403,-9.383176,-0.018711,0.035078,0.031453,1,IDLE
1759736180.23150,0.089184,-3.120842,-9.354595,0.015018,0.033675,0.001461,1,IDLE
1759736180.25152,0.085892,-3.137152,-9.210943,0.013576,0.041606,-0.005178,1,IDLE
1759736180.27085,0.011821,-3.188179,-9.123255,0.016789,0.04881,-0.021887,1,IDLE
1759736180.29110,-0.0413,-3.163489,-9.072827,0.010648,0.082272,-0.038495,1,IDLE
1759736180.31150,-0.032322,-3.165584,-9.106346,0.01268,0.113443,-0.042267,1,IDLE
1759736180.33151,0.049231,-3.156755,-9.180566,0.025102,0.109823,-0.024467,1,IDLE
1759736180.35150,0.064494,-3.112013,-9.213786,0.017646,0.100308,-0.01019,1,IDLE
1759736180.37084,0.055665,-3.120393,-9.252841,-0.001561,0.080278,-0.005615,1,IDLE
1759736180.39134,0.120907,-3.061585,-9.453655,0.014279,0.064401,0.001346,1,IDLE
1759736180.41150,0.184503,-3.040486,-9.582343,0.057747,0.096605,0.018522,1,IDLE
1759736180.43150,0.155174,-3.090465,-9.659856,0.128239,0.142469,0.037999,1,IDLE
1759736180.45150,0.150087,-3.143886,-9.433454,0.145388,0.079934,0.012674,1,IDLE
1759736180.47088,0.239121,-3.220949,-9.110686,0.061649,-0.018844,0.001185,1,IDLE
1759736180.49148,0.295983,-3.294122,-9.018209,-0.034255,-0.100829,0.011423,1,IDLE
1759736180.51155,0.306009,-3.205387,-9.122507,-0.060481,-0.110389,0.007698,1,IDLE
1759736180.53131,0.207996,-3.095703,-9.266907,-0.017563,-0.036564,-0.008982,1,IDLE
1759736180.55150,0.192434,-3.102137,-9.308955,0.039749,0.012366,-0.043753,1,IDLE
1759736180.57089,0.229544,-3.135955,-9.106645,0.048669,0.013747,-0.091455,1,IDLE
1759736180.59135,0.350302,-3.232472,-8.920945,0.021145,-0.004644,-0.108467,1,IDLE
1759736180.61139,0.401178,-3.323601,-8.878598,-0.011522,0.008582,-0.083801,1,IDLE
1759736180.63131,0.414047,-3.306392,-8.986337,-0.012955,0.048264,-0.05163,1,IDLE
1759736180.65124,0.343568,-3.25357,-9.019107,-0.014499,0.072669,-0.041615,1,IDLE
1759736180.67091,0.311246,-3.21257,-9.033173,-0.036991,0.077586,-0.032875,1,IDLE
1759736180.69063,0.333393,-3.192219,-9.196727,-0.068145,0.067111,-0.000692,1,IDLE
1759736180.71109,0.306308,-3.113809,-9.458593,-0.049078,0.043859,0.016908,1,IDLE
1759736180.73151,0.228347,-3.035249,-9.594314,-0.001807,0.004596,0.004334,1,IDLE
1759736180.75153,0.212336,-3.055001,-9.54658,0.022963,-0.018436,-0.013645,1,IDLE
1759736180.77093,0.283563,-3.164386,-9.403826,0.027639,-0.057103,-0.004321,1,IDLE
1759736180.79148,0.295085,-3.24115,-9.221866,0.006345,-0.067631,0.007548,1,IDLE
1759736180.81151,0.285957,-3.322553,-9.072678,-0.018173,-0.049032,0.018715,1,IDLE
1759736180.83151,0.36317,-3.332878,-9.090484,-0.042193,-0.047644,0.040022,1,IDLE
1759736180.85151,0.314239,-3.247585,-9.132533,-0.052494,-0.035406,0.038931,1,IDLE
1759736180.87095,0.274884,-3.189226,-9.255684,-0.036247,-0.024763,0.006438,1,IDLE
1759736180.89148,0.282815,-3.152116,-9.301473,0.009343,-0.001442,-0.0187,1,IDLE
1759736180.91154,0.336685,-3.207332,-9.227852,0.024322,0.000251,-0.026549,1,IDLE
1759736180.93150,0.339677,-3.212719,-9.105747,0.010729,-0.005459,-0.019986,1,IDLE
1759736180.95152,0.269497,-3.24115,-9.077316,-0.00276,-0.001422,-0.007318,1,IDLE
1759736180.97096,0.205452,-3.186832,-9.100361,0.004377,0.027003,-0.003387,1,IDLE
1759736180.99148,0.182259,-3.159448,-9.126846,-0.004843,0.059591,0.002426,1,IDLE
1759736181.01153,0.250942,-3.123984,-9.211841,-0.024027,0.018576,0.023371,1,IDLE
1759736181.03151,0.273238,-3.032256,-9.326762,-0.032719,-0.038874,0.030557,1,IDLE
1759736181.05151,0.146645,-2.986168,-9.417443,-0.010697,-0.031408,0.021392,1,IDLE
1759736181.07097,0.142305,-3.019537,-9.406968,0.015337,-0.020253,0.013045,1,IDLE
1759736181.09147,0.201113,-3.044377,-9.231443,0.021291,-0.047101,0.004958,1,IDLE
1759736181.11150,0.201711,-3.152415,-9.011326,-0.009954,-0.076635,-0.003054,1,IDLE
1759736181.13081,0.210091,-3.262249,-8.873959,-0.063906,-0.054309,0.004786,1,IDLE
1759736181.15151,0.225354,-3.282899,-8.969428,-0.099929,0.010478,0.014839,1,IDLE
1759736181.17098,0.235679,-3.201048,-9.20391,-0.085562,0.028917,0.011135,1,IDLE
1759736181.19148,0.23134,-3.12144,-9.339182,-0.064368,0.009882,-0.02147,1,IDLE
1759736181.21150,0.26411,-3.085677,-9.371055,-0.060769,-0.002478,-0.045815,1,IDLE
1759736181.23150,0.247351,-3.123086,-9.431209,-0.021402,-0.003454,-0.066558,1,IDLE
1759736181.25150,0.330101,-3.125331,-9.3525,0.0035,0.013712,-0.069128,1,IDLE
1759736181.27099,0.340276,-3.235913,-9.279776,0.022223,0.014845,-0.057476,1,IDLE
1759736181.29147,0.394145,-3.250578,-9.181464,0.009296,-0.002026,-0.026448,1,IDLE
1759736181.31148,0.335188,-3.245041,-9.197924,0.006795,-0.010554,-0.005214,1,IDLE
1759736181.33155,0.305111,-3.181146,-9.175329,-0.001353,0.013685,0.015233,1,IDLE
1759736181.35114,0.344615,-3.166481,-9.297284,-0.009388,0.025806,0.034247,1,IDLE
1759736181.37102,0.353294,-3.131765,-9.362975,-0.010814,0.003838,0.059735,1,IDLE
1759736181.39148,0.294936,-3.036746,-9.510966,0.011233,-0.068688,0.062847,1,IDLE
1759736181.41148,0.275782,-2.995894,-9.436746,0.024384,-0.083245,0.059773,1,IDLE
1759736181.43133,0.201562,-3.053505,-9.286809,0.038644,-0.078705,0.070968,1,IDLE
1759736181.45149,0.148141,-3.063381,-9.18296,0.019295,-0.059495,0.067646,1,IDLE
1759736181.47104,0.137667,-3.107075,-9.081805,-0.024074,-0.044038,0.060287,1,IDLE
1759736181.49147,0.161758,-3.058892,-9.156026,-0.042046,-0.040555,0.056601,1,IDLE
1759736181.51149,0.141108,-2.983774,-9.255086,-0.028887,-0.029141,0.024677,1,IDLE
1759736181.53148,0.112976,-2.987515,-9.277831,-0.000895,-0.008698,-0.00862,1,IDLE
1759736181.55150,0.157419,-3.066374,-9.248801,0.019015,0.022843,-0.019227,1,IDLE
1759736181.57106,0.16086,-3.093159,-9.151237,0.018686,0.034684,-0.03616,1,IDLE
1759736181.59147,0.176572,-3.120393,-9.089138,-0.001545,0.028071,-0.045106,1,IDLE
1759736181.61148,0.252289,-3.116353,-9.109788,-0.025957,0.035857,-0.030069,1,IDLE
1759736181.63150,0.275782,-3.124433,-9.297882,-0.014531,0.047199,-0.010236,1,IDLE
1759736181.65149,0.302268,-3.052308,-9.400683,0.018132,0.041824,0.009925,1,IDLE
1759736181.67107,0.329203,-3.077746,-9.378238,0.009568,0.022258,0.028167,1,IDLE
1759736181.69147,0.369006,-3.074903,-9.400384,-0.005138,-0.012407,0.046853,1,IDLE
1759736181.71157,0.364966,-3.06398,-9.492112,0.020361,-0.033224,0.064969,1,IDLE
1759736181.73149,0.341024,-3.056498,-9.424476,0.043453,-0.039228,0.075263,1,IDLE
1759736181.75149,0.283713,-3.126827,-9.247305,0.032515,-0.044294,0.084306,1,IDLE
1759736181.77108,0.235829,-3.148226,-9.083751,0.011688,-0.032749,0.087716,1,IDLE
1759736181.79108,0.188843,-3.204938,-9.01372,-0.014888,-0.002838,0.092479,1,IDLE
1759736181.81148,0.152331,-3.172018,-9.079561,-0.051041,0.016291,0.095542,1,IDLE
1759736181.83150,0.089184,-3.096301,-9.229198,-0.051941,0.012338,0.070805,1,IDLE
1759736181.85149,-0.031125,-3.039439,-9.334992,-0.024266,0.042312,0.02735,1,IDLE
1759736181.87110,-0.023792,-3.024475,-9.39799,0.025904,0.059005,-0.004807,1,IDLE
1759736181.89147,-0.001945,-3.050063,-9.310901,0.043734,0.052369,-0.035475,1,IDLE
1759736181.91149,0.072874,-3.106926,-9.153033,0.022856,0.026127,-0.039331,1,IDLE
1759736181.93149,0.114024,-3.160346,-9.150788,-0.000415,0.041193,-0.030194,1,IDLE
1759736181.95149,0.16116,-3.163339,-9.311948,0.015473,0.039948,-0.009702,1,IDLE
1759736181.97112,0.166247,-3.080589,-9.34008,0.023405,0.029388,0.007641,1,IDLE
1759736181.99147,0.123002,-3.110218,-9.293543,0.011805,0.001145,0.00289,1,IDLE
1759736182.01149,0.216226,-3.099294,-9.338284,0.006225,-0.025596,0.013479,1,IDLE
1759736182.03149,0.264709,-3.074604,-9.418041,0.021576,-0.032602,0.032987,1,IDLE
1759736182.05150,0.244358,-3.096002,-9.353847,0.054232,-0.057515,0.036964,1,IDLE
1759736182.07114,0.193182,-3.18369,-9.060407,0.030127,-0.090583,0.03095,1,IDLE
1759736182.09062,0.132429,-3.294571,-8.846425,-0.030356,-0.053194,0.037404,1,IDLE
1759736182.11149,0.139462,-3.312228,-8.952818,-0.055102,0.001218,0.054908,1,IDLE
1759736182.13085,0.121506,-3.220052,-9.12939,-0.056058,0.023498,0.058971,1,IDLE
1759736182.15149,0.039654,-3.164536,-9.226056,-0.052366,0.011788,0.020442,1,IDLE
1759736182.17114,-0.022745,-3.105579,-9.350704,-0.034646,-0.005802,-0.024859,1,IDLE
1759736182.19148,0.010325,-3.064877,-9.432855,0.004104,0.018097,-0.062122,1,IDLE
1759736182.21149,0.097115,-3.142988,-9.420735,0.036246,0.033254,-0.079927,1,IDLE
1759736182.23149,0.2478,-3.159598,-9.280075,0.052753,0.012104,-0.07045,1,IDLE
1759736182.25153,0.246603,-3.198205,-9.120861,0.018259,0.034835,-0.047879,1,IDLE
1759736182.27116,0.261866,-3.175909,-9.241169,0.004429,0.03682,-0.01969,1,IDLE
1759736182.29146,0.249596,-3.088221,-9.355343,0.010521,-0.000066,-0.012574,1,IDLE
1759736182.31149,0.259472,-3.063531,-9.392902,0.012408,-0.02624,-0.006486,1,IDLE
1759736182.33149,0.232686,-3.084929,-9.375095,0.023635,-0.039011,0.007771,1,IDLE
1759736182.35153,0.210091,-3.116652,-9.324368,0.045551,-0.048846,0.006423,1,IDLE
1759736182.37118,0.23523,-3.185036,-9.114875,0.037518,-0.061798,0.008619,1,IDLE
1759736182.39146,0.263512,-3.277064,-8.959103,0.006212,-0.070898,0.017248,1,IDLE
1759736182.41149,0.244059,-3.318663,-8.926631,-0.021623,-0.052377,0.035261,1,IDLE
1759736182.43149,0.212635,-3.335123,-8.962245,-0.034124,-0.009318,0.050322,1,IDLE
1759736182.45152,0.164751,-3.28664,-9.020753,-0.056443,0.013724,0.053906,1,IDLE
1759736182.47118,0.079009,-3.17097,-9.099612,-0.075371,0.00927,0.022865,1,IDLE
1759736182.49108,0.099509,-3.095104,-9.227702,-0.060319,0.014268,-0.012912,1,IDLE
1759736182.51149,0.180762,-3.074005,-9.393351,-0.028913,0.040067,-0.030045,1,IDLE
1759736182.53149,0.246004,-3.063381,-9.445724,-0.001129,0.038589,-0.040939,1,IDLE
1759736182.55149,0.208146,-3.123835,-9.408165,0.009251,0.029851,-0.056558,1,IDLE
1759736182.57121,0.249147,-3.12159,-9.323919,0.014803,0.037973,-0.052246,1,IDLE
1759736182.59146,0.224756,-3.184887,-9.282021,0.000991,0.045363,-0.034412,1,IDLE
1759736182.61147,0.235679,-3.203891,-9.313295,0.004597,0.031529,-0.028126,1,IDLE
1759736182.63149,0.263213,-3.209727,-9.370157,0.007196,0.05129,-0.005576,1,IDLE
1759736182.65152,0.326509,-3.193865,-9.409063,0.022871,0.04255,0.019737,1,IDLE
1759736182.67121,0.296731,-3.169923,-9.384522,0.044991,-0.001117,0.023759,1,IDLE
1759736182.69146,0.199916,-3.206734,-9.260473,0.050532,-0.003918,0.017429,1,IDLE
1759736182.71147,0.285808,-3.249979,-9.126846,0.03601,0.002656,0.036557,1,IDLE
1759736182.73148,0.34686,-3.252074,-9.074174,0.01773,-0.02354,0.072936,1,IDLE
1759736182.75152,0.222212,-3.259556,-8.986636,-0.010833,-0.041718,0.080268,1,IDLE
1759736182.77123,0.0621,-3.202544,-8.957008,-0.039855,-0.020596,0.06841,1,IDLE
1759736182.79146,-0.0208,-3.152864,-9.041553,-0.056974,0.027622,0.042339,1,IDLE
1759736182.81147,-0.017208,-3.073856,-9.268254,-0.038893,0.0366,0.009306,1,IDLE
1759736182.83148,0.0621,-3.008165,-9.415797,0.000348,0.000987,-0.027301,1,IDLE
1759736182.85150,0.113425,-3.01819,-9.34831,0.016187,-0.015916,-0.051021,1,IDLE
1759736182.87125,0.137816,-3.151368,-9.274239,0.028868,-0.0039,-0.067059,1,IDLE
1759736182.89146,0.258574,-3.166182,-9.148095,0.018463,0.006252,-0.050459,1,IDLE
1759736182.91147,0.283863,-3.207781,-9.11712,0.00795,0.002477,-0.020468,1,IDLE
1759736182.93114,0.263811,-3.201796,-9.136124,-0.016082,0.001559,0.007096,1,IDLE
1759736182.95150,0.216675,-3.118897,-9.22052,-0.014818,-0.011972,0.019852,1,IDLE
1759736182.97126,0.173879,-3.060688,-9.299079,-0.005203,-0.025518,0.015544,1,IDLE
1759736182.99146,0.161908,-3.077148,-9.306262,-0.000048,-0.002573,0.010496,1,IDLE
1759736183.01152,0.267402,-3.134609,-9.349956,0.006352,-0.034884,0.023432,1,IDLE
1759736183.03149,0.315586,-3.112612,-9.291448,0.019075,-0.06255,0.03547,1,IDLE
1759736183.05150,0.229843,-3.241749,-9.116821,0.001888,-0.070947,0.040323,1,IDLE
1759736183.07128,0.196474,-3.24145,-9.011775,-0.050698,-0.028218,0.056532,1,IDLE
1759736183.09051,0.115221,-3.23307,-9.169942,-0.073257,-0.001136,0.047691,1,IDLE
1759736183.11149,0.116268,-3.103783,-9.386168,-0.038964,-0.005711,0.007309,1,IDLE
1759736183.13148,0.128688,-3.108123,-9.390957,0.001272,-0.001479,-0.021401,1,IDLE
1759736183.15148,0.128838,-3.147627,-9.277232,0.009479,0.021606,-0.035871,1,IDLE
1759736183.17130,0.149189,-3.172317,-9.202563,0.002473,0.020087,-0.045169,1,IDLE
1759736183.19146,0.133926,-3.158999,-9.192837,-0.000689,0.018611,-0.060446,1,IDLE
1759736183.21129,0.139612,-3.17097,-9.15842,0.014469,0.027835,-0.062795,1,IDLE
1759736183.23149,0.223409,-3.181295,-9.127445,0.007321,0.049192,-0.039917,1,IDLE
1759736183.25148,0.213084,-3.154211,-9.161113,-0.018204,0.069137,-0.017872,1,IDLE
1759736183.27133,0.191985,-3.099444,-9.301773,-0.026091,0.031527,-0.011902,1,IDLE
1759736183.29146,0.233135,-3.020136,-9.436596,-0.016304,-0.010192,-0.006664,1,IDLE
1759736183.31147,0.198419,-3.020285,-9.516054,0.003842,-0.01417,-0.006322,1,IDLE
1759736183.33148,0.206949,-3.081786,-9.474903,0.026339,-0.026228,-0.006154,1,IDLE
1759736183.35146,0.239869,-3.139397,-9.309554,0.030148,-0.049553,-0.014536,1,IDLE
1759736183.37138,0.283563,-3.262399,-9.113978,0.021523,-0.062482,-0.010347,1,IDLE
1759736183.39145,0.298377,-3.341557,-9.038859,-0.013102,-0.041012,0.021215,1,IDLE
1759736183.41146,0.303465,-3.358616,-9.05098,-0.040579,-0.000675,0.038465,1,IDLE
1759736183.43149,0.26022,-3.27452,-9.160515,-0.048893,0.007359,0.039094,1,IDLE
1759736183.45147,0.237325,-3.226037,-9.257031,-0.041176,0.006071,0.032633,1,IDLE
1759736183.47137,0.127491,-3.155408,-9.345766,-0.013347,0.009104,0.001689,1,IDLE
1759736183.49145,0.09083,-3.122787,-9.36881,0.020759,0.01803,-0.023608,1,IDLE
1759736183.51148,0.140809,-3.135207,-9.277382,0.034502,0.010878,-0.040835,1,IDLE
1759736183.53148,0.12809,-3.159598,-9.189844,0.036424,0.029151,-0.048721,1,IDLE
1759736183.55148,0.17328,-3.161094,-9.16665,0.030635,0.057086,-0.037997,1,IDLE
1759736183.57136,0.22715,-3.173664,-9.238626,0.025972,0.053195,-0.021408,1,IDLE
1759736183.59145,0.299724,-3.136404,-9.296984,0.031248,0.000572,-0.002199,1,IDLE
1759736183.61148,0.307655,-3.106028,-9.261969,0.018679,-0.016276,0.018779,1,IDLE
1759736183.63148,0.254384,-3.094057,-9.302671,-0.005874,0.011452,0.038377,1,IDLE
1759736183.65147,0.266654,-3.013851,-9.470115,0.027279,-0.016977,0.03595,1,IDLE
1759736183.67138,0.238672,-3.021183,-9.42672,0.070977,-0.067058,0.016419,1,IDLE
1759736183.69107,0.254234,-3.156605,-9.054422,0.052699,-0.071457,0.007589,1,IDLE
1759736183.71148,0.271592,-3.313425,-8.792406,-0.002566,-0.015363,0.040367,1,IDLE
1759736183.73145,0.303914,-3.317615,-8.80737,-0.050654,0.017253,0.075085,1,IDLE
1759736183.75148,0.199018,-3.248782,-8.946683,-0.071091,0.020323,0.064718,1,IDLE
1759736183.77139,0.118363,-3.129371,-9.081506,-0.074494,0.027811,0.02968,1,IDLE
1759736183.79145,0.121356,-3.099294,-9.256881,-0.052954,0.040874,0.004428,1,IDLE
1759736183.81148,0.114772,-3.085378,-9.378387,-0.018551,0.053261,-0.014902,1,IDLE
1759736183.83148,0.093972,-3.12144,-9.313145,-0.007346,0.03069,-0.03497,1,IDLE
1759736183.85147,0.124947,-3.157503,-9.241918,-0.020313,0.005395,-0.046791,1,IDLE
1759736183.87141,0.139462,-3.158401,-9.259725,-0.018684,0.017946,-0.035839,1,IDLE
1759736183.89145,0.148441,-3.17935,-9.313295,-0.002016,0.043658,-0.02119,1,IDLE
1759736183.91148,0.191386,-3.135806,-9.36911,0.010558,0.036185,-0.003822,1,IDLE
1759736183.93148,0.227748,-3.116203,-9.402928,0.008149,0.003651,-0.000698,1,IDLE
1759736183.95148,0.307505,-3.117699,-9.438392,0.010392,-0.043225,0.005999,1,IDLE
1759736183.97144,0.382773,-3.139696,-9.44318,0.028582,-0.063372,0.023185,1,IDLE
1759736183.99145,0.388908,-3.182193,-9.362526,0.048826,-0.061623,0.043385,1,IDLE
1759736184.01148,0.291793,-3.263895,-9.132682,0.040043,-0.050855,0.047387,1,IDLE
1759736184.03149,0.263512,-3.260304,-8.942194,-0.002091,-0.028538,0.056539,1,IDLE
1759736184.05148,0.234482,-3.282899,-8.943391,-0.050751,0.009815,0.065165,1,IDLE
1759736184.07144,0.158466,-3.194314,-9.159168,-0.05222,0.026698,0.051122,1,IDLE
1759736184.09145,0.125995,-3.064877,-9.315839,-0.016923,0.010891,0.010068,1,IDLE
1759736184.11148,0.133626,-3.056947,-9.337536,0.006679,0.002169,-0.023858,1,IDLE
1759736184.13148,0.104297,-3.095553,-9.254936,0.015912,0.022419,-0.040466,1,IDLE
1759736184.15148,0.121655,-3.153164,-9.159318,0.022926,0.027909,-0.046786,1,IDLE
1759736184.17148,0.127491,-3.17546,-9.054871,0.009205,0.043083,-0.044237,1,IDLE
1759736184.19145,0.154725,-3.158102,-9.050531,-0.020611,0.039944,-0.02922,1,IDLE
1759736184.21148,0.184952,-3.119645,-9.216779,-0.026333,0.011005,-0.019231,1,IDLE
1759736184.23104,0.224307,-3.081637,-9.347861,-0.017472,0.004307,-0.011152,1,IDLE
1759736184.25147,0.23957,-3.090465,-9.50124,-0.000352,0.007865,-0.005197,1,IDLE
1759736184.27093,0.333991,-3.109469,-9.467721,0.018118,-0.028955,0.00246,1,IDLE
1759736184.29145,0.366911,-3.181146,-9.344868,0.021872,-0.067128,0.002478,1,IDLE
1759736184.31147,0.367211,-3.269582,-9.163208,0.031023,-0.053316,0.010017,1,IDLE
1759736184.33147,0.38397,-3.345598,-8.944288,0.002554,0.016508,0.044379,1,IDLE
1759736184.35147,0.356287,-3.379416,-8.910021,-0.042281,0.027566,0.068128,1,IDLE
1759736184.37116,0.324265,-3.258508,-9.011625,-0.088347,-0.003144,0.065993,1,IDLE
1759736184.39106,0.200215,-3.161992,-9.322273,-0.079348,-0.005093,0.039399,1,IDLE
1759736184.41147,0.077512,-3.078644,-9.588478,0.000705,0.029699,-0.000329,1,IDLE
1759736184.43147,0.048931,-3.115455,-9.552715,0.059969,0.050887,-0.042386,1,IDLE
1759736184.45147,0.181959,-3.201796,-9.35654,0.068159,0.023189,-0.050488,1,IDLE
1759736184.47095,0.295834,-3.261352,-9.196129,0.047046,-0.010985,-0.036434,1,IDLE
1759736184.49145,0.29329,-3.304447,-9.126397,0.031703,-0.01414,-0.012794,1,IDLE
1759736184.51066,0.282366,-3.281553,-9.136274,0.026452,0.013774,0.018426,1,IDLE
1759736184.53147,0.228646,-3.211073,-9.181913,0.017998,0.033143,0.044758,1,IDLE
1759736184.55147,0.207398,-3.088221,-9.293243,0.014121,0.014146,0.05852,1,IDLE
1759736184.57117,0.153079,-2.982577,-9.38542,0.020838,-0.033022,0.042791,1,IDLE
1759736184.59145,0.141707,-2.98123,-9.396194,0.043893,-0.064243,0.010166,1,IDLE
1759736184.61147,0.172083,-3.071162,-9.235334,0.061871,-0.048855,-0.007546,1,IDLE
1759736184.63147,0.32202,-3.194912,-9.029283,0.05098,-0.037116,0.015042,1,IDLE
1759736184.65148,0.329652,-3.32794,-8.763975,-0.003629,-0.046832,0.038139,1,IDLE
1759736184.67115,0.192584,-3.355474,-8.705766,-0.076199,-0.004415,0.033864,1,IDLE
1759736184.69144,0.168043,-3.251775,-8.940697,-0.098634,0.049625,0.03711,1,IDLE
1759736184.71147,0.127641,-3.177704,-9.255834,-0.058137,0.052561,0.004045,1,IDLE
1759736184.73146,0.127641,-3.12159,-9.307309,-0.029608,0.033783,-0.027029,1,IDLE
1759736184.75047,0.143054,-3.187431,-9.301623,-0.030958,0.025509,-0.045292,1,IDLE
1759736184.77116,0.213533,-3.155857,-9.282769,-0.029468,0.008563,-0.05219,1,IDLE
1759736184.79144,0.179116,-3.192518,-9.254936,-0.01594,0.012141,-0.053724,1,IDLE
1759736184.81148,0.20665,-3.211971,-9.201516,-0.010608,0.037258,-0.037016,1,IDLE
1759736184.83144,0.211887,-3.228431,-9.238925,-0.012643,0.058717,-0.021133,1,IDLE
1759736184.85145,0.291644,-3.181744,-9.324967,-0.021167,0.037258,-0.001312,1,IDLE
1759736184.87115,0.319327,-3.166481,-9.456199,-0.019065,-0.026285,0.010695,1,IDLE
1759736184.89144,0.278176,-3.122488,-9.507973,-0.002162,-0.055757,0.004988,1,IDLE
1759736184.91145,0.254534,-3.137152,-9.489867,0.039674,-0.035917,0.006655,1,IDLE
1759736184.93145,0.314239,-3.206734,-9.295937,0.054639,-0.028906,0.018787,1,IDLE
1759736184.95145,0.323068,-3.287688,-9.042301,0.042818,-0.059661,0.021964,1,IDLE
1759736184.97102,0.298228,-3.375824,-8.820837,-0.015567,-0.055734,0.033751,1,IDLE
1759736184.99066,0.259023,-3.390339,-8.867824,-0.068332,-0.000075,0.0536,1,IDLE
1759736185.01151,0.222062,-3.290082,-9.142409,-0.063129,0.030358,0.058799,1,IDLE
1759736185.03145,0.155922,-3.164985,-9.33589,-0.0275,0.022973,0.029837,1,IDLE
1759736185.05146,0.092326,-3.10109,-9.331251,-0.007565,0.021979,-0.008193,1,IDLE
1759736185.07113,0.175375,-3.152116,-9.324368,-0.003674,0.010953,-0.021584,1,IDLE
1759736185.09068,0.211288,-3.138649,-9.330503,0.011591,-0.005721,-0.012177,1,IDLE
1759736185.11146,0.112527,-3.154361,-9.226355,0.012363,-0.015764,-0.021775,1,IDLE
1759736185.13145,0.066888,-3.107823,-9.194483,0.000598,-0.005255,-0.022442,1,IDLE
1759736185.15151,0.066888,-3.09271,-9.258976,0.004545,0.003406,-0.026158,1,IDLE
1759736185.17146,0.154725,-3.081338,-9.36073,0.021991,0.002181,-0.025296,1,IDLE
1759736185.19144,0.236278,-3.079841,-9.338284,0.024926,-0.006112,-0.013925,1,IDLE
1759736185.21147,0.302418,-3.095852,-9.326313,0.010207,-0.033337,0.0009,1,IDLE
1759736185.23104,0.283863,-3.069666,-9.340379,0.007129,-0.046268,0.001428,1,IDLE
1759736185.25146,0.259172,-3.108721,-9.244761,0.022982,-0.073856,-0.009122,1,IDLE
1759736185.27112,0.307805,-3.205836,-9.081506,0.014341,-0.038694,0.00352,1,IDLE
1759736185.29144,0.333393,-3.281553,-8.995764,0.004029,-0.011161,0.024194,1,IDLE
1759736185.31145,0.31394,-3.322254,-8.912266,-0.025127,0.000011,0.02965,1,IDLE
1759736185.33145,0.296731,-3.292476,-8.883536,-0.083836,0.010515,0.046024,1,IDLE
1759736185.35144,0.189441,-3.240402,-9.112631,-0.110846,0.016067,0.029449,1,IDLE
1759736185.37124,0.149338,-3.085527,-9.457097,-0.085547,0.013886,0.013376,1,IDLE
1759736185.39143,0.108188,-3.081487,-9.537602,0.026048,0.030704,-0.025365,1,IDLE
1759736185.41144,0.12375,-3.11321,-9.275437,0.042644,0.030923,-0.028959,1,IDLE
1759736185.43144,0.081253,-3.214216,-9.090036,-0.02401,0.016916,-0.04242,1,IDLE
1759736185.45146,0.140959,-3.189675,-9.117569,-0.041802,0.011145,-0.036351,1,IDLE
1759736185.47125,0.246303,-3.134459,-9.336489,-0.018814,0.005758,-0.010543,1,IDLE
1759736185.49106,0.215777,-3.072509,-9.390957,0.017182,0.018822,0.008757,1,IDLE
1759736185.51146,0.11582,-3.087024,-9.342773,0.024285,0.016293,0.005001,1,IDLE
1759736185.53146,0.20216,-3.101389,-9.267206,0.000521,-0.011748,0.001498,1,IDLE
1759736185.55145,0.303764,-3.114557,-9.307459,0.001284,-0.04561,0.018427,1,IDLE
1759736185.57146,0.276231,-3.148525,-9.275287,0.011251,-0.045819,0.027567,1,IDLE
1759736185.59105,0.215927,-3.188777,-9.180716,0.007651,-0.01501,0.028251,1,IDLE
1759736185.61146,0.22296,-3.222147,-9.157971,-0.010698,-0.025613,0.035634,1,IDLE
1759736185.63146,0.176572,-3.22065,-9.181314,-0.02952,-0.02557,0.037142,1,IDLE
1759736185.65148,0.091129,-3.168876,-9.245509,-0.028868,-0.010562,0.021205,1,IDLE
1759736185.67146,0.026935,-3.122189,-9.272294,-0.023475,0.011239,-0.007095,1,IDLE
1759736185.69143,0.096666,-3.059341,-9.301773,-0.015886,0.005317,-0.044632,1,IDLE
1759736185.71146,0.175375,-3.07191,-9.323321,0.024078,-0.010761,-0.072738,1,IDLE
1759736185.73146,0.256628,-3.151667,-9.116821,0.038364,0.005676,-0.069174,1,IDLE
1759736185.75147,0.327706,-3.27452,-8.921544,-0.000236,0.036942,-0.041906,1,IDLE
1759736185.77146,0.384419,-3.271976,-8.942194,-0.050853,0.045145,-0.007577,1,IDLE
1759736185.79143,0.343418,-3.174562,-9.204957,-0.044192,0.021271,0.0065,1,IDLE
1759736185.81149,0.259621,-3.109469,-9.334693,-0.014267,0.010994,0.004892,1,IDLE
1759736185.83132,0.229095,-3.10528,-9.322423,-0.005294,0.024803,0.007309,1,IDLE
1759736185.85145,0.306607,-3.111714,-9.325565,-0.02146,0.033484,0.023486,1,IDLE
1759736185.87139,0.356586,-3.128174,-9.425523,-0.019,-0.001266,0.044904,1,IDLE
1759736185.89086,0.285359,-3.12174,-9.466224,0.002014,-0.039518,0.04782,1,IDLE
1759736185.91146,0.171185,-3.15481,-9.339032,0.017425,-0.046936,0.028611,1,IDLE
1759736185.93075,0.184653,-3.23307,-9.179818,0.002881,-0.020012,0.026687,1,IDLE
1759736185.95152,0.210989,-3.305195,-9.129989,-0.020462,0.000826,0.040008,1,IDLE
1759736185.97146,0.197971,-3.263447,-9.196129,-0.034527,0.01277,0.048336,1,IDLE
1759736185.99143,0.095469,-3.159149,-9.332448,-0.02086,0.010748,0.018618,1,IDLE
1759736186.01147,0.088436,-3.082235,-9.44722,0.014411,0.006494,-0.019431,1,IDLE
1759736186.03146,0.152032,-3.100042,-9.411307,0.039659,0.014896,-0.041272,1,IDLE
1759736186.05145,0.21069,-3.161992,-9.308357,0.049551,0.006027,-0.042927,1,IDLE
1759736186.07145,0.287603,-3.177555,-9.201516,0.051242,-0.00844,-0.022219,1,IDLE
1759736186.09089,0.242712,-3.229479,-9.101109,0.038834,0.024754,-0.00657,1,IDLE
1759736186.11144,0.239271,-3.175011,-9.124003,0.03123,0.038674,0.017772,1,IDLE
1759736186.13145,0.222212,-3.132364,-9.213337,0.020391,0.005962,0.027018,1,IDLE
1759736186.15147,0.1857,-3.033902,-9.276334,0.012109,-0.009464,0.022259,1,IDLE
1759736186.17122,0.161309,-2.967463,-9.362675,0.015634,-0.009075,0.031243,1,IDLE
1759736186.19143,0.100257,-2.972551,-9.320926,0.027581,-0.038499,0.016618,1,IDLE
1759736186.21148,0.130783,-3.046173,-9.17922,0.018202,-0.052981,-0.005444,1,IDLE
1759736186.23145,0.184802,-3.153164,-9.093477,0.016349,-0.027623,-0.001441,1,IDLE
1759736186.25077,0.199018,-3.230676,-9.006987,-0.006356,-0.002363,0.018257,1,IDLE
1759736186.27146,0.155773,-3.27033,-8.926482,-0.050096,0.010084,0.013778,1,IDLE
1759736186.29144,0.114922,-3.224092,-9.051728,-0.073508,0.021013,-0.000537,1,IDLE
1759736186.31146,0.150685,-3.172317,-9.277831,-0.057265,0.02773,-0.009196,1,IDLE
1759736186.33146,0.166547,-3.120992,-9.418041,-0.023598,0.028916,-0.030616,1,IDLE
1759736186.35147,0.141856,-3.145981,-9.41834,0.00481,0.025112,-0.063476,1,IDLE
1759736186.37138,0.190788,-3.200599,-9.364172,0.012712,0.028284,-0.074111,1,IDLE
1759736186.39089,0.226701,-3.242198,-9.358785,0.02514,0.036535,-0.062643,1,IDLE
1759736186.41145,0.308253,-3.25357,-9.349507,0.037147,0.008675,-0.047251,1,IDLE
1759736186.43146,0.287454,-3.22469,-9.29459,0.028312,0.015186,-0.028586,1,IDLE
1759736186.45145,0.267552,-3.208529,-9.326762,0.042286,0.010891,-0.013052,1,IDLE
1759736186.47145,0.265906,-3.13805,-9.421632,0.057161,0.031667,0.00206,1,IDLE
1759736186.49097,0.319925,-3.114557,-9.29878,0.049631,0.014474,0.009939,1,IDLE
1759736186.51146,0.319626,-3.107075,-9.254038,0.058477,-0.012554,0.014445,1,IDLE
1759736186.53146,0.302268,-3.15466,-9.140763,0.069804,-0.026399,0.012331,1,IDLE
1759736186.55145,0.28072,-3.215114,-8.971373,0.05614,0.013283,0.019696,1,IDLE
1759736186.57145,0.267103,-3.293973,-8.849418,0.010641,0.015209,0.039395,1,IDLE
1759736186.59143,0.191237,-3.285144,-8.763526,-0.063383,-0.035613,0.022342,1,IDLE
1759736186.61144,0.081104,-3.254468,-8.951321,-0.102947,0.000404,-0.012374,1,IDLE
1759736186.63145,0.159065,-3.176956,-9.333795,-0.057889,0.028011,-0.035187,1,IDLE
1759736186.65145,0.244657,-3.142988,-9.463232,-0.001174,0.035397,-0.063975,1,IDLE
1759736186.67132,0.308852,-3.217208,-9.398439,0.024254,0.014243,-0.075394,1,IDLE
1759736186.69143,0.356137,-3.28664,-9.222614,0.007986,-0.030987,-0.075555,1,IDLE
1759736186.71145,0.406116,-3.337816,-9.189844,-0.008815,-0.018358,-0.055725,1,IDLE
1759736186.73145,0.417938,-3.278111,-9.283966,0.027841,0.035719,-0.021597,1,IDLE
1759736186.75149,0.424372,-3.217657,-9.289203,0.050927,0.062522,0.00456,1,IDLE
1759736186.77145,0.411803,-3.188029,-9.230695,0.04014,0.024728,0.019006,1,IDLE
1759736186.79100,0.414197,-3.150919,-9.17907,0.014244,-0.017048,0.025584,1,IDLE
1759736186.81144,0.476895,-3.090914,-9.244013,-0.003448,-0.034862,0.049416,1,IDLE
1759736186.83145,0.414047,-3.064877,-9.297882,0.020139,-0.027302,0.060793,1,IDLE
1759736186.85143,0.344166,-3.083283,-9.154978,0.028739,-0.010364,0.057893,1,IDLE
1759736186.87130,0.311994,-3.172317,-9.030929,0.006364,-0.010362,0.055034,1,IDLE
1759736186.89103,0.32202,-3.251924,-8.938602,-0.019676,-0.035397,0.051912,1,IDLE
1759736186.91145,0.347608,-3.289633,-8.88189,-0.056201,-0.022779,0.06546,1,IDLE
1759736186.93145,0.296731,-3.309086,-8.890269,-0.109148,0.007857,0.084242,1,IDLE
1759736186.95152,0.196923,-3.216311,-9.129241,-0.124485,0.015196,0.069193,1,IDLE
1759736186.97145,0.101454,-3.113659,-9.459042,-0.06427,0.013168,0.028088,1,IDLE
1759736186.99142,0.054618,-3.104382,-9.521441,0.01619,0.016449,-0.024077,1,IDLE
1759736187.01057,0.096067,-3.22903,-9.26975,0.014606,0.024132,-0.043252,1,IDLE
1759736187.03145,0.188992,-3.333776,-9.12954,-0.020694,0.000274,-0.036908,1,IDLE
1759736187.05145,0.32636,-3.318812,-9.17892,-0.033491,-0.00327,-0.011236,1,IDLE
1759736187.07049,0.329652,-3.300407,-9.347861,-0.009427,0.040962,0.019885,1,IDLE
1759736187.09142,0.297031,-3.225289,-9.440487,0.012285,0.051747,0.036043,1,IDLE
1759736187.11144,0.322918,-3.155109,-9.512911,0.023988,-0.003538,0.033339,1,IDLE
1759736187.13145,0.324714,-3.142539,-9.517849,0.037139,-0.056498,0.035836,1,IDLE
1759736187.15144,0.280571,-3.137601,-9.405023,0.049616,-0.075147,0.042798,1,IDLE
1759736187.17046,0.197372,-3.20823,-9.195231,0.047242,-0.074749,0.030849,1,IDLE
1759736187.19142,0.198868,-3.22888,-9.009231,0.032679,-0.054628,0.022643,1,IDLE
1759736187.21148,0.159813,-3.302951,-8.895806,0.005935,-0.001365,0.020271,1,IDLE
1759736187.23145,0.226102,-3.298611,-8.938004,-0.042207,0.03942,0.040046,1,IDLE
1759736187.25145,0.17358,-3.237858,-9.225906,-0.046686,0.013344,0.028831,1,IDLE
1759736187.27050,0.133776,-3.155558,-9.342175,-0.025594,-0.01865,0.007429,1,IDLE
1759736187.29142,0.088137,-3.145083,-9.263017,0.011233,-0.001744,-0.053008,1,IDLE
1759736187.31143,0.247351,-3.201646,-9.167548,0.013447,0.042833,-0.037885,1,IDLE
1759736187.33143,0.294188,-3.250428,-9.123854,0.005588,0.008719,-0.020178,1,IDLE
1759736187.35143,0.178967,-3.200898,-9.056666,-0.00642,-0.015579,-0.032489,1,IDLE
1759736187.37051,0.13198,-3.202993,-9.05113,-0.012676,-0.00351,-0.042473,1,IDLE
1759736187.39143,0.24361,-3.192369,-9.283667,0.009575,0.02951,-0.017772,1,IDLE
1759736187.41143,0.29329,-3.178153,-9.301623,0.019376,0.012515,-0.010015,1,IDLE
1759736187.43142,0.23957,-3.209427,-9.190143,0.000094,-0.029269,-0.005802,1,IDLE
1759736187.45134,0.25588,-3.21227,-9.17907,-0.015353,-0.020378,-0.002438,1,IDLE
1759736187.47052,0.358232,-3.166182,-9.306711,-0.014316,-0.001767,0.02616,1,IDLE
1759736187.49142,0.401777,-3.151368,-9.435549,0.028301,-0.037743,0.041355,1,IDLE
1759736187.51145,0.338929,-3.189675,-9.261371,0.031262,-0.054849,0.033455,1,IDLE
1759736187.53144,0.355389,-3.291279,-9.069535,-0.007877,-0.034647,0.046852,1,IDLE
1759736187.55144,0.358681,-3.29098,-9.03437,-0.041857,-0.015904,0.071284,1,IDLE
1759736187.57053,0.262165,-3.227533,-9.116372,-0.047097,-0.015885,0.065666,1,IDLE
1759736187.59142,0.189142,-3.141791,-9.191939,-0.06739,0.010329,0.043519,1,IDLE
1759736187.61145,0.122703,-3.120842,-9.414599,-0.041114,0.018573,0.007101,1,IDLE
1759736187.63145,0.176572,-3.060388,-9.490316,0.019629,-0.007313,-0.033689,1,IDLE
1759736187.65144,0.165499,-3.099893,-9.320328,0.049781,0.012899,-0.065403,1,IDLE
1759736187.67055,0.211588,-3.228731,-9.100809,0.048656,0.045872,-0.066749,1,IDLE
1759736187.69104,0.301071,-3.318364,-9.011027,0.020787,0.047415,-0.04971,1,IDLE
1759736187.71144,0.432004,-3.267187,-9.004293,-0.009315,0.01797,-0.011394,1,IDLE
1759736187.73144,0.396689,-3.245939,-9.109788,-0.023749,0.018817,0.020247,1,IDLE
1759736187.75146,0.357484,-3.197756,-9.269301,-0.0017,0.018507,0.047886,1,IDLE
1759736187.77057,0.302717,-3.124284,-9.281871,0.01156,-0.001307,0.065654,1,IDLE
1759736187.79142,0.242114,-3.120243,-9.1873,-0.018005,-0.026711,0.074078,1,IDLE
1759736187.81144,0.146645,-3.105429,-9.211392,-0.029748,-0.059246,0.069614,1,IDLE
1759736187.83144,0.094571,-3.14209,-9.215881,-0.018134,-0.060485,0.051336,1,IDLE
1759736187.85146,0.051326,-3.222895,-9.233538,-0.007782,-0.041414,0.046353,1,IDLE
1759736187.87059,0.080056,-3.302502,-9.147347,-0.024966,-0.022353,0.041213,1,IDLE
1759736187.89102,0.147692,-3.330484,-9.161113,-0.048185,-0.014783,0.041563,1,IDLE
1759736187.91084,0.146645,-3.273771,-9.248352,-0.054325,-0.024281,0.037962,1,IDLE
1759736187.93145,0.08275,-3.229928,-9.339032,-0.042935,-0.033606,0.011047,1,IDLE
1759736187.95145,0.034866,-3.166781,-9.368361,-0.015279,-0.002343,-0.020082,1,IDLE
1759736187.97060,0.041001,-3.210325,-9.433304,0.032875,0.019867,-0.043105,1,IDLE
1759736187.99142,0.130783,-3.213318,-9.324218,0.046813,-0.00032,-0.052449,1,IDLE
1759736188.01144,0.16939,-3.246687,-9.198822,0.031831,-0.021601,-0.048743,1,IDLE
1759736188.03148,0.164751,-3.271677,-9.163807,0.017409,0.00639,-0.030013,1,IDLE
1759736188.05145,0.196325,-3.236063,-9.284265,0.040038,0.030729,-0.014994,1,IDLE
1759736188.07062,0.327407,-3.220501,-9.25748,0.048892,-0.006127,0.01003,1,IDLE
1759736188.09142,0.353294,-3.238008,-9.189096,0.009994,-0.03753,0.044763,1,IDLE
1759736188.11144,0.289998,-3.153762,-9.281721,-0.002522,-0.039021,0.06656,1,IDLE
1759736188.13086,0.183156,-3.083432,-9.36896,0.039597,-0.054207,0.054538,1,IDLE
1759736188.15146,0.17343,-3.113659,-9.153183,0.054908,-0.063124,0.039375,1,IDLE
1759736188.17063,0.11567,-3.22903,-8.860043,0.002027,-0.032969,0.046055,1,IDLE
1759736188.19142,0.127042,-3.280954,-8.845827,-0.064851,0.001161,0.05262,1,IDLE
1759736188.21144,0.079458,-3.213468,-9.093178,-0.072078,0.014923,0.043182,1,IDLE
1759736188.23042,-0.035763,-3.113959,-9.287707,-0.044649,0.023152,-0.005348,1,IDLE
1759736188.25143,0.013467,-3.111864,-9.337985,-0.022369,0.034216,-0.045518,1,IDLE
1759736188.27066,0.112527,-3.182193,-9.383325,0.001859,0.026542,-0.054625,1,IDLE
1759736188.29142,0.153379,-3.20838,-9.294889,0.016789,0.019013,-0.053476,1,IDLE
1759736188.31143,0.114173,-3.275567,-9.175928,0.013263,0.03638,-0.05675,1,IDLE
1759736188.33043,0.180014,-3.303699,-9.15438,-0.009096,0.051695,-0.038783,1,IDLE
1759736188.35144,0.271742,-3.255366,-9.297284,-0.011257,0.03663,-0.013726,1,IDLE
1759736188.37066,0.271892,-3.178153,-9.487174,0.02303,0.014167,-0.001973,1,IDLE
1759736188.39141,0.240767,-3.16723,-9.435698,0.057825,-0.012896,-0.00674,1,IDLE
1759736188.41143,0.26426,-3.24534,-9.190143,0.054823,-0.033381,0.003105,1,IDLE
1759736188.43045,0.298976,-3.306692,-8.981698,0.004399,-0.017596,0.029594,1,IDLE
1759736188.45147,0.303016,-3.341707,-9.017012,-0.018528,0.001,0.055854,1,IDLE
1759736188.47068,0.180912,-3.290531,-9.128492,0.018631,-0.006083,0.046434,1,IDLE
1759736188.49142,0.100706,-3.303699,-8.979453,-0.000043,0.011281,0.031349,1,IDLE
1759736188.51143,0.130035,-3.346346,-8.967333,-0.060255,0.036289,0.044765,1,IDLE
1759736188.53142,0.123601,-3.2826,-9.281871,-0.068788,0.006833,0.044665,1,IDLE
1759736188.55144,-0.026935,-3.167828,-9.444078,-0.026573,-0.007949,-0.003392,1,IDLE
1759736188.57070,-0.058957,-3.164237,-9.395446,0.008235,0.012063,-0.051616,1,IDLE
1759736188.59142,0.046837,-3.20838,-9.280674,0.033638,0.049562,-0.068149,1,IDLE
1759736188.61144,0.203358,-3.259406,-9.237728,0.026583,0.047672,-0.058882,1,IDLE
1759736188.63048,0.252588,-3.242198,-9.22875,0.020893,-0.008417,-0.057057,1,IDLE
1759736188.65077,0.228347,-3.284545,-9.167398,0.010349,-0.00976,-0.058402,1,IDLE
1759736188.67071,0.288801,-3.288885,-9.2078,0.027751,0.015087,-0.028977,1,IDLE
1759736188.69142,0.291793,-3.224092,-9.235633,0.040105,0.021065,-0.003641,1,IDLE
1759736188.71129,0.241814,-3.220949,-9.172187,0.020731,0.01014,-0.003752,1,IDLE
1759736188.73050,0.274585,-3.258209,-9.21199,0.006733,-0.008805,-0.000133,1,IDLE
1759736188.75143,0.439486,-3.193566,-9.304317,0.010692,-0.026141,0.03724,1,IDLE
1759736188.77073,0.352397,-3.198953,-9.326164,0.019989,-0.014254,0.052657,1,IDLE
1759736188.79141,0.267103,-3.178303,-9.249549,0.027422,-0.023229,0.041609,1,IDLE
1759736188.81144,0.26411,-3.214814,-9.139865,0.018973,-0.045463,0.023981,1,IDLE
1759736188.83144,0.307356,-3.278859,-9.010728,0.005003,-0.031259,0.037905,1,IDLE
1759736188.85144,0.241216,-3.323451,-8.929774,-0.029944,0.010124,0.057761,1,IDLE
1759736188.87075,0.076764,-3.293224,-9.014768,-0.062152,0.043666,0.042511,1,IDLE
1759736188.89141,0.080355,-3.144784,-9.204508,-0.051855,0.024974,0.003123,1,IDLE
1759736188.91144,0.101005,-3.172766,-9.37734,-0.00085,0.016968,-0.02753,1,IDLE
1759736188.93053,0.143203,-3.17112,-9.30701,0.034735,0.034906,-0.033091,1,IDLE
1759736188.95143,0.151433,-3.285892,-9.088689,0.018294,0.036695,-0.028405,1,IDLE
1759736188.97076,0.222361,-3.287389,-8.991275,-0.025427,0.034964,-0.017388,1,IDLE
1759736188.99141,0.25169,-3.279009,-9.155577,-0.023141,0.036797,0.001499,1,IDLE
1759736189.01144,0.28087,-3.199851,-9.238626,-0.00608,0.04247,0.027192,1,IDLE
1759736189.03054,0.286107,-3.2,-9.291897,-0.014516,0.033712,0.04331,1,IDLE
1759736189.05144,0.269497,-3.190274,-9.403227,-0.004424,-0.038313,0.038695,1,IDLE
1759736189.07078,0.188992,-3.20015,-9.31509,0.017761,-0.067881,0.022254,1,IDLE
1759736189.09141,0.213383,-3.276166,-9.085097,0.013238,-0.013785,0.033896,1,IDLE
1759736189.11081,0.236727,-3.389441,-9.021501,-0.017772,0.021482,0.060589,1,IDLE
1759736189.13144,0.20635,-3.357868,-9.153482,-0.02082,-0.005108,0.060527,1,IDLE
1759736189.15143,0.102202,-3.36924,-9.233239,-0.019144,-0.016925,0.036929,1,IDLE
1759736189.17078,0.037559,-3.350835,-9.324368,-0.01664,0.015443,0.02833,1,IDLE
1759736189.19141,0.063446,-3.320309,-9.52982,0.000528,0.032457,0.026562,1,IDLE
1759736189.21148,0.025887,-3.225887,-9.689933,0.044354,0.001394,0.000521,1,IDLE
1759736189.23058,0.004489,-3.188628,-9.653421,0.05935,-0.008891,-0.018563,1,IDLE
1759736189.25142,0.09906,-3.211223,-9.581894,0.077704,-0.039178,-0.046752,1,IDLE
1759736189.27081,0.161459,-3.23711,-9.47236,0.06982,-0.042654,-0.058508,1,IDLE
1759736189.29140,0.257227,-3.244293,-9.428217,0.11407,-0.017152,-0.049131,1,IDLE
1759736189.31141,0.253336,-3.248632,-9.181614,0.134955,0.011466,-0.05223,1,IDLE
1759736189.33059,0.279822,-3.277363,-9.025691,0.126065,0.03562,-0.05344,1,IDLE
1759736189.35141,0.464475,-3.324648,-8.823681,0.069508,0.065924,-0.028704,1,IDLE
1759736189.37141,0.59855,-3.271677,-8.816199,0.037489,0.023585,0.004967,1,IDLE
1759736189.39142,0.452953,-3.259406,-8.811859,0.035161,0.008435,0.015454,1,IDLE
1759736189.41141,0.306159,-3.31582,-8.732252,0.022331,0.020497,0.019202,1,IDLE
1759736189.43141,0.320823,-3.321506,-8.768764,0.006306,0.081847,0.026449,1,IDLE
1759736189.45143,0.37574,-3.320309,-8.787468,-0.024448,0.080604,0.053663,1,IDLE
1759736189.47143,0.33848,-3.298312,-8.850017,-0.049907,0.02393,0.063472,1,IDLE
1759736189.49141,0.197522,-3.307141,-8.911967,-0.082816,0.003766,0.053055,1,IDLE
1759736189.51143,0.161459,-3.302951,-9.137321,-0.096961,0.040501,0.040945,1,IDLE
1759736189.53141,0.26441,-3.239205,-9.414599,-0.05176,0.036993,0.029098,1,IDLE
1759736189.55143,0.331298,-3.252972,-9.438691,-0.023944,0.00397,0.015031,1,IDLE
1759736189.57143,0.328903,-3.323302,-9.321824,-0.009481,-0.022136,0.00325,1,IDLE
1759736189.59141,0.300323,-3.430292,-9.194931,-0.007204,-0.014064,0.002372,1,IDLE
1759736189.61143,0.325312,-3.402759,-9.140014,-0.005944,0.004859,0.004833,1,IDLE
1759736189.63144,0.313192,-3.408745,-9.071331,-0.021952,0.013293,0.011901,1,IDLE
1759736189.65144,0.286107,-3.415329,-9.175928,-0.020926,0.026177,0.008358,1,IDLE
1759736189.67143,0.272041,-3.384803,-9.27798,0.007216,0.026035,0.00948,1,IDLE
1759736189.69141,0.292392,-3.383905,-9.308506,0.021811,0.017254,0.008653,1,IDLE
1759736189.71143,0.329652,-3.369091,-9.245509,0.018848,-0.005239,0.011172,1,IDLE
1759736189.73143,0.362123,-3.410091,-9.271995,0.018142,-0.005879,0.019437,1,IDLE
1759736189.75143,0.372747,-3.389441,-9.290849,0.034825,-0.025203,0.026746,1,IDLE
1759736189.77090,0.355389,-3.378219,-9.197625,0.046043,-0.037308,0.0259,1,IDLE
1759736189.79142,0.343718,-3.41458,-9.037363,0.026901,-0.045304,0.031823,1,IDLE
1759736189.81142,0.303914,-3.437026,-8.991873,0.005834,-0.036431,0.041618,1,IDLE
1759736189.83141,0.183905,-3.447351,-8.981698,-0.010954,-0.007158,0.0311,1,IDLE
1759736189.85143,0.137068,-3.436577,-9.007136,-0.036408,0.029214,0.011965,1,IDLE
1759736189.87142,0.177769,-3.373131,-9.169792,-0.017532,0.025207,-0.004266,1,IDLE
1759736189.89140,0.203208,-3.3034,-9.239823,0.010485,0.01058,-0.02385,1,IDLE
1759736189.91141,0.181959,-3.366248,-9.143456,0.015603,0.011429,-0.044208,1,IDLE
1759736189.93141,0.215329,-3.418471,-8.988731,-0.015987,0.023368,-0.044423,1,IDLE
1759736189.95141,0.303166,-3.416226,-9.031677,-0.028367,0.023809,-0.032512,1,IDLE
1759736189.97141,0.3304,-3.395577,-9.159916,-0.005834,0.011587,-0.022088,1,IDLE
1759736189.99140,0.33444,-3.408894,-9.213786,0.002524,0.014825,-0.004533,1,IDLE
1759736190.01142,0.323965,-3.364153,-9.247005,-0.000405,0.010779,0.01104,1,IDLE
1759736190.03141,0.321571,-3.325845,-9.262268,0.00776,-0.034582,0.01671,1,IDLE
1759736190.05143,0.297928,-3.295619,-9.195231,0.007907,-0.060249,0.024208,1,IDLE
1759736190.07143,0.23134,-3.324648,-9.140463,-0.004963,-0.037547,0.034587,1,IDLE
1759736190.09139,0.275782,-3.347393,-9.196877,-0.004322,-0.02921,0.045886,1,IDLE
1759736190.11141,0.273238,-3.365499,-9.245958,0.012266,-0.049992,0.0526,1,IDLE
1759736190.13141,0.264859,-3.337517,-9.164405,0.004898,-0.058868,0.043311,1,IDLE
1759736190.15146,0.199467,-3.377021,-9.113678,0.001255,-0.064733,0.01834,1,IDLE
1759736190.17094,0.221464,-3.41458,-9.078663,0.001313,-0.056545,0.003128,1,IDLE
1759736190.19140,0.213533,-3.465158,-8.992173,-0.017336,0.00707,0.005557,1,IDLE
1759736190.21143,0.285359,-3.458275,-9.017312,-0.035985,0.051947,0.027994,1,IDLE
1759736190.23141,0.306907,-3.379266,-9.115175,-0.04408,0.043683,0.032296,1,IDLE
1759736190.25142,0.196175,-3.300557,-9.223961,-0.039026,0.002525,0.002602,1,IDLE
1759736190.27143,0.122254,-3.252074,-9.289802,-0.012636,-0.019111,-0.03728,1,IDLE
1759736190.29140,0.111929,-3.284845,-9.223363,0.018751,0.010281,-0.048673,1,IDLE
1759736190.31144,0.150685,-3.349488,-9.045743,0.014824,0.043901,-0.029428,1,IDLE
1759736190.33140,0.202011,-3.396025,-8.942044,-0.027144,0.030112,-0.005685,1,IDLE
1759736190.35142,0.149488,-3.341258,-8.993519,-0.050508,-0.011137,-0.007295,1,IDLE
1759736190.37044,0.101155,-3.310882,-9.179668,-0.043287,-0.013097,-0.015661,1,IDLE
1759736190.39140,0.192284,-3.283049,-9.312996,-0.020779,0.006721,-0.000299,1,IDLE
1759736190.41143,0.21039,-3.270479,-9.402778,0.001726,0.002068,0.005098,1,IDLE
1759736190.43140,0.218022,-3.263596,-9.38138,0.016177,-0.038947,-0.021269,1,IDLE
1759736190.45143,0.351499,-3.337367,-9.295638,0.00666,-0.059745,-0.023246,1,IDLE
1759736190.47043,0.454449,-3.404854,-9.283816,0.020299,-0.062973,0.002708,1,IDLE
1759736190.49140,0.40447,-3.441216,-9.160515,0.027104,-0.03891,0.01613,1,IDLE
1759736190.51143,0.37589,-3.434333,-8.995315,-0.00786,-0.005096,0.019394,1,IDLE
1759736190.53141,0.403872,-3.406201,-9.065495,-0.030381,-0.000316,0.020536,1,IDLE
1759736190.55141,0.36317,-3.3034,-9.14166,-0.012037,-0.004046,0.014423,1,IDLE
1759736190.57045,0.229245,-3.287089,-9.108291,-0.002334,0.040315,-0.006753,1,IDLE
1759736190.59140,0.29314,-3.29502,-9.06774,-0.007799,0.044539,-0.010781,1,IDLE
1759736190.61143,0.322918,-3.307141,-9.021202,-0.02943,0.012354,-0.002887,1,IDLE
1759736190.63140,0.182109,-3.316568,-8.971672,-0.041721,-0.019229,-0.011093,1,IDLE
1759736190.65141,0.088885,-3.302203,-8.976461,-0.062715,0.033725,-0.012807,1,IDLE
1759736190.67047,0.109834,-3.302951,-9.225009,-0.036428,0.053669,-0.015378,1,IDLE
1759736190.69140,0.251391,-3.260603,-9.276484,-0.008215,0.007405,-0.007453,1,IDLE
1759736190.71143,0.252588,-3.319411,-9.165303,-0.037891,-0.028391,0.01088,1,IDLE
1759736190.73140,0.20635,-3.35682,-9.176077,-0.061515,-0.038478,0.022099,1,IDLE
1759736190.75140,0.225055,-3.320907,-9.330503,-0.044209,-0.039907,0.027289,1,IDLE
1759736190.77051,0.222511,-3.281253,-9.435399,-0.002557,-0.040128,0.025519,1,IDLE
1759736190.79140,0.237325,-3.28694,-9.370007,0.019133,-0.01898,0.016489,1,IDLE
1759736190.81142,0.300622,-3.315071,-9.276484,0.024769,-0.000982,0.013947,1,IDLE
1759736190.83140,0.403872,-3.320309,-9.22022,0.024075,-0.008607,0.021568,1,IDLE
1759736190.85141,0.468665,-3.325995,-9.194183,0.02684,-0.009939,0.032063,1,IDLE
1759736190.87052,0.430058,-3.356072,-9.205256,0.039831,0.011174,0.039997,1,IDLE
1759736190.89140,0.419733,-3.327641,-9.109339,0.043373,0.03286,0.051878,1,IDLE
1759736190.91143,0.281917,-3.335721,-9.082703,0.014931,0.069587,0.042004,1,IDLE
1759736190.93140,0.300023,-3.273622,-9.093477,-0.00491,0.051844,0.03645,1,IDLE
1759736190.95143,0.332944,-3.331232,-9.079411,-0.030179,-0.005342,0.039464,1,IDLE
1759736190.97052,0.227,-3.334973,-9.119664,-0.048416,0.011962,0.056114,1,IDLE
1759736190.99140,0.105195,-3.266739,-9.268553,-0.037518,0.051116,0.056599,1,IDLE
1759736191.01142,0.064793,-3.20015,-9.34816,-0.01112,0.024701,0.044243,1,IDLE
1759736191.03141,0.099659,-3.232771,-9.221268,-0.018555,-0.028529,0.044491,1,IDLE
1759736191.05142,0.011672,-3.284545,-9.28621,-0.021459,-0.028965,0.014459,1,IDLE
1759736191.07054,0.047285,-3.277662,-9.28651,0.006954,-0.018476,0.003853,1,IDLE
1759736191.09139,0.106093,-3.315071,-9.213487,0.010046,-0.001617,0.005414,1,IDLE
1759736191.11143,0.129437,-3.322254,-9.129989,-0.000472,0.004365,-0.00044,1,IDLE
1759736191.13140,0.186299,-3.310582,-9.094824,-0.023571,-0.014107,-0.012222,1,IDLE
1759736191.15143,0.213234,-3.246986,-9.124153,-0.051393,-0.044867,-0.015173,1,IDLE
1759736191.17055,0.210989,-3.39004,-9.170989,-0.028033,-0.019085,-0.021745,1,IDLE
1759736191.19140,0.311396,-3.242348,-9.192088,-0.02301,0.060371,-0.00046,1,IDLE
1759736191.21140,0.302567,-3.292327,-9.229797,-0.040574,0.057374,-0.013287,1,IDLE
1759736191.23090,0.352247,-3.192369,-9.283218,-0.061543,-0.017927,-0.022778,1,IDLE
1759736191.25056,0.371401,-3.166032,-9.355792,-0.037949,-0.054454,-0.018484,1,IDLE
1759736191.27060,0.337582,-3.230826,-9.355642,-0.018558,-0.036311,-0.009955,1,IDLE
1759736191.29139,0.243909,-3.24549,-9.238925,0.028063,0.026811,0.026723,1,IDLE
1759736191.31146,0.157868,-3.221847,-9.02225,0.005341,-0.002814,0.016069,1,IDLE
1759736191.33140,0.211288,-3.199252,-8.987234,-0.029454,0.006052,0.04552,1,IDLE
1759736191.35140,0.18166,-3.215114,-9.276334,0.001941,-0.029275,0.0483,1,IDLE
1759736191.37063,0.167744,-3.101389,-9.22022,0.000511,0.010105,0.04793,1,IDLE
1759736191.39139,0.083199,-3.19192,-9.114426,-0.004131,0.020758,-0.003431,1,IDLE
1759736191.41140,0.199168,-3.208679,-9.102156,-0.019539,0.005667,-0.015411,1,IDLE
1759736191.43139,0.18989,-3.244443,-9.12116,-0.017264,-0.001338,-0.019923,1,IDLE
1759736191.45142,0.200963,-3.279458,-9.131186,-0.006552,0.021688,-0.025156,1,IDLE
1759736191.47064,0.262913,-3.293524,-9.190592,0.010334,0.052543,-0.017126,1,IDLE
1759736191.49139,0.440683,-3.297863,-9.243115,-0.012307,0.045713,0.01187,1,IDLE
1759736191.51141,0.430208,-3.216011,-9.301773,-0.012769,-0.006837,0.016333,1,IDLE
1759736191.53139,0.383372,-3.189376,-9.279327,0.017854,-0.031918,0.005771,1,IDLE
1759736191.55069,0.366014,-3.251625,-9.149741,0.03766,-0.019147,0.032778,1,IDLE
1759736191.57066,0.395941,-3.27018,-9.019855,0.008865,0.007843,0.075429,1,IDLE
1759736191.59139,0.242413,-3.278111,-9.123554,0.005504,0.003383,0.077516,1,IDLE
1759736191.61141,0.220865,-3.206883,-9.156026,0.018766,-0.034989,0.069392,1,IDLE
1759736191.63139,0.198419,-3.283049,-9.171738,0.031717,-0.024559,0.056549,1,IDLE
1759736191.65142,0.158466,-3.207781,-9.044845,0.012885,-0.006361,0.069209,1,IDLE
1759736191.67067,-0.061501,-3.353379,-9.019257,-0.021588,-0.012525,0.032831,1,IDLE
1759736191.69139,0.021847,-3.284396,-9.018359,-0.043591,-0.023525,0.009497,1,IDLE
1759736191.71142,0.044293,-3.323002,-9.100959,-0.055436,0.016633,0.003486,1,IDLE
1759736191.73139,0.064643,-3.326893,-9.226206,-0.063742,0.042917,0.000614,1,IDLE
1759736191.75141,0.1239,-3.255516,-9.346963,-0.051527,0.015284,-0.025577,1,IDLE
1759736191.77069,0.178069,-3.233369,-9.485677,-0.027671,0.000634,-0.044019,1,IDLE
1759736191.79139,0.246303,-3.292925,-9.556755,0.019426,0.006007,-0.052353,1,IDLE
1759736191.81142,0.373795,-3.380313,-9.487024,0.049,0.006971,-0.028481,1,IDLE
1759736191.83139,0.399532,-3.42311,-9.353996,0.051981,0.003373,-0.004204,1,IDLE
1759736191.85141,0.32621,-3.477578,-9.237728,0.043763,0.003464,-0.0013,1,IDLE
1759736191.87070,0.333841,-3.392284,-9.252692,0.049204,-0.002291,0.00808,1,IDLE
1759736191.89139,0.323367,-3.355773,-9.252692,0.067349,-0.029116,0.022001,1,IDLE
1759736191.91142,0.243311,-3.337667,-9.117419,0.057671,-0.017679,0.036489,1,IDLE
1759736191.93139,0.151882,-3.281852,-9.02225,0.026261,0.005512,0.055037,1,IDLE
1759736191.95142,0.051026,-3.228282,-9.066542,0.004218,-0.000872,0.045978,1,IDLE
1759736191.97072,-0.022146,-3.124583,-9.209446,0.013983,-0.010427,0.014462,1,IDLE
1759736191.99139,-0.026785,-3.108272,-9.296835,0.037231,-0.015655,-0.019282,1,IDLE
1759736192.01142,0.054468,-3.132364,-9.200767,0.043513,-0.02299,-0.035409,1,IDLE
1759736192.03139,0.213234,-3.164386,-9.148843,0.036181,-0.023487,-0.02592,1,IDLE
1759736192.05141,0.299126,-3.139547,-9.064148,0.028913,-0.05361,-0.01165,1,IDLE
1759736192.07074,0.219518,-3.197307,-8.924087,0.010791,-0.053153,-0.027103,1,IDLE
1759736192.09139,0.193631,-3.282002,-8.800487,-0.016309,-0.0048,-0.031577,1,IDLE
1759736192.11140,0.307356,-3.346944,-8.868721,-0.045841,0.062709,-0.004178,1,IDLE
1759736192.13138,0.513257,-3.261501,-9.146299,-0.054068,0.069656,0.0302,1,IDLE
1759736192.15141,0.514304,-3.226486,-9.299827,-0.027039,-0.01985,0.032369,1,IDLE
1759736192.17074,0.441132,-3.2618,-9.150938,-0.034236,-0.055448,0.036316,1,IDLE
1759736192.19138,0.319776,-3.375525,-9.131036,-0.055673,0.01997,0.060731,1,IDLE
1759736192.21140,0.254982,-3.32405,-9.259425,-0.038168,0.094543,0.079577,1,IDLE
1759736192.23105,0.332644,-3.2413,-9.405621,-0.023917,0.080274,0.079761,1,IDLE
1759736192.25140,0.339827,-3.255965,-9.460538,-0.034166,-0.002496,0.079221,1,IDLE
1759736192.27075,0.261567,-3.247286,-9.440188,-0.027131,-0.041796,0.076634,1,IDLE
1759736192.29138,0.131232,-3.221099,-9.440038,0.00146,0.003342,0.07448,1,IDLE
1759736192.31140,0.084845,-3.216011,-9.382727,0.021344,0.050057,0.072001,1,IDLE
1759736192.33107,0.101604,-3.196558,-9.300426,0.033874,-0.000169,0.061005,1,IDLE
1759736192.35140,0.039055,-3.198504,-9.141212,0.036807,-0.057941,0.040938,1,IDLE
1759736192.37077,-0.043844,-3.261052,-9.00953,0.012712,-0.011823,0.021017,1,IDLE
1759736192.39138,0.019603,-3.318513,-9.131036,0.006011,0.04513,0.021356,1,IDLE
1759736192.41141,0.163105,-3.288885,-9.273192,0.012539,0.036856,0.030496,1,IDLE
1759736192.43138,0.184204,-3.243694,-9.372102,0.03041,-0.020215,0.006364,1,IDLE
1759736192.45141,0.211288,-3.24534,-9.301025,0.047657,-0.067103,-0.017451,1,IDLE
1759736192.47079,0.226402,-3.289334,-9.172635,0.060889,-0.045754,-0.021648,1,IDLE
1759736192.49052,0.180762,-3.394828,-9.07567,0.085782,-0.013814,-0.016735,1,IDLE
1759736192.51140,0.208894,-3.372832,-8.851364,0.034238,0.029743,0.006418,1,IDLE
1759736192.53138,0.139163,-3.412934,-8.944438,-0.02364,0.044886,0.0158,1,IDLE
1759736192.55141,0.168791,-3.234267,-9.204957,-0.024631,0.005086,0.009699,1,IDLE
1759736192.57081,0.18166,-3.179799,-9.439439,0.028461,-0.037737,-0.019304,1,IDLE
1759736192.59138,0.207398,-3.279158,-9.359533,0.053186,-0.054806,-0.02254,1,IDLE
1759736192.61141,0.235081,-3.392733,-8.984092,-0.017106,-0.142395,-0.03066,1,IDLE
1759736192.63112,0.258125,-3.456329,-9.041553,-0.080952,-0.166808,-0.028701,1,IDLE
1759736192.65141,0.212934,-3.467403,-9.167548,-0.099536,-0.167947,-0.005549,1,IDLE
1759736192.67082,0.054169,-3.449296,-9.316138,-0.057158,-0.12289,-0.006934,1,IDLE
1759736192.69138,0.021398,-3.453187,-9.39769,0.012157,-0.075179,-0.018447,1,IDLE
1759736192.71140,0.146196,-3.465607,-9.353847,0.043357,-0.017496,-0.003535,1,IDLE
1759736192.73140,0.16101,-3.489998,-9.304317,0.055043,0.042498,0.033353,1,IDLE
1759736192.75140,0.091578,-3.503615,-9.259276,0.071125,0.021761,0.038308,1,IDLE
1759736192.77083,0.067935,-3.488801,-9.19149,0.078704,-0.036658,0.031892,1,IDLE
1759736192.79138,0.023343,-3.517082,-9.068637,0.056852,-0.038784,0.028779,1,IDLE
1759736192.81140,-0.011522,-3.517382,-9.151985,0.061957,-0.03213,0.03584,1,IDLE
1759736192.83141,-0.024541,-3.478476,-9.166051,0.093007,-0.041397,0.03665,1,IDLE
1759736192.85141,-0.085742,-3.48102,-9.00968,0.094381,-0.0185,0.031738,1,IDLE
1759736192.87085,-0.077662,-3.518728,-8.970026,0.084408,-0.010299,0.031851,1,IDLE
1759736192.89138,0.021697,-3.446154,-9.056367,0.09207,-0.029527,0.043591,1,IDLE
1759736192.91140,-0.097115,-3.489399,-8.944139,0.078699,-0.026167,0.028892,1,IDLE
1759736192.93137,-0.117316,-3.457377,-8.785224,0.041949,-0.007218,0.018824,1,IDLE
1759736192.95141,-0.119261,-3.469647,-8.765621,-0.00722,0.010678,0.010041,1,IDLE
1759736192.97087,-0.101005,-3.507057,-8.867674,-0.031892,-0.003309,-0.01472,1,IDLE
1759736192.99138,-0.072125,-3.515436,-9.060407,0.012753,-0.004903,-0.037139,1,IDLE
1759736193.01138,-0.02065,-3.569755,-8.997559,0.037715,0.034429,-0.032887,1,IDLE
1759736193.03137,0.03322,-3.639635,-8.804826,-0.011006,0.054211,-0.025038,1,IDLE
1759736193.05140,0.046986,-3.659986,-8.800038,-0.056241,0.032303,-0.03173,1,IDLE
1759736193.07087,0.09083,-3.658789,-8.911817,-0.07143,0.04027,-0.028028,1,IDLE
1759736193.09137,0.110283,-3.599981,-9.060258,-0.057161,0.073092,-0.016296,1,IDLE
1759736193.11140,0.155773,-3.593098,-9.084798,-0.053737,0.039089,-0.006086,1,IDLE
1759736193.13138,0.118812,-3.528754,-9.072378,-0.057499,0.020837,-0.009732,1,IDLE
1759736193.15140,0.091279,-3.512593,-9.1668,-0.04709,0.033849,-0.011425,1,IDLE
1759736193.17089,0.071078,-3.482217,-9.202413,-0.024903,0.055277,-0.006804,1,IDLE
1759736193.19138,0.074669,-3.444658,-9.164106,-0.029652,0.059066,-0.014118,1,IDLE
1759736193.21141,0.092027,-3.451242,-9.1873,-0.036841,0.026402,-0.014826,1,IDLE
1759736193.23136,0.111031,-3.431938,-9.206753,-0.039376,-0.004139,-0.012109,1,IDLE
1759736193.25140,0.074819,-3.404704,-9.19553,-0.027049,-0.001744,-0.017792,1,IDLE
1759736193.27090,-0.015862,-3.425654,-9.13762,-0.016516,0.033755,-0.034637,1,IDLE
1759736193.29138,0.090082,-3.372682,-9.028834,-0.03241,0.034928,-0.027251,1,IDLE
1759736193.31140,0.071078,-3.371485,-9.087641,-0.046357,0.019826,-0.02663,1,IDLE
1759736193.33137,0.027683,-3.347543,-9.148693,-0.035443,0.005697,-0.043312,1,IDLE
1759736193.35139,0.074669,-3.312378,-9.147796,-0.029544,0.021195,-0.058535,1,IDLE
1759736193.37093,0.133177,-3.326444,-9.152285,-0.032581,0.027812,-0.05814,1,IDLE
1759736193.39137,0.273238,-3.316867,-9.153332,-0.026791,0.022248,-0.039889,1,IDLE
1759736193.41138,0.217872,-3.327342,-9.107842,-0.035549,0.016291,-0.034259,1,IDLE
1759736193.43141,0.195277,-3.333477,-9.115324,-0.04233,0.017002,-0.036556,1,IDLE
1759736193.45138,0.291045,-3.316867,-9.223662,-0.043318,0.013421,-0.025908,1,IDLE
1759736193.47095,0.279822,-3.311031,-9.246556,-0.035874,-0.00479,-0.009828,1,IDLE
1759736193.49121,0.218621,-3.263297,-9.226804,-0.028989,-0.005268,-0.004852,1,IDLE
1759736193.51139,0.141707,-3.255965,-9.168146,-0.039591,0.007652,-0.012411,1,IDLE
1759736193.53060,0.209493,-3.260304,-9.182063,-0.053496,-0.002707,-0.011792,1,IDLE
1759736193.55139,0.25199,-3.248632,-9.237877,-0.038952,-0.032062,-0.013375,1,IDLE
1759736193.57096,0.266505,-3.221249,-9.185953,-0.021982,-0.029174,-0.006749,1,IDLE
1759736193.59137,0.167444,-3.305046,-9.06355,-0.049671,0.004806,0.000496,1,IDLE
1759736193.61139,0.136619,-3.264793,-9.08824,-0.082629,0.027275,-0.001054,1,IDLE
1759736193.63141,0.087239,-3.239056,-9.229647,-0.065309,0.027698,-0.028705,1,IDLE
1759736193.65140,0.214131,-3.248034,-9.308656,-0.036195,0.012815,-0.038756,1,IDLE
1759736193.67097,0.31813,-3.322553,-9.216479,-0.02554,0.014864,-0.024653,1,IDLE
1759736193.69137,0.309451,-3.39004,-9.131934,-0.043599,0.02599,-0.005476,1,IDLE
1759736193.71043,0.312892,-3.360412,-9.142109,-0.075351,0.016064,0.00905,1,IDLE
1759736193.73140,0.240019,-3.304746,-9.303119,-0.073035,0.004282,0.011059,1,IDLE
1759736193.75140,0.134823,-3.222745,-9.446023,-0.02336,0.001041,-0.006786,1,IDLE
1759736193.77100,0.129287,-3.197756,-9.413253,0.020085,0.016593,-0.020321,1,IDLE
1759736193.79137,0.150535,-3.231873,-9.247005,0.007557,0.028167,-0.019385,1,IDLE
1759736193.81140,0.214431,-3.306542,-9.1668,-0.020315,-0.016041,-0.024869,1,IDLE
1759736193.83141,0.31798,-3.249979,-9.170989,-0.034113,-0.040367,-0.010938,1,IDLE
1759736193.85138,0.242862,-3.239804,-9.251943,-0.009011,-0.005475,-0.003882,1,IDLE
1759736193.87099,0.217423,-3.217358,-9.187599,0.010708,0.028208,-0.009717,1,IDLE
1759736193.89136,0.307206,-3.216011,-9.106346,-0.008238,0.036205,-0.004095,1,IDLE
1759736193.91140,0.336984,-3.23741,-9.144504,-0.031913,0.007664,0.003576,1,IDLE
1759736193.93075,0.314389,-3.21242,-9.209297,-0.041024,-0.024233,0.005522,1,IDLE
1759736193.95139,0.285658,-3.188328,-9.26975,-0.029086,-0.020218,0.006877,1,IDLE
1759736193.97101,0.205452,-3.171419,-9.282469,0.005835,0.009162,-0.00467,1,IDLE
1759736193.99136,0.142904,-3.192369,-9.194333,0.010969,0.045219,-0.020009,1,IDLE
1759736194.01139,0.258125,-3.225289,-9.13343,-0.020261,0.039037,-0.01757,1,IDLE
1759736194.03128,0.410456,-3.198504,-9.244611,-0.039687,-0.016602,0.002688,1,IDLE
1759736194.05138,0.343867,-3.144485,-9.286959,-0.039808,-0.046606,0.004492,1,IDLE
1759736194.07103,0.242563,-3.126079,-9.298481,-0.01882,-0.014873,0.001339,1,IDLE
1759736194.09136,0.228646,-3.172317,-9.249549,0.006473,0.01833,0.002171,1,IDLE
1759736194.11138,0.26441,-3.21661,-9.121459,0.007923,0.023843,0.003147,1,IDLE
1759736194.13139,0.33429,-3.240103,-9.032575,-0.025454,0.01161,0.020232,1,IDLE
1759736194.15138,0.353743,-3.210176,-9.0839,-0.052993,-0.002175,0.039165,1,IDLE
1759736194.17104,0.21877,-3.153912,-9.197176,-0.058055,-0.004,0.026125,1,IDLE
1759736194.19136,0.1444,-3.124583,-9.282918,-0.039588,0.002463,0.003327,1,IDLE
1759736194.21138,0.209493,-3.066673,-9.33589,-0.012709,0.021703,-0.001064,1,IDLE
1759736194.23138,0.198868,-3.139696,-9.320029,-0.000206,0.021898,-0.010149,1,IDLE
1759736194.25138,0.281917,-3.162591,-9.202713,-0.032341,0.010019,-0.004695,1,IDLE
1759736194.27105,0.276081,-3.206584,-9.295189,-0.036957,-0.009956,-0.006793,1,IDLE
1759736194.29137,0.32187,-3.185635,-9.341127,-0.013741,-0.020319,-0.006232,1,IDLE
1759736194.31138,0.353145,-3.216909,-9.304765,-0.001383,-0.001237,0.006413,1,IDLE
1759736194.33138,0.289998,-3.255815,-9.251644,-0.000625,0.021059,0.006824,1,IDLE
1759736194.35138,0.30975,-3.247435,-9.239673,-0.006426,0.023534,0.013147,1,IDLE
1759736194.37107,0.298377,-3.237709,-9.257929,-0.012822,0.00814,0.019656,1,IDLE
1759736194.39136,0.337582,-3.205836,-9.327211,-0.010935,-0.024331,0.018139,1,IDLE
1759736194.41138,0.250942,-3.176357,-9.371504,0.00547,-0.010381,0.019947,1,IDLE
1759736194.43139,0.187346,-3.189077,-9.350106,0.028774,0.001068,0.005389,1,IDLE
1759736194.45138,0.176572,-3.185186,-9.256582,0.032284,0.006143,-0.007239,1,IDLE
1759736194.47108,0.217423,-3.168127,-9.188946,0.028191,0.00877,-0.006169,1,IDLE
1759736194.49136,0.247351,-3.209876,-9.143157,0.016058,0.007579,0.004067,1,IDLE
1759736194.51139,0.252289,-3.165584,-9.133281,-0.004189,-0.00558,0.008249,1,IDLE
