SamplingTime, AccelerationX, AccelerationY, AccelerationZ, GyroX, GyroY, GyroZ, MagneticFieldX, MagneticFieldY, MagneticFieldZ, Latitude, Longitude
1759228856.940931, 0.130484, -1.362750, -9.065046, -0.180403, 0.674943, -0.003354, 42.664124, 26.419876, -273.365723, , 
1759228856.960963, 0.292093, -2.382231, -9.125649, -0.267985, -0.068883, -0.054328, 42.549408, 26.818176, -273.300354, , 
1759228856.981036, -0.260669, -2.075174, -9.252692, -0.262791, -0.388693, -0.158862, 42.629776, 26.974976, -273.282776, , 
1759228857.001105, -0.259322, -1.893215, -9.204808, -0.131164, -0.277725, -0.211113, 42.201096, 26.746918, -272.885437, 13.727799, 100.772426
1759228857.020869, -0.325163, -1.877802, -8.977059, -0.020681, -0.326115, -0.256761, 42.026001, 26.742218, -272.800262, 13.727799, 100.772426
1759228857.040909, -0.043993, -2.361880, -8.826973, 0.020078, -0.464476, -0.264627, 41.674164, 27.075500, -273.185181, 13.727799, 100.772426
1759228857.060912, -0.183306, -2.336741, -8.611046, -0.083363, -0.513836, -0.184200, 41.445587, 27.118591, -273.074036, 13.727799, 100.772426
1759228857.081006, -0.474950, -2.337339, -8.632593, -0.241972, -0.425693, -0.147759, 41.212555, 27.059311, -273.051941, 13.727799, 100.772426
1759228857.100918, -0.634912, -2.516007, -9.270798, -0.195637, -0.355282, -0.094055, 40.784882, 27.292938, -272.732910, 13.727799, 100.772426
1759228857.120919, -0.527772, -2.644396, -9.445126, 0.021941, -0.085676, -0.037108, 40.789108, 27.164169, -273.145020, 13.727799, 100.772426
1759228857.140995, -0.255581, -2.259378, -9.191490, 0.189544, 0.074399, 0.036184, 40.957993, 27.264191, -272.727783, 13.727799, 100.772426
1759228857.161018, -0.319925, -2.169296, -8.949526, 0.277387, -0.161000, 0.081907, 41.468018, 26.832733, -273.246399, 13.727799, 100.772426
1759228857.180917, -0.293140, -2.330755, -8.714445, 0.322642, -0.329603, 0.089131, 41.006180, 26.802094, -273.406555, 13.727799, 100.772426
1759228857.200922, -0.220267, -2.337938, -8.586505, 0.231970, -0.368771, 0.068691, 40.953018, 26.579102, -273.568665, 13.727799, 100.772426
1759228857.220916, -0.386963, -2.582146, -8.625560, -0.088771, -0.244365, 0.015063, 41.240295, 26.891922, -273.493500, 13.727799, 100.772426
1759228857.240925, -0.380828, -2.322226, -8.863783, -0.473604, 0.051665, 0.016339, 40.811829, 26.690613, -273.198975, 13.727799, 100.772426
1759228857.261088, -0.691775, -1.890372, -9.675268, -0.771459, 0.559701, 0.041405, 41.392242, 27.020081, -272.954529, 13.727799, 100.772426
1759228857.281051, -0.412551, -2.082357, -10.513987, -0.841687, 1.001453, 0.091676, 41.697922, 27.131317, -272.591675, 13.727799, 100.772426
1759228857.300979, -0.544831, -2.051980, -10.184934, -0.766691, 1.383297, 0.163173, 42.123199, 27.515335, -271.422699, 13.727799, 100.772426
1759228857.321009, -0.380229, -1.727117, -9.177125, -0.771714, 1.490562, 0.201288, 42.657700, 27.667679, -270.362122, 13.727799, 100.772426
1759228857.341068, -0.005088, -1.025018, -8.266430, -0.869514, 1.068769, 0.159958, 42.905289, 27.720291, -269.375854, 13.727799, 100.772426
1759228857.360989, 0.427215, -1.067066, -8.582465, -0.888898, 0.604886, 0.027794, 43.084625, 27.840317, -268.937988, 13.727799, 100.772426
1759228857.380920, 2.197279, -1.611148, -8.633790, -0.735877, 0.253966, -0.108260, 43.060333, 28.223160, -268.811523, 13.727799, 100.772426
1759228857.400911, 2.605789, -2.113482, -8.070255, -0.307664, 0.983785, 0.071955, 43.185425, 28.481735, -268.295349, 13.727799, 100.772426
1759228857.419990, 0.657807, -0.813280, -7.366809, -0.404078, 0.992081, 0.123229, 43.647629, 28.392532, -268.260254, 13.727799, 100.772426
1759228857.440938, -0.207697, 1.114651, -7.913585, -0.848018, 0.502030, -0.497069, 43.511398, 28.786896, -267.602997, 13.727799, 100.772426
1759228857.460920, 3.131466, -0.229843, -7.290643, -1.097616, 1.805843, -0.465334, 44.180984, 28.942398, -266.298981, 13.727799, 100.772426
1759228857.480977, 1.616535, 0.221613, -6.864924, -1.579337, 2.135284, -0.514035, 43.595535, 28.938766, -264.750427, 13.727799, 100.772426
1759228857.501130, 2.446575, 1.280599, -7.512257, -1.671700, 1.808280, -0.942255, 43.142639, 29.396774, -263.243958, 13.727799, 100.772426
1759228857.520998, 3.853617, 1.528548, -7.086987, -1.805924, 1.330206, -0.672365, 43.036743, 29.774567, -261.862549, 13.727799, 100.772426
1759228857.540396, 2.602946, 2.084003, -7.188890, -1.532941, 0.152385, -0.320930, 42.680176, 29.989532, -260.604645, 13.727799, 100.772426
1759228857.560180, 0.865055, 1.357063, -6.457760, -1.077370, -0.623045, -0.054997, 42.723175, 29.993622, -260.451324, 13.727799, 100.772426
1759228857.580940, 1.148918, 1.186925, -5.594202, -1.839705, 0.016206, -0.012158, 42.775177, 29.832733, -259.216980, 13.727799, 100.772426
1759228857.600932, 1.836951, 3.814263, -8.185626, -2.333507, 0.272589, -0.225940, 43.182953, 29.650223, -257.395416, 13.727799, 100.772426
1759228857.620915, 2.996194, 4.125958, -10.138696, -1.726889, 0.586883, -0.040256, 42.970016, 29.279327, -256.740601, 13.727799, 100.772426
1759228857.640964, 2.297087, 2.670582, -8.290971, -1.343023, -0.439809, -0.047845, 42.799271, 29.740311, -256.074036, 13.727799, 100.772426
1759228857.660712, 1.353023, 4.110844, -8.725668, -1.288194, -0.821754, -0.186957, 43.156860, 29.679459, -255.316742, 13.727799, 100.772426
1759228857.680541, 3.418022, 4.927866, -9.622745, -1.284972, -0.569475, -0.254854, 43.061478, 29.569336, -254.574768, 13.727799, 100.772426
1759228857.700929, 5.724387, 5.946748, -9.190442, -1.336798, 0.549823, 0.076564, 42.999329, 29.320358, -253.406967, 13.727799, 100.772426
1759228857.720067, 7.800908, 4.716577, -9.728539, -1.273094, 1.067852, 0.368283, 42.936386, 29.304886, -251.891907, 13.727799, 100.772426
1759228857.740984, 5.228039, 3.647716, -10.673800, -0.866482, 4.042102, 0.080790, 43.166443, 28.974625, -251.534286, 13.727799, 100.772426
1759228857.761000, 0.293439, 4.622605, -7.819762, -0.792971, 5.630251, -0.965564, 42.116364, 29.230469, -250.412247, 13.727799, 100.772426
1759228857.780997, 3.633051, 5.340117, -8.675390, -0.253133, 6.340972, -1.266851, 40.676315, 29.175369, -249.067444, 13.727799, 100.772426
1759228857.800002, 4.685453, 5.718251, -3.737199, -0.374961, 6.116275, -1.322689, 38.617706, 29.490692, -248.112640, 13.727799, 100.772426
1759228857.820270, 5.154267, 6.098331, -1.995268, -0.637142, 4.538421, -1.135647, 36.805176, 29.525345, -247.229950, 13.727799, 100.772426
1759228857.840890, 7.186645, 6.874800, -1.523161, -0.902127, 3.717374, -0.953813, 35.380432, 29.567719, -246.879196, 13.727799, 100.772426
1759228857.860643, 7.086388, 8.018780, 0.030825, -1.717868, 3.842286, -1.479939, 33.973526, 29.360580, -246.509171, 13.727799, 100.772426
1759228857.880929, 9.392453, 7.354389, -0.790685, -1.861019, 3.834297, -1.847252, 31.639069, 28.493301, -244.939651, 13.727799, 100.772426
1759228857.900100, 9.320477, 8.621670, -1.700033, -1.579913, 2.607044, -2.385069, 29.103775, 28.079987, -244.434219, 13.727799, 100.772426
1759228857.920419, 10.738743, 7.587674, -2.293346, -1.185481, 1.878067, -2.190194, 27.597946, 27.651169, -243.471191, 13.727799, 100.772426
1759228857.940941, 13.181577, 7.584232, -1.289577, -0.997973, 1.141626, -1.831976, 25.633881, 26.578033, -242.919983, 13.727799, 100.772426
1759228857.960919, 15.788114, 7.516446, -1.690606, -0.813109, 0.310836, -1.176813, 24.909073, 26.634109, -242.912689, 13.727799, 100.772426
1759228857.980936, 13.792996, 5.682189, -2.874838, -0.391315, 0.726475, -1.422510, 24.100433, 26.125946, -242.254669, 13.727799, 100.772426
1759228858.000917, 13.039570, 4.661960, -1.766472, -0.965424, 2.422971, -1.297037, 22.536713, 25.601746, -243.002823, 13.727799, 100.772426
1759228858.020585, 14.684237, 4.518307, 2.270751, -1.905417, 1.585048, -0.926344, 21.003769, 24.911301, -242.280853, 13.727799, 100.772426
1759228858.041122, 13.955203, 7.266252, -1.924190, -0.882064, 0.444460, -0.247188, 20.807312, 24.437897, -241.749237, 13.727799, 100.772426
1759228858.060492, 11.699715, 5.344157, -2.060959, -0.309740, -0.071155, -0.179219, 20.366302, 24.160645, -241.250000, 13.727799, 100.772426
1759228858.081125, 9.474305, 3.429245, -0.147543, -0.486939, -0.245393, -0.596148, 20.364990, 23.950195, -240.658997, 13.727799, 100.772426
1759228858.101128, 9.723003, 3.921852, 0.300772, -0.883462, 0.439731, -0.768569, 20.039505, 23.615601, -240.449768, 13.727799, 100.772426
1759228858.120950, 13.432070, 5.961712, 1.660379, -1.682145, 0.538920, 0.141054, 19.498917, 23.072647, -240.064865, 13.727799, 100.772426
1759228858.140957, 14.361918, 5.980117, 1.896956, -2.522602, 0.537687, 0.968304, 19.562668, 22.388260, -239.500610, 13.727799, 100.772426
1759228858.160989, 12.191424, 5.117756, 2.823362, -3.405054, -0.266582, 1.542593, 20.260910, 21.454727, -237.587509, 13.727799, 100.772426
1759228858.180922, 11.024700, 5.333234, 0.110433, -3.394945, -1.418344, 1.903891, 21.569168, 20.351776, -236.194794, 13.727799, 100.772426
1759228858.201006, 9.484480, 5.591658, -3.032256, -2.206650, -1.866080, 1.666362, 23.445221, 19.823853, -234.209915, 13.727799, 100.772426
1759228858.221117, 5.555146, 5.012860, -9.890597, 0.780694, -0.920053, 0.700717, 24.338776, 19.370972, -234.745300, 13.727799, 100.772426
1759228858.240993, 6.230162, 3.086276, -7.884854, 2.093700, -0.869091, 1.102248, 25.027817, 20.741135, -235.714767, 13.727799, 100.772426
1759228858.261119, 10.851869, 3.614347, -2.750638, 2.031579, -0.926780, 2.125066, 26.416077, 22.218872, -236.267029, 13.727799, 100.772426
1759228858.280984, 9.630377, 5.168782, -0.622792, 0.879038, -0.992557, 1.855849, 28.100494, 22.882950, -237.015503, 13.727799, 100.772426
1759228858.300959, 5.018097, 5.682787, 2.156278, -0.490406, -0.677370, 0.900230, 28.617920, 22.912430, -236.480881, 13.727799, 100.772426
1759228858.320937, 4.994604, 4.876390, 1.569998, -0.876374, -0.696160, 0.769639, 29.584930, 22.476349, -235.983765, 13.727799, 100.772426
1759228858.341007, 6.291962, 6.440253, -0.952144, -0.188650, -1.213738, 1.138183, 29.987503, 22.460007, -235.757385, 13.727799, 100.772426
1759228858.360927, 7.776816, 5.667524, -1.212813, 0.659958, -1.062063, 1.787225, 31.429718, 22.621964, -235.903442, 13.727799, 100.772426
1759228858.380927, 16.852935, 0.329203, -4.666299, 0.547077, -1.674522, 2.570424, 33.731323, 23.118225, -236.067780, 13.727799, 100.772426
1759228858.400924, 12.521076, 5.382614, 1.639430, -0.963808, -1.089901, 1.797571, 35.436066, 22.829483, -236.317291, 13.727799, 100.772426
1759228858.420938, 10.477176, 2.937536, -0.342670, -1.128031, 0.633985, 1.302803, 35.977524, 22.409973, -235.771149, 13.727799, 100.772426
1759228858.440108, 7.751378, 1.956512, -2.486528, -0.381117, 0.426717, 0.749735, 35.898911, 21.558151, -235.473877, 13.727799, 100.772426
1759228858.460919, 7.262362, 3.730166, 0.298826, 0.110892, -0.610548, 0.620652, 36.536407, 21.625641, -235.290436, 13.727799, 100.772426
1759228858.480928, 9.480739, 3.835810, 3.170970, -0.236225, -0.929285, 1.016833, 37.124222, 21.550476, -235.210861, 13.727799, 100.772426
1759228858.500928, 11.339987, 3.125930, 3.099893, -0.550303, -0.886738, 1.566275, 38.125778, 21.407059, -234.931564, 13.727799, 100.772426
1759228858.520926, 9.295638, 1.807622, 0.208894, -0.338462, -1.016381, 1.461987, 39.692474, 20.872208, -235.360458, 13.727799, 100.772426
1759228858.540300, 5.993285, 1.982549, -2.481291, -0.052810, -0.297411, 0.688599, 40.412918, 20.731857, -235.065689, 13.727799, 100.772426
1759228858.560943, 6.480056, 0.306159, -3.360711, -0.172981, 0.219427, 0.110800, 39.967361, 21.072144, -235.141159, 13.727799, 100.772426
1759228858.580758, 6.693589, -0.171934, -3.650409, -0.220378, -0.047079, -0.314916, 40.291946, 20.595245, -234.577194, 13.727799, 100.772426
1759228858.600509, 6.417508, -0.604536, -3.737349, -0.582190, -0.312154, -0.947143, 39.803604, 20.548431, -234.961212, 13.727799, 100.772426
1759228858.620924, 4.153341, 1.632696, -0.411204, -1.225529, -0.087996, -2.202889, 39.205948, 20.201752, -234.573624, 13.727799, 100.772426
1759228858.640533, 6.270115, 2.672228, 0.059107, -1.336981, -0.723231, -2.884246, 38.475876, 19.852646, -233.918457, 13.727799, 100.772426
1759228858.661107, 10.386645, 5.627571, -0.122703, -0.870258, -1.717748, -2.302790, 37.541229, 19.557022, -233.366989, 13.727799, 100.772426
1759228858.681129, 8.101829, 6.584204, -0.537349, -0.757877, -0.825074, -1.698918, 37.498032, 19.172562, -234.026245, 13.727799, 100.772426
1759228858.701006, 8.536227, 7.027281, -0.488268, -0.579672, 0.035448, -1.771070, 37.242996, 19.341492, -233.242157, 13.727799, 100.772426
1759228858.721027, 9.169343, 5.463568, 0.269198, -0.492742, 0.777083, -1.935229, 36.264801, 18.830566, -232.495514, 13.727799, 100.772426
1759228858.740640, 10.698640, 9.223213, 0.346261, -1.183502, 2.424693, -1.987979, 34.009979, 18.380661, -232.301849, 13.727799, 100.772426
1759228858.761005, 12.987945, 10.139594, -2.476951, -0.843698, 2.636836, -1.194066, 32.224579, 17.588638, -231.608383, 13.727787, 100.772427
1759228858.780929, 11.479449, 6.905476, -3.091663, -0.096250, 1.316975, -0.397928, 31.317169, 17.739731, -232.034805, 13.727787, 100.772427
1759228858.800944, 7.078008, 5.431546, -1.351078, -0.024517, 0.352972, -0.411499, 30.800873, 17.849045, -231.878387, 13.727787, 100.772427
1759228858.820930, 7.300370, 5.554249, -0.068684, -0.408816, 0.175218, -0.580557, 30.514297, 17.264587, -231.360428, 13.727787, 100.772427
1759228858.840895, 5.906495, 6.687155, 0.289998, -0.710142, 0.382648, -1.473794, 29.327332, 16.942139, -231.491684, 13.727787, 100.772427
1759228858.861061, 9.135376, 6.638373, -0.560991, -0.205772, -0.469840, -1.369687, 29.063858, 16.351013, -231.497238, 13.727787, 100.772427
1759228858.880931, 11.320833, 6.323984, 0.462380, 0.226473, -0.469641, -1.053277, 29.115494, 16.706360, -231.235443, 13.727787, 100.772427
1759228858.900945, 8.701576, 4.896442, 0.141856, 0.235081, -0.100479, -0.849199, 29.312576, 16.761993, -231.417938, 13.727787, 100.772427
1759228858.920952, 6.477363, 5.690269, -0.266205, 0.060616, 0.319207, -0.604441, 28.597198, 16.436707, -231.078598, 13.727787, 100.772427
1759228858.940628, 4.694880, 7.071424, -1.225532, -0.065913, 0.119656, -0.395105, 27.899002, 16.378311, -231.390182, 13.727787, 100.772427
1759228858.960428, 0.716614, 6.039972, -1.059135, 0.192861, -0.392809, -1.134927, 27.869461, 16.376068, -231.490402, 13.727787, 100.772427
1759228858.980408, 7.206098, 7.952939, -0.232836, 0.082763, -0.820928, -1.015962, 28.079529, 16.307571, -231.618774, 13.727787, 100.772427
1759228859.000072, 6.070947, 7.225701, -0.764050, 0.237055, -0.632294, -0.734247, 28.021301, 16.390457, -231.343048, 13.727787, 100.772427
1759228859.020400, 5.421370, 7.447763, -0.170138, 0.388272, -0.054634, -0.748794, 28.257584, 16.606384, -231.705887, 13.727787, 100.772427
1759228859.040986, 3.703231, 7.607875, -0.001197, 0.291911, 0.242822, -0.701856, 27.420135, 16.571121, -231.673447, 13.727787, 100.772427
1759228859.060788, 3.554043, 8.291420, -0.948553, 0.293415, 0.200206, -1.043335, 27.434250, 16.835922, -231.591187, 13.727787, 100.772427
1759228859.080939, 6.490681, 8.094945, -0.335936, 0.357770, 0.263023, -1.180741, 26.787582, 16.665726, -232.424942, 13.727787, 100.772427
1759228859.100952, 9.572916, 8.226477, 0.997784, 0.416216, 0.353436, -1.275086, 25.897583, 16.986816, -231.495163, 13.727787, 100.772427
1759228859.120934, 12.333730, 5.855768, -0.136469, 0.130494, 0.810870, -0.931234, 25.377563, 16.478210, -231.955154, 13.727787, 100.772427
1759228859.140948, 14.091972, 5.321562, -2.165406, -0.056464, 1.049955, -0.366811, 24.483047, 16.615372, -231.745438, 13.727787, 100.772427
1759228859.160930, 9.601198, 5.487809, -2.365022, -0.168579, 0.302462, -0.516072, 24.068832, 16.738068, -231.822998, 13.727787, 100.772427
1759228859.180948, 10.847978, 6.597372, -1.750461, -0.485491, -0.611130, -0.713511, 24.289917, 16.482529, -231.935257, 13.727787, 100.772427
1759228859.200948, 14.352640, 5.133019, -0.344166, -0.527483, -0.063228, -0.068184, 24.136566, 15.582245, -231.527512, 13.727787, 100.772427
1759228859.220944, 11.335497, 7.998280, -0.018705, -0.955745, -0.117368, 0.752238, 24.846588, 15.508347, -231.611313, 13.727787, 100.772427
1759228859.240941, 4.697274, 10.474782, -0.388908, -0.919566, 0.393313, 1.248183, 24.646820, 15.133774, -230.881210, 13.727787, 100.772427
1759228859.260945, 4.384232, 6.938995, 0.059107, -0.642360, 0.248195, 1.094743, 25.263489, 14.770142, -230.953537, 13.727787, 100.772427
1759228859.281012, 5.207239, 7.980173, 0.503680, -0.058120, 0.259562, 1.517676, 25.223969, 14.716843, -230.951675, 13.727787, 100.772427
1759228859.301019, 2.145055, 9.145252, 2.220472, 0.000803, 0.150978, 1.442100, 25.583969, 15.386093, -231.152420, 13.727787, 100.772427
1759228859.321007, -0.735618, 8.523508, 0.876876, -0.090688, 0.055144, 0.786955, 26.077744, 15.098129, -231.263748, 13.727787, 100.772427
1759228859.340969, 0.482132, 8.206575, -0.831387, 0.116114, 0.449960, 0.039350, 25.844055, 15.615402, -231.207962, 13.727787, 100.772427
1759228859.360963, 5.334581, 5.383961, -0.303166, 0.224804, 0.269188, -0.207270, 25.135391, 15.301895, -231.732605, 13.727787, 100.772427
1759228859.381163, 5.484517, 5.606173, 1.137545, -0.125274, -0.329140, -0.544879, 25.307312, 15.148834, -231.149536, 13.727787, 100.772427
1759228859.400983, 5.155464, 6.385934, 1.840842, -0.722112, -1.221466, -0.988834, 25.790298, 14.407669, -231.009995, 13.727787, 100.772427
1759228859.421028, 3.605817, 7.112126, 2.920178, -1.487727, -2.188898, -1.623798, 26.428177, 13.422333, -230.281418, 13.727787, 100.772427
1759228859.440969, 3.459172, 7.296479, 2.572570, -2.257661, -1.864708, -1.756576, 27.061844, 12.167053, -229.194763, 13.727787, 100.772427
1759228859.460939, 3.792715, 7.851635, 0.771083, -1.621723, 0.061438, -2.490197, 26.886078, 11.006790, -228.288147, 13.727787, 100.772427
1759228859.480970, 4.959738, 8.406192, -2.865859, -0.117949, 0.285361, -3.052987, 26.340515, 9.634262, -228.513092, 13.727787, 100.772427
1759228859.501008, 5.697302, 8.759187, -2.671480, 0.638665, 0.829354, -3.749022, 25.342957, 9.491119, -228.691177, 13.727787, 100.772427
1759228859.521036, 3.511695, 7.485322, -0.110582, 0.825431, 1.627728, -4.447522, 23.567032, 9.350159, -228.802124, 13.727787, 100.772427
1759228859.540098, 3.220949, 7.952191, 0.894384, 0.947472, 2.284682, -4.641496, 21.180069, 8.686462, -229.602417, 13.727787, 100.772427
1759228859.560936, 4.416853, 9.925013, 1.048511, 0.794346, 1.866197, -4.148714, 18.884583, 8.028030, -230.193588, 13.727787, 100.772427
1759228859.580953, 3.453486, 10.890475, 1.638382, -0.428834, 1.447502, -2.068547, 17.443298, 7.232727, -231.119781, 13.727787, 100.772427
1759228859.600953, 2.886210, 10.452187, 1.538873, -0.813195, 0.907395, -1.453213, 15.833908, 6.477936, -231.103104, 13.727787, 100.772427
1759228859.620959, 1.796549, 10.182689, 0.964564, -0.753402, 0.502949, -1.313131, 15.763138, 5.148438, -231.682892, 13.727787, 100.772427
1759228859.640250, 0.924461, 9.369559, 0.710180, -0.564986, 0.172106, -1.675921, 15.219452, 4.584778, -231.669525, 13.727787, 100.772427
1759228859.660988, 0.233135, 8.375815, 0.283264, -0.255640, 0.044283, -2.118974, 15.295639, 3.685349, -231.519226, 13.727787, 100.772427
1759228859.680944, 0.652121, 6.807015, 0.140659, 0.307897, -0.048609, -1.651644, 14.701019, 3.116547, -231.152191, 13.727787, 100.772427
1759228859.700621, 0.768688, 5.363311, 0.706738, 0.856453, -0.344220, -0.596464, 15.137100, 2.773895, -231.081696, 13.727787, 100.772427
1759228859.720945, 0.417040, 4.474314, 1.532588, 1.038996, -0.828816, 0.187242, 15.468109, 3.490295, -231.515213, 13.727787, 100.772427
1759228859.740431, 0.498742, 6.021567, 1.819593, 0.835292, -0.693117, 0.340152, 15.622864, 4.188736, -231.067917, 13.727787, 100.772427
1759228859.760938, 0.322469, 8.107665, 1.164929, 0.766835, -0.332739, 0.451517, 16.217270, 4.299820, -230.483704, 13.727787, 100.772427
1759228859.780946, 1.012298, 6.623709, 0.222960, 0.431986, 0.321120, 0.415814, 16.293335, 4.920029, -230.905319, 13.727787, 100.772427
1759228859.800954, 1.082927, 13.410522, -0.314239, 0.175705, 0.787139, -0.169364, 16.110641, 5.200012, -230.543915, 13.727787, 100.772427
1759228859.820960, 4.012682, 35.355475, -0.188992, 0.238310, 1.390293, 0.522378, 15.288208, 5.249405, -231.693848, 13.727787, 100.772427
1759228859.840635, -1.281646, 19.404406, -0.303465, -0.305522, 1.022315, 0.226665, 14.751465, 5.953491, -231.591263, 13.727787, 100.772427
1759228859.860940, -2.654571, 5.066280, -0.651073, -0.124985, 0.645655, -0.096918, 14.259567, 5.506531, -232.472305, 13.727787, 100.772427
1759228859.881018, -1.865831, 8.021174, -0.615609, 0.390000, -0.095521, -0.122704, 14.155334, 5.663452, -232.460541, 13.727787, 100.772427
1759228859.900957, -0.475548, 9.062502, -0.225205, 0.383553, -0.397858, -0.344610, 14.527008, 5.921173, -232.280991, 13.727787, 100.772427
1759228859.920951, 0.181211, 9.661053, 0.805948, 0.212450, -0.347986, -0.526286, 14.282990, 5.471298, -231.820908, 13.727787, 100.772427
1759228859.940795, -0.073023, 10.558130, 1.129914, 0.049801, -0.210993, -0.723851, 14.675095, 5.501465, -231.743698, 13.727787, 100.772427
1759228859.960973, -0.438588, 9.551967, 1.082030, -0.143640, -0.176926, -0.874805, 14.759415, 5.178635, -232.144424, 13.727787, 100.772427
1759228859.980951, -0.541688, 8.301745, 0.649577, -0.243034, -0.022760, -1.095652, 14.134232, 4.637451, -232.102722, 13.727787, 100.772427
1759228860.000960, -1.151461, 7.030723, 0.353594, -0.224577, 0.236756, -1.549268, 14.239227, 4.076248, -231.936905, 13.727787, 100.772427
1759228860.020464, -1.397914, 7.581838, 0.541838, -0.300339, 0.133618, -1.881924, 13.987411, 3.402893, -231.665131, 13.727787, 100.772427
1759228860.040255, -1.946486, 9.715371, 0.798017, -0.364984, -0.211859, -2.150202, 13.892410, 2.363007, -231.849457, 13.727787, 100.772427
1759228860.060976, -1.184232, 12.124836, 0.461782, -0.035331, -0.921062, -1.589048, 13.858337, 1.907150, -231.708786, 13.727787, 100.772427
1759228860.081019, -0.223708, 14.386907, 0.432303, -0.224041, -1.337318, -0.454587, 14.826599, 1.097290, -231.486328, 13.727787, 100.772427
1759228860.101029, 0.261417, 11.904719, -0.215478, -0.400847, -0.436022, 0.099069, 15.326218, 1.006180, -230.631149, 13.727787, 100.772427
1759228860.120955, -0.430956, 9.597756, -1.219546, 0.044635, 0.435220, 0.087796, 14.858490, 1.062378, -230.289139, 13.727787, 100.772427
1759228860.140556, -0.771980, 9.546729, -1.023072, 0.407927, 0.474084, 0.147613, 14.812103, 1.292053, -230.884598, 13.727787, 100.772427
1759228860.160036, -1.294814, 9.549124, -0.049979, 0.411728, 0.246443, 0.157187, 14.412308, 1.340271, -231.948837, 13.727787, 100.772427
1759228860.180957, -1.780089, 9.780164, 0.694767, 0.344073, 0.181474, 0.128661, 14.982468, 1.562119, -231.640045, 13.727787, 100.772427
1759228860.200962, -1.892616, 9.562741, 1.105972, 0.232895, 0.218358, 0.108051, 14.405350, 1.948898, -231.408417, 13.727787, 100.772427
1759228860.220952, -2.117821, 9.676316, 1.352724, 0.067848, 0.228039, 0.078402, 14.317993, 1.772751, -231.577744, 13.727787, 100.772427
1759228860.240954, -2.287061, 9.614366, 1.269077, -0.076170, 0.182576, 0.066202, 14.316162, 2.304428, -231.979492, 13.727787, 100.772427
1759228860.260194, -1.897854, 8.785224, 0.850241, -0.142314, 0.144251, 0.043416, 14.043152, 2.191116, -231.705276, 13.727787, 100.772427
1759228860.280950, -1.809717, 9.366566, 0.380828, -0.085130, 0.035968, 0.023956, 13.971024, 2.335144, -231.784882, 13.727787, 100.772427
1759228860.301045, -1.813308, 9.601198, 0.058808, -0.009270, -0.015855, -0.009159, 14.122910, 1.997635, -231.978516, 13.727787, 100.772427
1759228860.321029, -1.766472, 9.596110, -0.020500, 0.080513, -0.001704, -0.020851, 14.157394, 1.821976, -231.860809, 13.727787, 100.772427
1759228860.340956, -1.532588, 9.687538, 0.224905, 0.124733, -0.003588, -0.028318, 13.846970, 2.226807, -231.180573, 13.727787, 100.772427
1759228860.360412, -1.565658, 9.767146, 0.323217, 0.117629, -0.063428, -0.049480, 14.283096, 2.309128, -231.540878, 13.727787, 100.772427
1759228860.381025, -1.367388, 9.546879, 0.513107, 0.076717, -0.050726, 0.004768, 14.235992, 2.077454, -231.463852, 13.727787, 100.772427
1759228860.401011, -1.551293, 9.635465, 0.561740, 0.073762, -0.008286, -0.029189, 14.104065, 2.364059, -231.672684, 13.727787, 100.772427
1759228860.420498, -1.565209, 9.446023, 0.681300, -0.013077, 0.055588, -0.023666, 13.905029, 2.152939, -231.334229, 13.727787, 100.772427
1759228860.440952, -1.722927, 9.554660, 0.502483, -0.065671, 0.064588, -0.031110, 13.930191, 2.463181, -231.872269, 13.727787, 100.772427
1759228860.460598, -1.708263, 9.634866, 0.185700, -0.080777, 0.078700, -0.029533, 14.199966, 1.966644, -231.969757, 13.727787, 100.772427
1759228860.480957, -1.718588, 9.697863, -0.028282, -0.078270, 0.108079, -0.014074, 13.597931, 2.114944, -231.800186, 13.727787, 100.772427
1759228860.500731, -1.836353, 9.787347, -0.078859, -0.075197, 0.157064, -0.001406, 13.981369, 2.335144, -231.681335, 13.727787, 100.772427
1759228860.521024, -1.877802, 9.589526, -0.060005, -0.060439, 0.161080, -0.028233, 13.806641, 1.986267, -231.869476, 13.727787, 100.772427
1759228860.541034, -1.713799, 9.608829, 0.020500, -0.042302, 0.071455, -0.083210, 13.644836, 2.084335, -231.855499, 13.727787, 100.772427
1759228860.560784, -1.216254, 9.296685, -0.223110, 0.032647, 0.060821, 0.107807, 13.791397, 1.848053, -231.996368, 13.727787, 100.772427
1759228860.580966, -1.886481, 9.386617, -0.205004, 0.166561, 0.099527, 0.195929, 13.548660, 2.070847, -232.029953, 13.727787, 100.772427
1759228860.600519, -2.084901, 9.939079, 0.017657, 0.246831, 0.116915, 0.098647, 13.773514, 2.400711, -232.063354, 13.727787, 100.772427
1759228860.620502, -1.646762, 10.097695, 0.249147, 0.237929, -0.028243, 0.078696, 13.604706, 2.373642, -231.936737, 13.727787, 100.772427
1759228860.640963, -1.059135, 9.584887, 0.074370, 0.238114, -0.077279, 0.094976, 13.483643, 2.754944, -231.746902, 13.727787, 100.772427
1759228860.660952, -0.753725, 9.641749, -0.131531, 0.352212, 0.028270, 0.148159, 13.779922, 2.965652, -232.341995, 13.727787, 100.772427
1759228860.680963, -0.659303, 9.818621, 0.131980, 0.566071, -0.153684, 0.179697, 13.892471, 3.223297, -231.450760, 13.727787, 100.772427
1759228860.700971, -0.726191, 10.100538, 0.846949, 0.561577, -0.648539, 0.242173, 13.868668, 3.727493, -231.321808, 13.727787, 100.772427
1759228860.720961, -0.759411, 9.947309, 0.872088, 0.335098, -0.529142, 0.282991, 14.417648, 3.845718, -231.323807, 13.727787, 100.772427
1759228860.740971, -0.913388, 9.507973, 0.517746, 0.175847, 0.235000, 0.296331, 14.746246, 4.265610, -231.475479, 13.727787, 100.772427
1759228860.760967, -1.303942, 9.512762, 0.244508, 0.099802, 0.286221, 0.300699, 14.422256, 4.354050, -231.942215, 13.727787, 100.772427
1759228860.781003, -1.880945, 9.500192, 0.031424, 0.082249, -0.091773, 0.299366, 14.543243, 4.713287, -231.920746, 13.727787, 100.772427
1759228860.800995, -2.521693, 9.443779, -0.246154, 0.114020, -0.415897, 0.220075, 14.909683, 4.846817, -231.471878, 13.727787, 100.772427
1759228860.820970, -2.761263, 9.384822, -0.407014, 0.120786, -0.545982, 0.115143, 15.072144, 4.447189, -231.412109, 13.727787, 100.772427
1759228860.840963, -2.267459, 9.441534, -0.464924, 0.138443, -0.454277, 0.035962, 15.338486, 4.877319, -231.559647, 13.727787, 100.772427
1759228860.861012, -2.006940, 9.809493, -0.417788, 0.175833, -0.306510, -0.095738, 15.241348, 4.859024, -230.997787, 13.727787, 100.772427
1759228860.881036, -1.019780, 9.710583, -0.597204, 0.244733, -0.436764, -0.068556, 16.038284, 4.867035, -230.933929, 13.727787, 100.772427
1759228860.900960, -1.105972, 9.556456, -0.350900, 0.308033, -0.317853, 0.016665, 15.936935, 5.151596, -231.119904, 13.727787, 100.772427
1759228860.920278, -1.213561, 9.367015, -0.110433, 0.272822, -0.104497, 0.107388, 16.047058, 5.006317, -231.180176, 13.727787, 100.772427
1759228860.941034, -1.588403, 9.338584, 0.000000, 0.090817, 0.023668, 0.143278, 16.062210, 5.239822, -231.342804, 13.727787, 100.772427
1759228860.960959, -1.565509, 9.705495, -0.468066, -0.073504, 0.006604, 0.114502, 15.831192, 5.248672, -231.656097, 13.727787, 100.772427
1759228860.980966, -1.387440, 9.861417, -0.676961, -0.041119, 0.361019, 0.257738, 15.888382, 5.323792, -231.290833, 13.727787, 100.772427
1759228861.000996, -1.370082, 9.800814, -0.730980, -0.044679, 0.318381, 0.114620, 15.947418, 5.596191, -231.144852, 13.727787, 100.772427
1759228861.021001, -1.648557, 9.494955, -0.870442, -0.061160, 0.284148, 0.084459, 15.608612, 5.423553, -231.451904, 13.727787, 100.772427
1759228861.040973, -1.369783, 9.530419, -1.111807, -0.020983, 0.261883, 0.017789, 15.684280, 5.355072, -231.539139, 13.727787, 100.772427
1759228861.060961, -0.824653, 9.639206, -1.056890, 0.107126, 0.253733, -0.012901, 15.285095, 5.554352, -231.897156, 13.727787, 100.772427
1759228861.081025, -0.269348, 9.951350, -0.669778, 0.257832, 0.531453, 0.056439, 15.505188, 5.629303, -231.832016, 13.727787, 100.772427
1759228861.101012, -0.430807, 9.847501, -0.009577, 0.118437, 0.335458, 0.135079, 15.303009, 5.821289, -232.220840, 13.727787, 100.772427
1759228861.120995, -0.793229, 9.659257, -0.360627, -0.065115, 0.257057, 0.076600, 14.873947, 5.825760, -231.860474, 13.727787, 100.772427
1759228861.141126, -0.868946, 9.506627, -0.683096, -0.074614, 0.438381, 0.135918, 14.792557, 6.103943, -232.661819, 13.727787, 100.772427
1759228861.160995, -1.073051, 9.503185, -0.829292, -0.116680, 0.387341, 0.128326, 14.420013, 5.880569, -232.764984, 13.727787, 100.772427
1759228861.181164, -0.901267, 9.679009, -0.856226, -0.078541, 0.370167, 0.097635, 14.266510, 6.242676, -232.749298, 13.727787, 100.772427
1759228861.201049, -0.859069, 9.828647, -0.712425, -0.052516, 0.257619, 0.063388, 14.264664, 6.186539, -232.667282, 13.727787, 100.772427
1759228861.221011, -0.980426, 9.922918, -0.714071, -0.084914, 0.110111, 0.008317, 14.015915, 5.876266, -233.002701, 13.727787, 100.772427
1759228861.241020, -1.059584, 9.797223, -0.768988, -0.088307, 0.163143, -0.022542, 14.003693, 6.184052, -232.926682, 13.727787, 100.772427
1759228861.260198, -1.044770, 9.566332, -0.837671, -0.098789, 0.211208, -0.033030, 14.408768, 6.040726, -232.729538, 13.727787, 100.772427
1759228861.280975, -1.101482, 9.499294, -0.864307, -0.145034, 0.336122, -0.059775, 14.118118, 5.723602, -233.220093, 13.727787, 100.772427
1759228861.300968, -1.078737, 9.696068, -0.818069, -0.157765, 0.340381, -0.061610, 13.698410, 5.664169, -233.170517, 13.727787, 100.772427
1759228861.321057, -0.872986, 9.891495, -0.722450, -0.134368, 0.268985, -0.060219, 13.545532, 5.581589, -233.540482, 13.727787, 100.772427
1759228861.341106, -0.793827, 9.907655, -0.666336, -0.117954, 0.193432, -0.059606, 13.040329, 5.714569, -232.805573, 13.727787, 100.772427
1759228861.360203, -0.749984, 9.817723, -0.614113, -0.112671, 0.157194, -0.064826, 13.062195, 5.686539, -233.137085, 13.727787, 100.772427
1759228861.381167, -0.632219, 9.758018, -0.397138, -0.117410, 0.148552, -0.061164, 13.116333, 5.816101, -232.722427, 13.727787, 100.772427
1759228861.400977, -0.666785, 9.760113, -0.561740, -0.079607, 0.155432, -0.062368, 13.088287, 5.233566, -233.416107, 13.727787, 100.772427
1759228861.421042, -0.705392, 9.700407, -0.552462, -0.061644, 0.154220, -0.069008, 12.985580, 5.560303, -232.634567, 13.727787, 100.772427
1759228861.441059, -0.645088, 9.693075, -0.547823, -0.063258, 0.174497, -0.067707, 12.662018, 5.274979, -233.272385, 13.727787, 100.772427
1759228861.460419, -0.632967, 9.645640, -0.448763, -0.058764, 0.110462, -0.064531, 12.951721, 5.154236, -233.536728, 13.727787, 100.772427
1759228861.481015, -0.813131, 9.674969, -0.431704, -0.038245, 0.043672, -0.076713, 12.568207, 5.190628, -233.401840, 13.727787, 100.772427
1759228861.501024, -1.000926, 9.693823, -0.459238, -0.040972, 0.006437, -0.107203, 12.517441, 5.315598, -233.213226, 13.727787, 100.772427
1759228861.521171, -0.922366, 9.693374, -0.480037, -0.040783, 0.034607, -0.121966, 12.536484, 4.960083, -233.590561, 13.727787, 100.772427
1759228861.541177, -0.878073, 9.677812, -0.438438, -0.025882, 0.029420, -0.127358, 12.650208, 5.150009, -233.300919, 13.727787, 100.772427
1759228861.560578, -0.847248, 9.703550, -0.461931, -0.022261, 0.005933, -0.130239, 12.547592, 4.881668, -233.340271, 13.727787, 100.772427
1759228861.580996, -0.779911, 9.762956, -0.369755, -0.019418, 0.025215, -0.129495, 12.727707, 4.859818, -232.984344, 13.727787, 100.772427
1759228861.601068, -0.711826, 9.750087, -0.281917, -0.023966, 0.067538, -0.110047, 12.536377, 4.915634, -232.963028, 13.727787, 100.772427
1759228861.621019, -0.817620, 9.771036, -0.171485, -0.051688, 0.103779, -0.101367, 12.616928, 4.621445, -233.485672, 13.727787, 100.772427
1759228861.641188, -0.970849, 9.699809, -0.163554, -0.060008, 0.153410, -0.091236, 12.281006, 4.651962, -233.233154, 13.727787, 100.772427
1759228861.660904, -1.134852, 9.559748, -0.125546, -0.110968, 0.195960, -0.098648, 12.751587, 4.506516, -233.403183, 13.727787, 100.772427
1759228861.680979, -1.331775, 9.639056, -0.219668, -0.155831, 0.214258, -0.129269, 12.185287, 4.256851, -233.420044, 13.727787, 100.772427
1759228861.701029, -1.327734, 9.709386, -0.486322, -0.155185, 0.277739, -0.170769, 11.913406, 4.126938, -234.061722, 13.727787, 100.772427
1759228861.721015, -1.143381, 9.691279, -0.629376, -0.119341, 0.317759, -0.191795, 11.877045, 3.991119, -234.104355, 13.727787, 100.772427
1759228861.741174, -1.110461, 9.747543, -0.442927, -0.105761, 0.256189, -0.213959, 11.680710, 3.877472, -234.015198, 13.727787, 100.772427
1759228861.761134, -1.132308, 9.749189, -0.248698, -0.137064, 0.164464, -0.217179, 11.407501, 3.367569, -233.863983, 13.727787, 100.772427
1759228861.781051, -1.203386, 9.817723, -0.182558, -0.207050, 0.172743, -0.215615, 11.717377, 3.452866, -234.067764, 13.727787, 100.772427
1759228861.801147, -1.279252, 9.561394, -0.128988, -0.256530, 0.196971, -0.255474, 11.687988, 3.426697, -234.044174, 13.727787, 100.772427
1759228861.821168, -1.063624, 9.662848, -0.336385, -0.281384, 0.144466, -0.302010, 11.347229, 2.814667, -234.052124, 13.727787, 100.772427
1759228861.841193, -0.736666, 9.812187, -0.424672, -0.385323, 0.025145, -0.308400, 11.232513, 3.130402, -234.432083, 13.727787, 100.772427
1759228861.861142, -0.515502, 10.226533, -0.658106, -0.411253, -0.135025, -0.338895, 11.415421, 2.470245, -234.481140, 13.727787, 100.772427
1759228861.880004, 0.543334, 10.356568, -1.135001, -0.353512, -0.036598, -0.226617, 11.463562, 2.116699, -233.893768, 13.727787, 100.772427
1759228861.900978, 1.516876, 10.240449, -1.559373, -0.238440, 0.111182, 0.026448, 11.329086, 1.580032, -234.175308, 13.727787, 100.772427
1759228861.921004, 1.537377, 10.442311, -1.924489, -0.159686, 0.318916, 0.315944, 11.300079, 1.695297, -233.773422, 13.727787, 100.772427
1759228861.940980, 1.136947, 10.193613, -2.767248, 0.068514, 0.392998, 0.457859, 11.322556, 2.341003, -234.325989, 13.727787, 100.772427
1759228861.960977, 1.265186, 9.860220, -2.462586, 0.252852, 0.294394, 0.518304, 10.930984, 2.283554, -234.497238, 13.727787, 100.772427
1759228861.980366, 2.030582, 10.691756, -0.806547, 0.294016, 0.308957, 0.721287, 11.015961, 2.794174, -234.253693, 13.727787, 100.772427
1759228862.001071, 2.123507, 10.778846, 0.708833, 0.113415, 0.352603, 0.898276, 10.986206, 3.294739, -234.465851, 13.727787, 100.772427
1759228862.021048, 1.991228, 10.384251, 1.426196, 0.048838, 0.755641, 1.062076, 10.848358, 3.615173, -234.864426, 13.727787, 100.772427
1759228862.041210, 0.222810, 10.400262, 1.600673, 0.299909, 1.382832, 1.125603, 10.368637, 4.191452, -235.292526, 13.727787, 100.772427
1759228862.060979, -0.674866, 10.745177, 0.110881, 0.553670, 2.043987, 0.988750, 9.858780, 4.712952, -236.040024, 13.727787, 100.772427
1759228862.081071, -1.835006, 11.331607, -2.619107, 0.371555, 0.685694, 0.768515, 9.284714, 5.553192, -237.243088, 13.727787, 100.772427
1759228862.101079, -4.037073, 9.810690, -3.513940, 0.413353, -0.926463, 0.584990, 9.683655, 5.928467, -236.882614, 13.727787, 100.772427
1759228862.120993, -3.965995, 8.475773, 0.108038, 0.578894, -1.370315, 0.267552, 10.105225, 6.345688, -236.448425, 13.727787, 100.772427
1759228862.141016, -1.711405, 8.336909, 2.579303, 0.394416, -1.049328, 0.044491, 10.672989, 6.628418, -235.668640, 13.727787, 100.772427
1759228862.161168, 1.382203, 8.591144, 3.657742, -0.074546, -0.101898, 0.103348, 11.016861, 6.719833, -235.304565, 13.727787, 100.772427
1759228862.180541, 1.778892, 9.140463, 3.015647, -0.469503, 0.501006, 0.098122, 11.008148, 6.818619, -235.190933, 13.727787, 100.772427
1759228862.201001, 1.662474, 9.315839, -2.475455, -0.500395, -0.034128, 0.148661, 11.124954, 6.425339, -235.458496, 13.727787, 100.772427
1759228862.221083, 1.000028, 9.170690, -4.369268, -0.010126, -1.330268, 0.145311, 11.483963, 6.337143, -235.130447, 13.727787, 100.772427
1759228862.241184, 0.958130, 9.333646, -3.051111, 0.333375, -1.990158, 0.074920, 12.072968, 6.590256, -234.620956, 13.727787, 100.772427
1759228862.261170, 1.172261, 9.634866, -2.101361, 0.338622, -1.757186, 0.004132, 13.428101, 6.526733, -233.848343, 13.727787, 100.772427
1759228862.280998, 1.537975, 9.296984, -2.640056, 0.466575, -1.656175, -0.042537, 14.324219, 7.218582, -233.179718, 13.727787, 100.772427
1759228862.301031, 1.601721, 8.452280, -2.772336, 0.416718, -1.335559, 0.038842, 14.813843, 6.941071, -232.110580, 13.727787, 100.772427
1759228862.321140, 1.486799, 8.413524, -3.132514, 0.244464, -0.777100, 0.115472, 15.830154, 7.320328, -231.859528, 13.727787, 100.772427
1759228862.341039, 1.123778, 8.403797, -2.430713, -0.118465, -0.023126, 0.112792, 16.228867, 7.095917, -231.372818, 13.727787, 100.772427
1759228862.361063, 0.401029, 8.041525, -1.452682, -0.334680, 0.676195, 0.115157, 15.559769, 6.907425, -231.441315, 13.727787, 100.772427
1759228862.380936, -0.520739, 7.583783, -0.814328, -0.199612, 0.681224, 0.047173, 15.625168, 7.138077, -232.259201, 13.727787, 100.772427
1759228862.400992, -2.133084, 10.866832, 1.029507, -0.283588, 0.252075, -0.121539, 15.572281, 6.772156, -232.577530, 13.727787, 100.772427
1759228862.421080, -3.444957, 15.506047, 1.912668, -0.333400, 0.468650, -0.386311, 15.608063, 6.563507, -232.416000, 13.727787, 100.772427
1759228862.440994, -2.130391, 12.235119, -1.970428, 0.394282, 1.506119, -0.329960, 14.776093, 6.411224, -232.500397, 13.727787, 100.772427
1759228862.461000, -2.812738, 8.934861, -2.398840, 0.665363, 1.330193, -0.204577, 14.049759, 6.767807, -233.281860, 13.727787, 100.772427
1759228862.481001, -4.299388, 7.334038, -0.372149, -0.005925, 0.699532, -0.306935, 13.416031, 6.854141, -233.230103, 13.727787, 100.772427
1759228862.500887, -3.918859, 6.688202, 2.883367, -0.498012, 0.577855, -0.402240, 13.507324, 6.435959, -232.737366, 13.727787, 100.772427
1759228862.520604, -3.237709, 7.952640, 4.583699, -0.920423, 0.420017, -0.503447, 13.236374, 6.125275, -233.165924, 13.727787, 100.772427
1759228862.540995, -1.839495, 10.307936, 4.457704, -1.167372, 0.247221, -0.389983, 13.273666, 5.455093, -232.951645, 13.727787, 100.772427
1759228862.560989, 0.173879, 12.391640, 2.910302, -0.923703, 0.427936, -0.292578, 12.955750, 4.473709, -232.657578, 13.727787, 100.772427
1759228862.580997, 2.125303, 13.148058, 0.831985, -0.435426, 1.445076, -0.363502, 12.341415, 4.325867, -233.170258, 13.727787, 100.772427
1759228862.601005, 2.358588, 11.700015, -0.049081, -0.404747, 2.150304, -0.442714, 11.371597, 4.059555, -234.093018, 13.727787, 100.772427
1759228862.621001, 0.725742, 9.611074, -0.549769, -0.462555, 0.778755, -0.480146, 11.037354, 3.697250, -234.306305, 13.727787, 100.772427
1759228862.640998, -0.606631, 8.932916, -0.596904, -0.085948, -1.353195, -0.534277, 11.216125, 3.373871, -233.990326, 13.727787, 100.772427
1759228862.660024, -1.038485, 9.305514, 0.418836, 0.378667, -2.398330, -0.685782, 12.092529, 3.058197, -233.541367, 13.727787, 100.772427
1759228862.680999, -0.623690, 9.976788, 1.069610, 0.613750, -2.717844, -0.737330, 13.639038, 3.018005, -232.962067, 13.727787, 100.772427
1759228862.701017, -0.802955, 10.963498, 1.753304, 0.334090, -2.929304, -0.721516, 15.109772, 2.898468, -231.627533, 13.727787, 100.772427
1759228862.720962, 0.098910, 10.695348, 1.334618, 0.021912, -2.784312, -0.661756, 16.702133, 2.981628, -230.625229, 13.727787, 100.772427
1759228862.741028, 1.335965, 8.706065, 1.978957, -0.580003, -2.408850, -0.308318, 18.058975, 2.260590, -229.993698, 13.727787, 100.772427
1759228862.760991, 3.372832, 7.760505, 2.784606, -1.171140, -0.685355, 0.357257, 18.875961, 1.830063, -229.513824, 13.727787, 100.772427
1759228862.781009, 3.166182, 8.086865, 1.827973, -1.499677, 1.547443, 0.826199, 18.788651, 1.431152, -228.900558, 13.727787, 100.772427
1759228862.800795, -1.582268, 9.670181, -1.331326, -1.549583, 3.055924, 0.721124, 17.172745, 0.615097, -230.222717, 13.727787, 100.772427
1759228862.820671, -5.224747, 10.576535, -5.753566, -1.084460, 2.614193, 0.588359, 15.826752, 0.163437, -231.614426, 13.727787, 100.772427
1759228862.841018, -3.796605, 10.060884, -6.266075, 0.000932, 1.026892, 0.189165, 15.112640, 0.045532, -232.298401, 13.727787, 100.772427
1759228862.860312, 0.419733, 8.975263, -0.418237, 0.683621, 0.380788, -0.209913, 14.718323, -0.119263, -232.260880, 13.727787, 100.772427
1759228862.881070, 2.665345, 9.074174, 4.181324, 0.369498, 0.389086, -0.044185, 14.564621, 0.066986, -232.291153, 13.727787, 100.772427
1759228862.901058, 1.808520, 9.001300, 3.299509, -0.293505, 0.793680, 0.143366, 14.688461, -0.065826, -232.340225, 13.727787, 100.772427
1759228862.921203, 0.027084, 8.794352, 1.007510, -0.205834, 0.700385, -0.082499, 14.019073, -0.455597, -233.464355, 13.727787, 100.772427
1759228862.941206, -0.333542, 9.233239, 1.848623, -0.209834, 0.319165, -0.337140, 13.815048, -0.451294, -232.594757, 13.727787, 100.772427
1759228862.961031, -0.448314, 10.282348, 1.802535, -0.378954, -0.064544, -0.493652, 13.980606, -0.944366, -232.982681, 13.727787, 100.772427
1759228862.981062, -0.685789, 11.539453, 0.998382, -0.493665, -0.159522, -0.670072, 14.288986, -1.455978, -232.971817, 13.727787, 100.772427
1759228863.001023, 0.394594, 12.221651, 1.449689, -0.427634, -0.004694, -0.742100, 14.722900, -2.198303, -233.331894, 13.727787, 100.772427
1759228863.021199, 0.891242, 12.709470, 2.218377, -0.645511, -0.040646, -0.656635, 14.683487, -2.589508, -233.797836, 13.727787, 100.772427
1759228863.041196, 2.327763, 14.315231, 2.056170, -0.709641, -0.118069, -0.338279, 14.761032, -3.420242, -234.006714, 13.727787, 100.772427
1759228863.060566, 2.795380, 15.805023, 0.211288, -0.417840, 0.136211, -0.233916, 15.147354, -3.977524, -234.199951, 13.727787, 100.772427
1759228863.080091, 2.528576, 16.316484, -1.948880, 0.352999, 0.410647, -0.123178, 14.871124, -4.138580, -234.729324, 13.727787, 100.772427
1759228863.101018, 1.532888, 19.036148, -3.820248, 0.913131, -1.255398, 0.321446, 14.856720, -4.157333, -233.538681, 13.727787, 100.772427
1759228863.121169, -0.281468, 17.873314, -6.264279, 1.931851, -0.778581, 0.513561, 15.817596, -3.467987, -233.534134, 13.727787, 100.772427
1759228863.141201, 0.639102, 13.965079, -5.176563, 2.628415, 0.542584, 0.843100, 15.835220, -2.082367, -233.084900, 13.727787, 100.772427
1759228863.161014, -0.069881, 12.527959, -1.466449, 2.545336, 1.191638, 0.980129, 15.316422, -0.841827, -233.616165, 13.727787, 100.772427
1759228863.180245, -1.913117, 12.625822, 1.527950, 1.886792, 2.171296, 0.821301, 14.812119, 0.315460, -234.102966, 13.727787, 100.772427
1759228863.201013, -2.566435, 13.874099, 2.735226, 1.337341, 2.838380, 0.829208, 14.134003, 0.667191, -235.257629, 13.727787, 100.772427
1759228863.221172, -1.417667, 14.008923, 2.298883, 1.118505, 1.544263, 1.230414, 12.672729, 1.703735, -236.165115, 13.727787, 100.772427
1759228863.241019, -0.636558, 12.964901, 0.489465, 0.969004, 0.106647, 1.620197, 12.313461, 2.333679, -236.115097, 13.727787, 100.772427
1759228863.261029, -2.074127, 12.010513, -0.412701, 1.074865, -0.130795, 1.675978, 11.909973, 3.082809, -236.770111, 13.727787, 100.772427
1759228863.280460, -3.879355, 11.690139, 0.532710, 1.048748, 0.441451, 1.350363, 12.253983, 3.993607, -235.873047, 13.727787, 100.772427
1759228863.301041, -5.274277, 10.794408, 1.905036, 0.767123, 1.255562, 0.986014, 11.948441, 4.880951, -237.017334, 13.727787, 100.772427
1759228863.321007, -1.835006, 9.414450, 2.333449, 0.183249, 1.088627, 1.621173, 11.516403, 4.902756, -237.244522, 13.727787, 100.772427
1759228863.341046, 4.127753, 9.958682, -0.624887, 0.079606, 1.146719, 2.697434, 10.870026, 5.948654, -237.430008, 13.727787, 100.772427
1759228863.361001, 2.076970, 9.882367, -2.833687, 0.394495, 0.173912, 2.754720, 10.600876, 7.148468, -238.104095, 13.727787, 100.772427
1759228863.380625, -1.640926, 7.247697, -2.432958, 0.882739, -1.279342, 2.410976, 11.197433, 8.386383, -237.631805, 13.727787, 100.772427
1759228863.401065, -0.948253, 6.470480, -0.355240, 1.358402, -1.912285, 2.163684, 11.930237, 9.928116, -238.037628, 13.727787, 100.772427
1759228863.421030, 0.326809, 6.266673, 1.478719, 1.813040, -2.271856, 2.079667, 13.243912, 11.384644, -237.640564, 13.727787, 100.772427
1759228863.441020, 1.088015, 6.840683, 0.523133, 2.125643, -2.517892, 2.001752, 14.422577, 12.991425, -237.156647, 13.727787, 100.772427
1759228863.461086, -0.359280, 6.416311, -0.067337, 2.047468, -2.854677, 1.712218, 16.003052, 14.540527, -237.193924, 13.727787, 100.772427
1759228863.480883, -2.302474, 4.721665, 0.906804, 1.653045, -2.882648, 1.150400, 17.751266, 15.942566, -236.711517, 13.727787, 100.772427
1759228863.500634, -2.906112, 2.695871, 0.886752, 1.083354, -2.413759, 0.641964, 18.636505, 16.790039, -235.799561, 13.727787, 100.772427
1759228863.521024, -3.290381, 0.899322, 0.659004, 0.291342, -1.949666, 0.110478, 19.977219, 17.178650, -235.566025, 13.727787, 100.772427
1759228863.541027, -3.413383, 0.260818, 0.358083, -0.623986, -1.127406, -0.538720, 20.804092, 16.945755, -235.644501, 13.727787, 100.772427
1759228863.561016, -3.483414, 0.038307, -0.155324, -1.598105, -0.007014, -1.262987, 20.587555, 16.113113, -234.707657, 13.727787, 100.772427
1759228863.580985, -3.336919, 0.629974, -0.961272, -2.131035, 1.455023, -1.614145, 19.937622, 14.820343, -234.093414, 13.727787, 100.772427
1759228863.601096, 0.533009, 4.348319, -9.837475, -2.195772, 2.769883, -0.963483, 18.744156, 13.186890, -233.827896, 13.727787, 100.772427
1759228863.621016, 6.380248, 13.278841, -3.123386, -3.282001, 2.695343, -1.568879, 16.799713, 10.954605, -234.172211, 13.727787, 100.772427
1759228863.641117, -7.456143, 19.793164, 7.867197, -2.472371, 3.508044, -1.694197, 14.753433, 8.777176, -234.404678, 13.727787, 100.772427
1759228863.661007, -4.157980, 27.642106, -6.302437, -1.416991, 1.584456, -1.251109, 13.513214, 7.213989, -235.088928, 13.727787, 100.772427
1759228863.681025, 0.706289, 16.934188, -4.715829, -0.526204, 1.424047, -0.880062, 12.816879, 6.633408, -235.502426, 13.727787, 100.772427
1759228863.700104, 0.715717, 9.147796, -2.544288, -0.582593, 1.331914, -0.795621, 11.714905, 6.056564, -236.054504, 13.727787, 100.772427
1759228863.721140, -0.084994, 7.520337, -1.734449, -1.158860, 1.885118, -0.990291, 10.929459, 4.881027, -236.551651, 13.727787, 100.772427
1759228863.741215, -1.195904, 7.637204, -0.529717, -1.285500, 1.808851, -1.428319, 9.460815, 4.089722, -237.335754, 13.727787, 100.772427
1759228863.761069, -1.138293, 9.355792, -0.223110, -1.027537, 1.399850, -1.697978, 8.872833, 2.814224, -237.712021, 13.727787, 100.772427
1759228863.781069, -0.648529, 11.535264, 0.424522, -0.397426, 0.947476, -1.777243, 8.471420, 1.584000, -238.326706, 13.727787, 100.772427
1759228863.801026, -0.238522, 13.028048, 0.279673, 0.433643, 0.392677, -1.738473, 7.942169, 0.328003, -238.812943, 13.727787, 100.772427
1759228863.821044, 0.737414, 13.503746, 0.871340, 0.389432, -0.381851, -1.695118, 7.944901, 0.359863, -238.625519, 13.727787, 100.772427
1759228863.841247, 2.217779, 12.488006, 1.864185, -0.101681, -1.268040, -1.450585, 8.196655, -0.430923, -238.452545, 13.727787, 100.772427
1759228863.861113, 3.898658, 9.988609, 2.007388, -0.552245, -1.736776, -0.910600, 8.638153, -0.881622, -237.629120, 13.727787, 100.772427
1759228863.881053, 4.108151, 7.450307, 1.331775, -0.755022, -1.476932, -0.573608, 9.258636, -1.589508, -236.452103, 13.727787, 100.772427
1759228863.900430, 3.818602, 6.237943, 0.268899, -0.697018, -0.665741, -0.597968, 9.645630, -1.928391, -235.964188, 13.727787, 100.772427
1759228863.920985, 2.655918, 6.102670, 0.352397, -0.764850, 0.212334, -0.465426, 9.636993, -2.914276, -235.526123, 13.727787, 100.772427
1759228863.941061, 2.077419, 7.430854, -0.513706, -1.012079, 0.967703, 0.029795, 9.579773, -2.716293, -235.951294, 13.727787, 100.772427
1759228863.961021, -0.409558, 8.289325, -1.858649, -0.834390, 1.098435, 0.105442, 8.845688, -3.926163, -236.918808, 13.727787, 100.772427
1759228863.981008, -1.873612, 8.384345, -2.659359, -0.267094, 0.215450, -0.135040, 8.665222, -3.980499, -237.517838, 13.727787, 100.772427
1759228864.001025, -1.837849, 8.474576, -1.465401, -0.161647, -0.043721, -0.086517, 8.745956, -4.034836, -237.498383, 13.727787, 100.772427
1759228864.021016, -1.384148, 9.438541, 1.276708, -0.608987, 0.583503, -0.045048, 8.185394, -4.431274, -237.538818, 13.727787, 100.772427
1759228864.041086, -0.028581, 10.182390, 1.919850, -0.918642, 0.934758, -0.197645, 7.953079, -4.372742, -237.941879, 13.727845, 100.772423
1759228864.061018, 2.463933, 10.927735, 1.685817, -0.935709, 0.872739, -0.380798, 7.393784, -5.523270, -238.876663, 13.727845, 100.772423
1759228864.081086, 3.549703, 12.532748, 0.595258, -0.779461, 0.745685, -0.762664, 7.414139, -6.052216, -238.978180, 13.727845, 100.772423
1759228864.100808, 4.552425, 14.643386, -0.742651, -0.551208, 0.382585, -1.282482, 7.347946, -6.771957, -239.855133, 13.727845, 100.772423
1759228864.121027, 5.563376, 14.251785, -1.522413, -0.260497, -1.214681, -1.423100, 7.549255, -7.821854, -239.296722, 13.727845, 100.772423
1759228864.141030, 4.956147, 12.830377, -0.092177, 0.114970, -2.690019, -0.961309, 8.444656, -8.271332, -238.498978, 13.727845, 100.772423
1759228864.161014, 4.153192, 13.886669, 1.694646, 0.320165, -2.861755, -0.302753, 9.679077, -8.556564, -236.942841, 13.727845, 100.772423
1759228864.180259, 2.147449, 15.862484, 0.525078, 0.496930, -1.547680, 0.391018, 10.532516, -8.346466, -235.852493, 13.727845, 100.772423
1759228864.201032, 0.132280, 19.650410, -2.728193, 1.062174, -0.470466, 0.969280, 10.048309, -8.031204, -235.139450, 13.727845, 100.772423
1759228864.221217, -1.615488, 17.762432, -9.140463, 1.508437, -0.251291, 1.536800, 9.784149, -6.879364, -235.335114, 13.727845, 100.772423
1759228864.241225, -0.639401, 14.173225, -6.601263, 1.944051, -1.185893, 1.571374, 9.381577, -5.242950, -234.163361, 13.727845, 100.772423
1759228864.261043, -0.319776, 12.823943, -3.148824, 2.039409, -0.090120, 1.389422, 9.779709, -3.765854, -233.686462, 13.727845, 100.772423
1759228864.281117, 0.033369, 13.313856, 1.103577, 2.043402, 1.591951, 1.406605, 8.709702, -2.089966, -234.070816, 13.727845, 100.772423
1759228864.301074, -1.301847, 12.857312, 4.245967, 1.618987, 2.166434, 1.538008, 7.618271, -0.324173, -234.761688, 13.727845, 100.772423
1759228864.320817, -4.565593, 12.987197, 5.732168, 0.723905, 1.674343, 1.525224, 6.631577, 0.987488, -235.755524, 13.727845, 100.772423
1759228864.341044, -5.732018, 11.079617, 1.934814, -0.034778, 1.568079, 1.758978, 6.080582, 2.322174, -236.551346, 13.727845, 100.772423
1759228864.361040, -4.445284, 8.099285, -0.346710, -0.324428, 1.217278, 1.834081, 5.743713, 3.407410, -236.953751, 13.727845, 100.772423
1759228864.381043, -1.380108, 8.723423, -2.081309, 0.119216, 0.838846, 2.118016, 5.238602, 4.851425, -237.365097, 13.727845, 100.772423
1759228864.401066, 1.612046, 9.042301, -2.162862, 1.072914, -0.418688, 2.521654, 5.226105, 6.788162, -237.289230, 13.727845, 100.772423
1759228864.421243, 3.555090, 8.726416, -0.919074, 1.471628, -0.927042, 2.599901, 5.988571, 8.884720, -237.437073, 13.727845, 100.772423
1759228864.441243, 2.620603, 6.997653, 0.861913, 0.724247, -1.105377, 1.858944, 6.817978, 10.723999, -237.006790, 13.727845, 100.772423
1759228864.461087, 2.037166, 5.573851, -0.124199, 0.664269, -1.834787, 1.490401, 7.542892, 11.595718, -237.114410, 13.727845, 100.772423
1759228864.481073, 1.416320, 5.677849, -0.367211, 1.596486, -2.898975, 1.421715, 9.355789, 13.150620, -236.042908, 13.727845, 100.772423
1759228864.501084, 1.338209, 6.109404, 1.151312, 1.905344, -3.064216, 1.241171, 11.048233, 14.974854, -235.215363, 13.727845, 100.772423
1759228864.521106, 0.244209, 5.793968, 0.315286, 1.814591, -2.690229, 1.043349, 12.748795, 16.317474, -234.716339, 13.727845, 100.772423
1759228864.541080, -1.445499, 5.232827, 0.188992, 1.528807, -2.569336, 0.990605, 14.135651, 17.611160, -233.871582, 13.727845, 100.772423
1759228864.561036, -2.774730, 4.773589, -0.123601, 1.044168, -2.253639, 0.858545, 15.372803, 18.931686, -233.567932, 13.727845, 100.772423
1759228864.581140, -3.702932, 4.218284, -0.951546, 0.434121, -1.508953, 0.481690, 16.577606, 19.241806, -233.249496, 13.727845, 100.772423
1759228864.601047, -4.205864, 3.080290, -0.874931, -0.249480, -0.860650, -0.125331, 17.250549, 19.229340, -232.288391, 13.727845, 100.772423
1759228864.621030, -3.997269, 2.137424, -1.790863, -0.683664, -0.257313, -0.821903, 16.962875, 18.768906, -232.629105, 13.727845, 100.772423
1759228864.640530, -3.563021, 1.882441, -1.832013, -1.241610, 0.542033, -1.570211, 16.410126, 17.815598, -232.601669, 13.727845, 100.772423
1759228864.661039, 0.990900, 2.053626, -8.892664, -1.476358, 2.148793, -1.655110, 15.008163, 16.558533, -232.079071, 13.727845, 100.772423
1759228864.680952, 6.872257, 8.591144, -5.971588, -2.039673, 3.717785, -1.152106, 12.656799, 14.948364, -232.959702, 13.727845, 100.772423
1759228864.701044, -4.439000, 19.040637, 5.891232, -2.348962, 3.048463, -2.445175, 10.773758, 12.706375, -233.511612, 13.727845, 100.772423
1759228864.721039, 4.099023, 21.050120, -4.744859, -1.695191, 2.626307, -1.591988, 8.577576, 10.670670, -234.261444, 13.727845, 100.772423
1759228864.741136, 3.849876, 19.686622, -4.484639, -0.684524, 1.013954, -1.088883, 7.502411, 9.805420, -234.812714, 13.727845, 100.772423
1759228864.761065, 3.285743, 9.536704, -0.909946, -0.300180, 0.396227, -0.909650, 7.140228, 8.909439, -235.009857, 13.727845, 100.772423
1759228864.780794, 1.833958, 6.442348, -1.320402, -0.571428, 0.489491, -1.028966, 6.918945, 8.496780, -235.020798, 13.727845, 100.772423
1759228864.800976, 0.569820, 7.435792, 0.053271, -1.009508, 0.811470, -1.130492, 6.672409, 7.537048, -234.913483, 13.727845, 100.772423
1759228864.820793, -1.184681, 9.498995, 1.281048, -1.478869, 1.151237, -1.287175, 5.954941, 6.180984, -235.641815, 13.727845, 100.772423
1759228864.841047, -1.980454, 11.439645, 1.436820, -1.509198, 1.878292, -1.640207, 4.852173, 4.989166, -236.569244, 13.727845, 100.772423
1759228864.861093, -1.536180, 13.124415, 1.395670, -1.123199, 2.118751, -1.538975, 3.511688, 2.087753, -238.341705, 13.727845, 100.772423
1759228864.881046, -0.049530, 13.014731, 0.962619, -0.583017, 1.495837, -1.499465, 2.437897, 1.206482, -239.929169, 13.727845, 100.772423
1759228864.900225, 1.446098, 13.054684, 0.302567, -0.472842, 0.870490, -1.528099, 2.389938, 1.147141, -239.486710, 13.727845, 100.772423
1759228864.921068, 3.055750, 12.311135, 0.566977, -0.384552, -0.963404, -1.366812, 2.677109, 0.031250, -239.450424, 13.727845, 100.772423
1759228864.941055, 3.023577, 10.219051, 0.240019, -0.095418, -1.053856, -1.130999, 2.747620, -0.592712, -238.583969, 13.727845, 100.772423
1759228864.961048, 1.916409, 8.151508, -0.020351, 0.143246, -1.024549, -1.110371, 3.577591, -1.703415, -238.444061, 13.727845, 100.772423
1759228864.981227, 1.565060, 7.205500, 0.383521, 0.008237, -1.034852, -0.875905, 3.592148, -2.422623, -237.485016, 13.727845, 100.772423
1759228865.000298, 0.373196, 6.937648, 0.832434, -0.089660, -1.159232, -0.515111, 3.895737, -2.410095, -237.013794, 13.727845, 100.772423
1759228865.020147, -0.921468, 7.185448, 0.316484, -0.258531, -1.289302, -0.346779, 4.396011, -2.500656, -236.347351, 13.727845, 100.772423
1759228865.041035, -1.223587, 6.711695, -0.919074, -0.152058, -0.910977, -0.254289, 5.258728, -3.435776, -235.103073, 13.727845, 100.772423
1759228865.061029, -1.047164, 6.824821, -2.458097, 0.155086, -0.148023, -0.207939, 5.748306, -3.599060, -235.055740, 13.727845, 100.772423
1759228865.081043, -0.709582, 7.922563, 0.041749, -0.127756, 0.652090, -0.132904, 5.170242, -3.572128, -235.292175, 13.727845, 100.772423
1759228865.100472, 0.735469, 9.158270, 1.721431, -0.633139, 1.351151, 0.257713, 4.922348, -3.489868, -235.345795, 13.727845, 100.772423
1759228865.121042, 2.040458, 9.740959, 5.030816, -1.194763, 1.492924, 0.376432, 3.867996, -4.052948, -237.760223, 13.727845, 100.772423
1759228865.141043, 0.534506, 9.236830, 2.403030, -0.995328, 1.400360, 0.105273, 3.413574, -4.574280, -238.433289, 13.727845, 100.772423
1759228865.161034, -1.295862, 9.601198, -0.315286, -0.708126, 1.117481, -0.333384, 2.863358, -4.667328, -239.052689, 13.727845, 100.772423
1759228865.181045, 0.890942, 12.738051, -0.656161, -0.672894, 0.846831, -0.978173, 2.621521, -5.546524, -239.316345, 13.727845, 100.772423
1759228865.200687, 4.658368, 13.801824, -0.921618, -0.522958, -0.306526, -1.167618, 2.830231, -5.588791, -239.517929, 13.727845, 100.772423
1759228865.221105, 7.020697, 12.708123, -1.539921, -0.161945, -1.168132, -0.696480, 2.492813, -6.754715, -239.268265, 13.727845, 100.772423
1759228865.241108, 8.375666, 13.859884, -1.315015, 0.044133, -1.443433, -0.186540, 3.434387, -7.184280, -237.813828, 13.727845, 100.772423
1759228865.261086, 8.138939, 15.876849, -0.196025, 0.545586, -1.942675, 0.331584, 3.904541, -6.812607, -236.997528, 13.727845, 100.772423
1759228865.281044, 5.543774, 16.606033, -0.550816, 1.009404, -1.297671, 0.824412, 4.440460, -6.383514, -235.550674, 13.727845, 100.772423
1759228865.300882, 1.209820, 17.838149, -2.183213, 1.162680, -1.393333, 1.058179, 4.894699, -4.917999, -234.772263, 13.727845, 100.772423
1759228865.321110, -3.557784, 17.868825, -5.930737, 1.616366, -1.844139, 1.439198, 5.415039, -3.597290, -234.732819, 13.727845, 100.772423
1759228865.341242, -3.039589, 14.373590, -5.415834, 1.793045, -0.363791, 1.509705, 5.953781, -1.580154, -234.225845, 13.727845, 100.772423
1759228865.361094, -1.643171, 12.877962, -2.763358, 1.640617, 1.450028, 1.441857, 5.003006, 0.322098, -235.013382, 13.727845, 100.772423
1759228865.381130, -0.872986, 11.615469, 0.559345, 1.566098, 1.961434, 1.438551, 4.014160, 1.686707, -236.324890, 13.727845, 100.772423
1759228865.401146, -1.255759, 11.413159, 3.940706, 1.226717, 0.944141, 1.231285, 3.176498, 2.976501, -237.096191, 13.727845, 100.772423
1759228865.421241, -0.776320, 13.047052, 5.243900, 0.387095, 0.386060, 1.308205, 3.046494, 4.193100, -237.762848, 13.727845, 100.772423
1759228865.441268, -2.510171, 12.078448, 3.835960, -0.258042, 0.206246, 1.343201, 2.785858, 5.024170, -237.848740, 13.727845, 100.772423
1759228865.461225, -1.425149, 10.251373, 1.935862, -0.530632, 0.343940, 1.809392, 2.604904, 5.692001, -237.073730, 13.727845, 100.772423
1759228865.481193, 1.405097, 9.440786, -3.421763, 0.453460, 0.141606, 2.564260, 2.941986, 7.447403, -237.793488, 13.727845, 100.772423
1759228865.501105, 2.050035, 10.098593, -3.241450, 1.187100, -0.783512, 2.607300, 3.632172, 9.705994, -237.903366, 13.727845, 100.772423
1759228865.521064, -0.401777, 9.498696, -0.550517, 0.971761, -1.110575, 2.176039, 4.204666, 11.275848, -236.993896, 13.727845, 100.772423
1759228865.541252, -0.177171, 6.806566, -0.517896, 0.561428, -1.629058, 2.039763, 5.778259, 12.984604, -236.792572, 13.727845, 100.772423
1759228865.561228, -0.481384, 5.459827, -0.648080, 0.708984, -2.130468, 2.052447, 7.217987, 14.330948, -234.945175, 13.727845, 100.772423
1759228865.581110, -0.563086, 6.460604, -0.080056, 1.352636, -2.857186, 2.082383, 9.036545, 16.070175, -234.106781, 13.727845, 100.772423
1759228865.601213, 1.281347, 7.499238, 0.515352, 1.762878, -2.647372, 1.865603, 11.032623, 18.009399, -233.685104, 13.727845, 100.772423
1759228865.620349, 1.685817, 7.543531, -0.045639, 1.718117, -2.000789, 1.654627, 12.829941, 19.269165, -234.117126, 13.727845, 100.772423
1759228865.641126, -0.027384, 6.940940, -0.678756, 1.507522, -2.056639, 1.421455, 14.529648, 20.416382, -233.614563, 13.727845, 100.772423
1759228865.661068, -3.205686, 4.823269, 0.205901, 1.007781, -1.970894, 1.040346, 15.807480, 21.381073, -233.023148, 13.727845, 100.772423
1759228865.681077, -3.839402, 2.763807, -0.473154, 0.507854, -1.329427, 0.572672, 17.083572, 22.184601, -233.114761, 13.727845, 100.772423
1759228865.701077, -3.916166, 1.355567, -0.481683, -0.074478, -0.739177, -0.093336, 17.560257, 22.213821, -232.577148, 13.727845, 100.772423
1759228865.721076, -3.214665, 0.951246, -1.481712, -0.611806, -0.286353, -0.746331, 17.084534, 21.438873, -233.014328, 13.727845, 100.772423
1759228865.741228, -2.301576, 1.398812, -2.272546, -1.170416, 0.442411, -1.434332, 16.189484, 20.154251, -232.468155, 13.727845, 100.772423
1759228865.761184, 0.374992, 2.247856, -2.495357, -1.700137, 1.993134, -1.964903, 14.352310, 18.651306, -232.878113, 13.727845, 100.772423
1759228865.781132, 8.392275, 5.679495, -6.634931, -2.080393, 4.478462, -1.560173, 11.553650, 16.937775, -232.994263, 13.727845, 100.772423
1759228865.801251, 7.293486, 16.049232, 3.076100, -2.979641, 3.807231, -1.375328, 8.633743, 14.826019, -234.175171, 13.727845, 100.772423
1759228865.821085, 1.851466, 22.847866, 0.297480, -2.331954, 2.742533, -2.353761, 6.980820, 12.650833, -234.512497, 13.727845, 100.772423
1759228865.841117, 3.895665, 30.083144, -4.011934, -1.092104, 0.813645, -1.473649, 6.030167, 11.193832, -234.707428, 13.727845, 100.772423
1759228865.861230, 3.051260, 14.055310, -4.657321, 0.623925, -0.786670, -0.849093, 6.105530, 11.336533, -234.201324, 13.727845, 100.772423
1759228865.881134, 1.267730, 4.575469, 0.699556, -0.039091, -0.020072, -0.895538, 6.085129, 10.881454, -235.201355, 13.727845, 100.772423
1759228865.901117, -0.824952, 3.256563, -0.597802, -1.125658, 1.548956, -1.124511, 5.136734, 9.410706, -235.096970, 13.727845, 100.772423
1759228865.921014, -2.329558, 6.310068, -0.003891, -1.740980, 1.825200, -1.500392, 3.832840, 7.995239, -235.924316, 13.727845, 100.772423
1759228865.941267, -2.371307, 9.637410, 0.937929, -1.902592, 2.280860, -1.850019, 2.223450, 5.802048, -237.480652, 13.727845, 100.772423
1759228865.961244, -1.531691, 12.938715, 1.095198, -1.502459, 2.523473, -1.947952, 0.976654, 4.136414, -238.392258, 13.727845, 100.772423
1759228865.981131, -0.058957, 14.415339, 1.423951, -0.566269, 1.740886, -1.746388, -0.198746, 2.681870, -239.950226, 13.727845, 100.772423
1759228866.001110, 0.524779, 14.344710, 0.843358, 0.236154, 1.014325, -1.738648, -0.677475, 1.618561, -240.318283, 13.727845, 100.772423
1759228866.021105, 2.165555, 13.073538, 1.387889, 0.245679, 0.123105, -1.805540, -0.229218, 0.390564, -241.146988, 13.727845, 100.772423
1759228866.041190, 3.207931, 10.156054, 1.420659, -0.126664, -0.427375, -1.671772, -0.461868, -0.168610, -240.567810, 13.727845, 100.772423
1759228866.061108, 3.649811, 7.423970, 1.028310, -0.246105, -0.656233, -1.308453, -0.027740, -1.514328, -239.135071, 13.727845, 100.772423
1759228866.081152, 4.252850, 6.329371, 0.778116, -0.188118, -0.783269, -0.939752, 0.381393, -2.439713, -239.235596, 13.727845, 100.772423
1759228866.101190, 3.434482, 6.476764, 1.409586, -0.306372, -0.245364, -0.768545, -0.006088, -2.864273, -238.677109, 13.727845, 100.772423
1759228866.121139, 3.704429, 7.735217, 1.908628, -0.482549, -0.440635, -0.380455, 0.639084, -3.163895, -238.962158, 13.727845, 100.772423
1759228866.141258, 2.941426, 7.988703, 2.217779, -0.691207, -0.702747, -0.142683, 0.779724, -3.354263, -238.470673, 13.727845, 100.772423
1759228866.161197, 0.482432, 8.385392, -0.091429, -0.594840, -0.011329, -0.182990, 0.622375, -3.927856, -238.348511, 13.727845, 100.772423
1759228866.181257, -0.377685, 8.251167, 0.309151, -0.781437, 0.497475, -0.279911, 0.708694, -4.263901, -238.944687, 13.727845, 100.772423
1759228866.201264, -1.853112, 8.860192, -1.529895, -0.733472, 0.577876, -0.332822, 0.283966, -4.734924, -238.745560, 13.727845, 100.772423
1759228866.221127, -1.315015, 9.164705, -1.924489, -0.289191, 0.452090, -0.314750, 0.175613, -5.180634, -239.573975, 13.727845, 100.772423
1759228866.241268, -0.306607, 10.212916, -0.515651, -0.258967, 0.476881, -0.269317, 0.054474, -5.616776, -239.857361, 13.727845, 100.772423
1759228866.261238, 0.939575, 11.111041, 2.400187, -0.464697, 0.349352, -0.338370, -0.454941, -5.874374, -239.877396, 13.727845, 100.772423
1759228866.281260, 1.331326, 12.031911, 2.433257, -0.398869, 0.520835, -0.657628, -0.574814, -6.223633, -240.180130, 13.727845, 100.772423
1759228866.301111, 1.792509, 12.599935, 1.467197, -0.281607, 0.239004, -0.877720, -0.376678, -6.865662, -240.371124, 13.727845, 100.772423
1759228866.321145, 3.597587, 13.316250, 0.334889, -0.321068, 0.110462, -0.890497, -0.259186, -7.662766, -240.227158, 13.727845, 100.772423
1759228866.341265, 6.976554, 13.754689, 0.470461, -0.412649, -0.528452, -0.554865, -0.134766, -8.402069, -240.246216, 13.727845, 100.772423
1759228866.361249, 7.873033, 14.979772, -0.274735, -0.133920, -1.587984, 0.085659, 0.821793, -8.292664, -239.145355, 13.727845, 100.772423
1759228866.381223, 4.415057, 15.955409, -0.774824, 0.443056, -1.498673, 0.732331, 1.012299, -7.287170, -238.401718, 13.727845, 100.772423
1759228866.401168, 1.042824, 17.549199, -2.067543, 1.004763, -0.739681, 1.192869, 1.185181, -6.167465, -237.953171, 13.727845, 100.772423
1759228866.421096, -1.018583, 18.435353, -4.173842, 1.035942, -0.555037, 1.372321, 1.137772, -5.102936, -237.346436, 13.727845, 100.772423
1759228866.441091, -0.883161, 15.143026, -4.596269, 1.067447, -0.745485, 1.496318, 1.405060, -3.224930, -236.556122, 13.727845, 100.772423
1759228866.461193, -1.289577, 13.526940, -1.061828, 1.075239, -0.154131, 1.382363, 1.432770, -2.424393, -235.995239, 13.727845, 100.772423
1759228866.481139, 0.164901, 12.861352, -0.266505, 1.116810, 1.206827, 1.550758, 0.741745, -1.142624, -237.291443, 13.727845, 100.772423
1759228866.501167, -0.482881, 10.355820, 1.683273, 1.051019, 1.571144, 1.380156, -0.078659, 0.116562, -237.580383, 13.727845, 100.772423
1759228866.521176, -1.237353, 13.106758, 1.550844, 0.910213, 1.918755, 1.712313, -0.437759, 1.757736, -238.808014, 13.727845, 100.772423
1759228866.541084, -4.688445, 11.239280, -0.264410, 0.956383, 1.431917, 1.843543, -0.424713, 3.719925, -240.304596, 13.727845, 100.772423
1759228866.561080, -3.904793, 8.734197, 0.214730, 0.828331, -0.179087, 1.823174, -0.333679, 5.075455, -240.082855, 13.727845, 100.772423
1759228866.581215, -1.939004, 8.358158, 1.565060, 0.553228, -0.298255, 2.440225, 0.094406, 6.850815, -239.701996, 13.727845, 100.772423
1759228866.601238, 0.343119, 8.401104, 0.847098, 0.906352, -0.684257, 2.813523, 1.016510, 9.160645, -239.282318, 13.727845, 100.772423
1759228866.620141, 0.741155, 7.437288, -0.239271, 1.095574, -0.975899, 2.769789, 2.098297, 11.336380, -238.588699, 13.727845, 100.772423
1759228866.641267, 1.650802, 6.904728, -0.505476, 1.021608, -1.488245, 2.471515, 3.123276, 13.202896, -237.738632, 13.727845, 100.772423
1759228866.661086, 2.488922, 7.578247, 0.097564, 0.874085, -1.399286, 2.403710, 5.122101, 15.332794, -237.718430, 13.727845, 100.772423
1759228866.681269, 2.553715, 8.589947, 0.211139, 1.188475, -2.156653, 2.216620, 6.605850, 17.250458, -236.620270, 13.727845, 100.772423
1759228866.701117, 0.661847, 9.280225, -0.066140, 1.695341, -2.906738, 1.606987, 8.578354, 19.046707, -235.981049, 13.727845, 100.772423
1759228866.720330, -1.073500, 8.059481, 0.422128, 1.958422, -2.982952, 1.087493, 10.220306, 20.373062, -235.527740, 13.727845, 100.772423
1759228866.741069, -1.335665, 6.082769, 0.898125, 1.769475, -2.818417, 0.738193, 12.061157, 21.933365, -234.804443, 13.727845, 100.772423
1759228866.761087, -2.523339, 4.146757, 0.865803, 1.201062, -2.323441, 0.288730, 13.500778, 23.011597, -234.452072, 13.727845, 100.772423
1759228866.781065, -3.229778, 2.063503, -0.017059, 0.565504, -1.681203, -0.416529, 14.472198, 23.344528, -233.975998, 13.727845, 100.772423
1759228866.801086, -3.713556, -0.000150, -0.875380, -0.091874, -0.838051, -1.161700, 14.617615, 22.794754, -233.764999, 13.727845, 100.772423
1759228866.820504, -4.028992, -1.650952, -1.507449, -0.924706, 0.539166, -1.877460, 13.761948, 21.927017, -234.131012, 13.727845, 100.772423
1759228866.841088, -1.851616, -1.177199, -5.905747, -1.164383, 2.936320, -1.750190, 11.920410, 20.367218, -233.181885, 13.727845, 100.772423
1759228866.861061, 7.733870, 5.703437, -6.437559, -2.538067, 3.372314, -1.205830, 9.779861, 18.633209, -234.616257, 13.727845, 100.772423
1759228866.881092, -1.505803, 15.365238, 5.646725, -2.102794, 3.206335, -1.749014, 7.353439, 16.142670, -235.419312, 13.727845, 100.772423
1759228866.901088, -0.351349, 22.228067, -5.450849, -1.711648, 1.910843, -1.675963, 5.555862, 14.565155, -235.878525, 13.727845, 100.772423
1759228866.920665, 6.074389, 27.119571, 1.009455, -0.312290, 1.857351, -0.671416, 4.502167, 13.776794, -236.647018, 13.727845, 100.772423
1759228866.941087, 3.895366, 12.206837, -2.326416, -0.342721, 0.744798, -0.701406, 4.008560, 13.320526, -237.361435, 13.727845, 100.772423
1759228866.961069, 2.095974, 6.206070, -0.990002, -0.826572, 1.335866, -1.090233, 3.171478, 12.406662, -237.445572, 13.727845, 100.772423
1759228866.981076, 0.022296, 6.144569, -0.349553, -1.373338, 2.043858, -1.564981, 2.425598, 11.018204, -238.786438, 13.727845, 100.772423
1759228867.001110, -0.710928, 8.945486, 1.044022, -1.782621, 2.766780, -1.784066, 1.105301, 9.628540, -239.859055, 13.727845, 100.772423
1759228867.020888, -1.042376, 12.009465, 1.410933, -1.656899, 2.685761, -2.003264, -0.373398, 7.397980, -241.123138, 13.727845, 100.772423
1759228867.041075, -0.481833, 14.405911, 1.270124, -0.930340, 2.175446, -1.903182, -1.262878, 6.195465, -242.819839, 13.727845, 100.772423
1759228867.061100, 0.168941, 14.431948, 1.397466, -0.185857, 1.664165, -1.753454, -2.134140, 4.656982, -243.651428, 13.727845, 100.772423
1759228867.081143, 0.550666, 12.765135, 1.820940, 0.103709, 0.988934, -1.740240, -2.933533, 3.446136, -244.286789, 13.727845, 100.772423
1759228867.101094, 0.497096, 10.865785, 1.880645, 0.153036, 0.138835, -1.833468, -3.366684, 2.722046, -243.861191, 13.727845, 100.772423
1759228867.121115, 1.836353, 9.355642, 1.879299, 0.070979, -0.608831, -1.733624, -2.895096, 1.065521, -243.561111, 13.727845, 100.772423
1759228867.141086, 3.498677, 8.388834, 1.442058, -0.032191, -0.967840, -1.471867, -2.614792, 0.186356, -243.191040, 13.727845, 100.772423
1759228867.161069, 4.052186, 7.071873, 0.310348, -0.040873, -0.454597, -1.390486, -2.708679, -0.757736, -242.331757, 13.727845, 100.772423
1759228867.181078, 3.786280, 7.182006, -0.056563, 0.256936, -0.596991, -1.171434, -2.221756, -1.765518, -242.332596, 13.727845, 100.772423
1759228867.201095, 3.813664, 7.017555, 0.295235, 0.305372, -1.484248, -0.807570, -1.976120, -2.004135, -241.407135, 13.727845, 100.772423
1759228867.221068, 3.443461, 6.621165, 0.641646, -0.078175, -1.883729, -0.354182, -1.181305, -2.265701, -239.765762, 13.727845, 100.772423
1759228867.240106, 3.355174, 6.502652, 0.702698, -0.217743, -1.485983, -0.078838, -0.590408, -2.674026, -239.390823, 13.727845, 100.772423
1759228867.261070, 1.272817, 7.024737, 1.237204, -0.601773, 0.066749, -0.022726, -0.745224, -2.834854, -239.097107, 13.727845, 100.772423
1759228867.281096, 0.881515, 7.945906, 2.282572, -1.143679, 1.420669, 0.034414, -0.912231, -3.102875, -240.008713, 13.727845, 100.772423
1759228867.301089, -0.294337, 8.407538, 0.811335, -1.278587, 2.032866, -0.210147, -1.688675, -3.350311, -241.446198, 13.727845, 100.772423
1759228867.321087, -2.597559, 9.913940, -3.353977, -0.688277, 1.664683, -0.336059, -2.371994, -4.096313, -242.770554, 13.727845, 100.772423
1759228867.340275, -1.084424, 11.265467, -2.367566, -0.030239, 0.164094, -0.247722, -2.481476, -4.155197, -242.781418, 13.727845, 100.772423
1759228867.361073, 0.238971, 12.164041, -0.531812, 0.124582, -0.135115, -0.421359, -2.185135, -4.809265, -243.029388, 13.727845, 100.772423
1759228867.381098, 2.268207, 13.108853, 1.478420, -0.036443, -0.098670, -0.603463, -2.189255, -5.021591, -243.259766, 13.727845, 100.772423
1759228867.400317, 3.113959, 12.486809, 1.044470, -0.323520, -0.505843, -0.733080, -2.048019, -5.605804, -243.034180, 13.727845, 100.772423
1759228867.421078, 2.712331, 12.156858, 0.271443, -0.355574, -0.991458, -0.716037, -2.143524, -6.144272, -242.184570, 13.727845, 100.772423
1759228867.440448, 2.088642, 13.594127, 0.064643, -0.023948, -1.399880, -0.757445, -1.279800, -6.703903, -241.344345, 13.727845, 100.772423
1759228867.461114, 4.154538, 16.043246, 1.493683, 0.397096, -1.922929, -0.559829, -0.727280, -6.977875, -240.248627, 13.727845, 100.772423
1759228867.481088, 4.458901, 16.906954, 1.113902, 0.519714, -1.758472, 0.083183, -0.173767, -6.672455, -238.994507, 13.727845, 100.772423
1759228867.501097, 3.646519, 17.247380, -0.781856, 0.276240, -1.001320, 1.043747, 0.247894, -5.796921, -238.428696, 13.727845, 100.772423
1759228867.521092, -0.407762, 15.568296, -7.621492, 0.443038, 0.574518, 1.517320, -0.492432, -4.939178, -238.835739, 13.727845, 100.772423
1759228867.540617, -0.237924, 13.171850, -6.778883, 1.461258, 0.257712, 1.601636, -0.503937, -2.949295, -239.109512, 13.727845, 100.772423
1759228867.560476, -0.185700, 12.501474, -3.644723, 1.913109, -0.602113, 1.392577, -0.313049, -0.930298, -239.225372, 13.727845, 100.772423
1759228867.581080, -1.170765, 12.691064, 1.652598, 1.923450, 0.021400, 1.091079, -0.318039, 0.416565, -237.994705, 13.727845, 100.772423
1759228867.601094, -0.216825, 11.956344, 4.161422, 1.430139, 0.284844, 1.099326, -0.256592, 2.239136, -238.991440, 13.727845, 100.772423
1759228867.621083, 0.820313, 14.183550, 2.315043, 0.946400, 0.748774, 1.820362, -0.311539, 4.216599, -239.699524, 13.727845, 100.772423
1759228867.640814, -4.103213, 11.246164, 0.883760, 0.325482, 2.265072, 2.038183, -0.586411, 6.074524, -241.065689, 13.727845, 100.772423
1759228867.661095, -4.234894, 9.953594, 0.681599, -0.157176, 1.667523, 2.278434, -1.118103, 7.619766, -242.542709, 13.727845, 100.772423
1759228867.681155, -4.960636, 9.221417, 0.813729, 0.016301, 0.634205, 2.345193, -1.209641, 9.508438, -242.920364, 13.727845, 100.772423
1759228867.701105, -2.179023, 9.000702, 0.638953, 0.406197, -0.220466, 2.465040, -0.190948, 11.686356, -242.805771, 13.727845, 100.772423
1759228867.721276, 2.897283, 9.718364, -1.166724, 1.203445, -1.569988, 2.783934, 1.163376, 13.737213, -242.825195, 13.727845, 100.772423
1759228867.741035, 4.146757, 9.080309, -1.472135, 1.469567, -1.562314, 2.584785, 2.902191, 16.260208, -241.753647, 13.727845, 100.772423
1759228867.760314, 2.318784, 7.790134, -0.828843, 1.255437, -1.890370, 1.913794, 4.039703, 18.451950, -241.862259, 13.727845, 100.772423
1759228867.781089, 1.506701, 6.948422, 0.470311, 1.350700, -2.573843, 1.805290, 6.000488, 19.760330, -241.259247, 13.727845, 100.772423
1759228867.800126, -0.532411, 5.662736, 1.474080, 1.623031, -2.856840, 1.533116, 7.801086, 21.617554, -240.359238, 13.727845, 100.772423
1759228867.821105, -1.750461, 5.176264, 1.212813, 1.817445, -2.812704, 1.284710, 9.582397, 22.655472, -239.448120, 13.727845, 100.772423
1759228867.841100, -2.717569, 4.951658, 1.071705, 1.669570, -2.519805, 1.075550, 11.015717, 24.207214, -239.313293, 13.727845, 100.772423
1759228867.861092, -3.431190, 4.469526, 0.962918, 1.159768, -2.100900, 0.833869, 12.347183, 25.609924, -239.208878, 13.727845, 100.772423
1759228867.881131, -4.045902, 3.512593, 0.055067, 0.480462, -1.376132, 0.474021, 13.332321, 25.621994, -239.380264, 13.727845, 100.772423
1759228867.901099, -4.342184, 2.884265, -0.856376, -0.180333, -0.698675, -0.068390, 13.395874, 25.612350, -238.860352, 13.727845, 100.772423
1759228867.921121, -4.195389, 2.019210, -1.628955, -0.622391, -0.188866, -0.806347, 13.311493, 25.406006, -238.169983, 13.727845, 100.772423
1759228867.941163, -4.030938, 1.351377, -2.194286, -1.019442, 0.304635, -1.596656, 12.376434, 24.081436, -237.857346, 13.727845, 100.772423
1759228867.961147, -1.151461, 1.031602, -5.201702, -1.579900, 1.657965, -1.919521, 10.992279, 22.558502, -238.420639, 13.727845, 100.772423
1759228867.981223, 11.690737, 8.612243, -9.038710, -2.499774, 5.358698, -0.751419, 8.167419, 20.874023, -239.212967, 13.727845, 100.772423
1759228868.001144, -1.345392, 22.543653, 12.079047, -2.716072, 3.104085, -1.958891, 6.229645, 18.963882, -239.801758, 13.727845, 100.772423
1759228868.021291, 2.100762, 25.981876, -6.522404, -1.968316, 3.310196, -1.534369, 4.593582, 17.102051, -240.811844, 13.727845, 100.772423
1759228868.041133, 5.342062, 20.890906, -2.293196, -0.653344, 1.002762, -0.724703, 3.938812, 16.466202, -241.047256, 13.727845, 100.772423
1759228868.060606, 2.942474, 8.098237, -2.005742, -0.253386, 0.686223, -0.555332, 3.566254, 16.187378, -241.532486, 13.727845, 100.772423
1759228868.081104, 0.301669, 5.247641, -0.380528, -0.666862, 0.712469, -1.064716, 3.645401, 15.058258, -241.725906, 13.727845, 100.772423
1759228868.100421, 0.589871, 6.128707, 0.434847, -1.396208, 1.401427, -1.441874, 2.259567, 14.288803, -241.861603, 13.727845, 100.772423
1759228868.121092, 0.268450, 9.442432, 0.814627, -1.902633, 1.947399, -1.573649, 0.804947, 12.569016, -242.758636, 13.727845, 100.772423
1759228868.141131, 0.021249, 12.156858, 0.173879, -1.664670, 2.280074, -1.716784, -0.228302, 10.746414, -243.242538, 13.727848, 100.772422
1759228868.161191, -0.031274, 13.282432, -0.353743, -0.853401, 2.163646, -1.632162, -0.894211, 9.514069, -244.361374, 13.727848, 100.772422
1759228868.181323, 0.466271, 12.271630, 0.165948, -0.285969, 1.432205, -1.437587, -1.736496, 8.260193, -245.971115, 13.727848, 100.772422
1759228868.201293, 1.270573, 11.486482, 0.378134, -0.046479, 0.491301, -1.422606, -1.859924, 7.683899, -245.292175, 13.727848, 100.772422
1759228868.221123, 1.427543, 10.819846, 0.652121, 0.202352, -0.335135, -1.486410, -2.066254, 6.571228, -245.271576, 13.727848, 100.772422
1759228868.241091, 1.675792, 9.221866, 1.160140, 0.279345, -0.805415, -1.480900, -2.695312, 5.484100, -245.202072, 13.727848, 100.772422
1759228868.261152, 1.255609, 7.602039, 0.853234, 0.316704, -0.626357, -1.428155, -1.984818, 4.857956, -244.390656, 13.727848, 100.772422
1759228868.281161, 1.634043, 6.960094, 1.253664, 0.202749, -0.137424, -1.313857, -2.189178, 3.507675, -244.218201, 13.727848, 100.772422
1759228868.301169, 2.316689, 7.804499, 1.399710, 0.040455, -0.460940, -1.065758, -1.963074, 3.128204, -243.950348, 13.727848, 100.772422
1759228868.321152, 2.885462, 7.958775, 1.724124, -0.268501, -0.987898, -0.674384, -1.969406, 2.529480, -243.183838, 13.727848, 100.772422
1759228868.341109, 2.443732, 7.677457, 2.307711, -0.704202, -0.399022, -0.270963, -1.960907, 2.085876, -242.979828, 13.727848, 100.772422
1759228868.361156, 1.222988, 8.107216, 1.028759, -0.873057, 0.791185, -0.237342, -2.065811, 1.669296, -242.556503, 13.727848, 100.772422
1759228868.381103, -0.580295, 7.619696, 0.659004, -1.048782, 1.480097, -0.282173, -2.444275, 1.478104, -244.250275, 13.727848, 100.772422
1759228868.401125, -1.512238, 8.258050, -0.442478, -1.011087, 1.051444, -0.365548, -2.539688, 0.918457, -245.213837, 13.727848, 100.772422
1759228868.421101, -2.529025, 9.378387, -1.226579, -0.572274, 0.951347, -0.689609, -3.255737, 0.448471, -246.059158, 13.727848, 100.772422
1759228868.440160, -1.160739, 10.740389, 0.176273, -0.426303, 0.869019, -0.772037, -3.101776, -0.198898, -245.713287, 13.727848, 100.772422
1759228868.461119, 1.809867, 11.231200, 1.541267, -0.294181, 0.355258, -0.653817, -3.641739, -0.873825, -246.483749, 13.727848, 100.772422
1759228868.481117, 3.531298, 11.391911, 0.343119, -0.099138, 0.268418, -0.690753, -3.511215, -1.308655, -247.200760, 13.727848, 100.772422
1759228868.501211, 3.072509, 11.105055, 0.288202, -0.068267, -0.327976, -0.834233, -3.651031, -1.716324, -247.392975, 13.727848, 100.772422
1759228868.521146, 2.491167, 11.150545, 0.681150, -0.035516, -0.908531, -0.890032, -2.938461, -2.683548, -246.745728, 13.727848, 100.772422
1759228868.540354, 2.425177, 11.344625, 1.093103, -0.107976, -1.412832, -0.736771, -2.885452, -3.087204, -245.887573, 13.727848, 100.772422
1759228868.561096, 2.680907, 11.798775, 1.668609, -0.227049, -1.625619, -0.408579, -2.679443, -3.434204, -244.995972, 13.727848, 100.772422
1759228868.581099, 2.854487, 13.066954, 1.623568, -0.014981, -1.343110, -0.077072, -2.063950, -3.524429, -243.758362, 13.727848, 100.772422
1759228868.600826, 2.442834, 14.466515, 0.282665, 0.558658, -0.792302, 0.354987, -1.827881, -3.014908, -243.438553, 13.727848, 100.772422
1759228868.621098, 0.965761, 16.717363, -1.629105, 0.992696, -0.311744, 0.988322, -1.769333, -2.040695, -242.760040, 13.727848, 100.772422
1759228868.640610, -1.744475, 18.129194, -3.944747, 1.134112, -0.512637, 1.290156, -1.694778, -0.367920, -242.730667, 13.727848, 100.772422
1759228868.661164, -2.562095, 15.110854, -5.965004, 1.407624, -0.531426, 1.390616, -1.624374, 1.035034, -242.306870, 13.727848, 100.772422
1759228868.681199, 0.024840, 12.593201, -3.711611, 1.743932, 0.416274, 1.576964, -1.315491, 2.782791, -242.801361, 13.727848, 100.772422
1759228868.701301, 2.157325, 12.333281, -1.359757, 2.100117, 0.009957, 1.778674, -0.665375, 5.036804, -243.301880, 13.727848, 100.772422
1759228868.721280, 3.289035, 12.899360, 0.064943, 2.035953, 0.209980, 2.036606, -0.360825, 6.574844, -243.636505, 13.727848, 100.772422
1759228868.740737, 1.664718, 13.809456, 2.592471, 1.384707, 1.414561, 1.942640, 0.162354, 9.336044, -245.168686, 13.727848, 100.772422
1759228868.761100, -1.151162, 15.054291, 4.535516, 0.258583, 1.857526, 2.136525, 0.663010, 10.988480, -246.230286, 13.727848, 100.772422
1759228868.781219, -3.875315, 14.851682, 1.500865, 0.204949, 1.184469, 2.199865, 0.962936, 12.552643, -247.529999, 13.727848, 100.772422
1759228868.801148, -4.840178, 11.101165, -0.546626, 0.441709, 0.443749, 2.067413, 1.479843, 14.433121, -248.038361, 13.727848, 100.772422
1759228868.821316, -2.384176, 10.060136, 0.360926, 0.657885, -0.235128, 2.392867, 2.947617, 15.871964, -248.927322, 13.727848, 100.772422
1759228868.841112, 1.910274, 11.596016, 0.389656, 1.128054, -0.600749, 3.038615, 4.260422, 18.152695, -249.089005, 13.727848, 100.772422
1759228868.861117, 3.425654, 11.059566, -0.566678, 1.266101, -0.226266, 2.878840, 5.853210, 19.713013, -249.743011, 13.727848, 100.772422
1759228868.881301, 1.547552, 8.771756, 0.017957, 0.744111, -0.614333, 2.172484, 6.989670, 21.489883, -249.987991, 13.727848, 100.772422
1759228868.901311, 1.588254, 7.123199, -1.361702, 0.816477, -1.913778, 2.087695, 8.525696, 22.698608, -249.477066, 13.727848, 100.772422
1759228868.921135, 1.682675, 6.949170, -0.825401, 1.414854, -2.963413, 2.220828, 10.493881, 24.106339, -248.833603, 13.727848, 100.772422
1759228868.941144, 1.120037, 7.042694, 0.410007, 1.778384, -2.769200, 2.285129, 12.107635, 25.360107, -248.392075, 13.727848, 100.772422
1759228868.961160, 1.592294, 7.747337, 0.625635, 1.836698, -2.544760, 2.225232, 14.263000, 27.142807, -248.431061, 13.727848, 100.772422
1759228868.981107, 0.001646, 7.985560, 0.063147, 1.812927, -2.621624, 1.835799, 15.135681, 27.916000, -248.645523, 13.727848, 100.772422
1759228869.001225, -1.583016, 6.737134, 0.826448, 1.626913, -2.588064, 1.426799, 16.746368, 28.940414, -248.535477, 13.727848, 100.772422
1759228869.021140, -2.910900, 4.363433, 0.851139, 1.195830, -2.236632, 0.938662, 18.121094, 29.284683, -249.253372, 13.727848, 100.772422
1759228869.041279, -3.179500, 1.701978, 0.382174, 0.692202, -1.927271, 0.247496, 18.928116, 29.763611, -248.767715, 13.727848, 100.772422
1759228869.061101, -3.381660, -0.391302, 0.511611, 0.057501, -1.406793, -0.341278, 19.002380, 29.327454, -248.168533, 13.727848, 100.772422
1759228869.081117, -4.080019, -1.930924, -0.551265, -0.583412, -0.635323, -0.938680, 18.730530, 29.303406, -248.013290, 13.727848, 100.772422
1759228869.101289, -4.237138, -1.654543, -1.174506, -1.376649, 0.713861, -1.393626, 18.049911, 28.435913, -247.492172, 13.727848, 100.772422
1759228869.121145, -2.794333, -0.858621, -2.061108, -2.154069, 2.377419, -1.751239, 16.244858, 27.250717, -246.947632, 13.727848, 100.772422
1759228869.141309, 0.849343, 0.516998, -6.723666, -2.044236, 5.608207, -1.183670, 14.080658, 26.542297, -247.696152, 13.727848, 100.772422
1759228869.161193, 24.587553, 9.806949, -13.329718, -3.978484, 4.277517, 0.243141, 13.348663, 25.832657, -247.328537, 13.727848, 100.772422
1759228869.181198, 3.847781, 30.365660, 6.117933, -1.850016, 2.597043, -1.372369, 12.071518, 24.854446, -247.607132, 13.727848, 100.772422
1759228869.201130, 3.776853, 35.823242, -8.180239, 0.649084, -1.928661, -1.063697, 11.371643, 24.345627, -247.256622, 13.727848, 100.772422
1759228869.221208, 8.161983, 14.981717, -2.072780, 1.107952, -2.180562, -0.524739, 12.118607, 24.345215, -246.648636, 13.727848, 100.772422
1759228869.241143, 0.281768, 0.701501, -1.389385, -0.213134, -0.496582, -0.829428, 11.776093, 24.189301, -246.686829, 13.727848, 100.772422
1759228869.260543, -2.556110, 0.592565, -4.388123, -0.754516, -0.099972, -1.456577, 11.250427, 23.385269, -246.652954, 13.727848, 100.772422
1759228869.281115, -1.528847, 6.526444, -0.995689, -1.443578, 0.831252, -1.665175, 10.066223, 22.150772, -245.783630, 13.727848, 100.772422
1759228869.301102, -1.722628, 10.927735, -0.594959, -1.736146, 1.782938, -1.893299, 9.002060, 21.030899, -246.317535, 13.727848, 100.772422
1759228869.321149, -0.339528, 14.064139, -0.203806, -1.589751, 2.237401, -1.619175, 7.670135, 19.748199, -246.685959, 13.727847, 100.772423
1759228869.341316, 0.261267, 13.415310, -1.313220, -1.036893, 2.097002, -1.373765, 6.628708, 18.647507, -247.164673, 13.727847, 100.772423
1759228869.360611, 1.665616, 10.973524, -0.754174, -0.711855, 1.572892, -1.233273, 6.022598, 17.860886, -247.534363, 13.727847, 100.772423
1759228869.381112, 2.377891, 9.344419, 0.625485, -0.682382, 1.350204, -1.075338, 4.930237, 16.918228, -247.929871, 13.727847, 100.772423
1759228869.401121, 2.686743, 8.633342, 1.705270, -0.799640, 1.094070, -1.053789, 4.192764, 16.464920, -248.361969, 13.727847, 100.772423
1759228869.421119, 3.337218, 8.515277, 1.940052, -0.858424, 0.894836, -1.196623, 4.115219, 15.533417, -248.610382, 13.727847, 100.772423
1759228869.441117, 3.435530, 9.023447, 1.398962, -0.780527, 0.947060, -1.411165, 3.492935, 14.282059, -249.126541, 13.727847, 100.772423
1759228869.460881, 2.672228, 9.453655, 0.879570, -0.541726, 1.015548, -1.588037, 2.957260, 13.710587, -249.471542, 13.727847, 100.772423
1759228869.481114, 1.839495, 9.649531, 0.331148, -0.378429, 0.634170, -1.802662, 2.197052, 12.186905, -250.453323, 13.727847, 100.772423
1759228869.501213, 0.882862, 9.538051, -0.042647, -0.421780, 0.197461, -2.080634, 1.799408, 11.017670, -249.895615, 13.727847, 100.772423
1759228869.521233, 1.719037, 9.829096, -0.212785, -0.242687, -0.341810, -1.792543, 1.085251, 9.793015, -250.202927, 13.727847, 100.772423
1759228869.541129, 2.615067, 10.431537, -0.222212, 0.065436, -0.984729, -1.075972, 0.790588, 9.121216, -249.496506, 13.727847, 100.772423
1759228869.561010, 2.353201, 9.875334, -0.477643, 0.102352, -1.221694, -0.796366, 1.095612, 8.376190, -247.991089, 13.727847, 100.772423
1759228869.581158, 0.820613, 8.074595, -1.063624, 0.013518, -0.987852, -0.714223, 0.859436, 8.164703, -247.956635, 13.727847, 100.772423
1759228869.601289, 0.054468, 7.994389, -1.021426, 0.167377, -0.732464, -0.509487, 0.758408, 7.846481, -247.026184, 13.727847, 100.772423
1759228869.621222, -0.469413, 8.860940, -0.509217, 0.479662, -0.788521, -0.455113, 1.184326, 7.376740, -247.007156, 13.727847, 100.772423
1759228869.641331, -0.603339, 9.954791, 0.089184, 0.558182, -0.827626, -0.482906, 1.111404, 7.384491, -246.043900, 13.727847, 100.772423
1759228869.661308, -0.421679, 10.323049, 0.557699, 0.347292, -0.747535, -0.442386, 1.127747, 6.982559, -246.036163, 13.727847, 100.772423
1759228869.681183, -0.153079, 10.042180, 0.688632, 0.201718, -0.475772, -0.440431, 1.889923, 6.582809, -245.535278, 13.727847, 100.772423
1759228869.701165, -0.025738, 9.869498, 0.717961, 0.066634, -0.154200, -0.450914, 1.501266, 7.109482, -245.549362, 13.727847, 100.772423
1759228869.721304, -0.012570, 9.515754, 0.594660, -0.047231, -0.001809, -0.501061, 1.495331, 6.526199, -245.307571, 13.727847, 100.772423
1759228869.741337, 0.035913, 9.437494, 0.381726, -0.124570, -0.033614, -0.527846, 1.262711, 6.138474, -245.349594, 13.727847, 100.772423
1759228869.761125, 0.066140, 9.589675, 0.068983, -0.241151, -0.006122, -0.466490, 1.170670, 5.409302, -244.752014, 13.727847, 100.772423
1759228869.781283, 0.654365, 9.689633, -0.351050, -0.241355, 0.210739, -0.396781, 0.987762, 5.129517, -245.332199, 13.727847, 100.772423
1759228869.801297, 1.768567, 9.803059, -0.483030, 0.014387, 0.339746, -0.142132, 1.116318, 4.871002, -245.997345, 13.727847, 100.772423
1759228869.821184, 2.000655, 10.601675, -0.119710, 0.377943, -0.135673, 0.282281, 1.107178, 5.013702, -245.911148, 13.727847, 100.772423
1759228869.841211, 0.526874, 11.886463, 0.306009, 0.646095, -0.709144, 0.681492, 1.254288, 6.016937, -245.488586, 13.727847, 100.772423
1759228869.861205, -1.645864, 11.780520, 0.970998, 0.531919, -0.848460, 0.741714, 1.445465, 6.510788, -245.612457, 13.727847, 100.772423
1759228869.880673, -2.898929, 10.442161, 1.067365, 0.324634, -0.616598, 0.440786, 1.729294, 6.978973, -244.356995, 13.727847, 100.772423
1759228869.901183, -2.556558, 9.053973, 1.435174, 0.191986, 0.008893, 0.105674, 2.001556, 7.043839, -244.034256, 13.727847, 100.772423
1759228869.921190, -2.365471, 8.230517, 1.850269, -0.061103, 0.845627, 0.020716, 1.621124, 7.740921, -245.447220, 13.727847, 100.772423
1759228869.941155, -2.964471, 7.267749, 1.471237, -0.443424, 0.824967, -0.060468, 1.484848, 7.373413, -245.523315, 13.727847, 100.772423
1759228869.961154, -3.792864, 7.176021, 1.237054, -1.032036, -0.062756, -0.198923, 1.095612, 6.659805, -245.759293, 13.727847, 100.772423
1759228869.981353, -4.726753, 8.868123, 0.577601, -1.391838, -1.221425, -0.464246, 1.357193, 6.141663, -244.549805, 13.727847, 100.772423
1759228870.001248, -4.400094, 10.180445, -0.928501, -1.315443, -2.106418, -0.496462, 1.897919, 5.754562, -243.065872, 13.727847, 100.772423
1759228870.021217, -3.576937, 10.291925, -4.954950, -0.513953, -1.669821, -0.497774, 2.357422, 5.317200, -241.702103, 13.727847, 100.772423
1759228870.041246, -2.796428, 9.626935, -3.701136, 0.603156, -0.363315, -0.432765, 2.708313, 4.927612, -241.554733, 13.727847, 100.772423
1759228870.061129, -2.862118, 9.482834, -0.485424, 0.922835, 0.310896, -0.279789, 2.254242, 5.377670, -241.501465, 13.727847, 100.772423
1759228870.081159, -2.887258, 9.949704, 1.188272, 0.744264, 0.444260, -0.340371, 2.043076, 5.035141, -242.081604, 13.727847, 100.772423
1759228870.101148, -2.227954, 10.343999, 1.707964, 0.460996, 0.256946, -0.386800, 1.786133, 5.198288, -242.450043, 13.727847, 100.772423
1759228870.121272, -1.372626, 10.287735, 1.757943, -0.121815, 0.049712, -0.149568, 1.903137, 4.869339, -242.751907, 13.727847, 100.772423
1759228870.140754, -0.885855, 9.692925, 1.200243, -0.252356, 0.171516, -0.127451, 1.834045, 4.945770, -242.036819, 13.727847, 100.772423
1759228870.161309, -0.117615, 9.251345, 0.293739, -0.421747, 1.032527, -0.119863, 1.644684, 4.516861, -242.733444, 13.727847, 100.772423
1759228870.181325, 0.862062, 9.629329, -0.932691, -0.400458, 1.552931, 0.041849, 0.905884, 4.231522, -243.946228, 13.727847, 100.772423
1759228870.201324, 1.104326, 10.191668, -2.088791, -0.055044, 1.181217, 0.174514, 0.497253, 4.288391, -244.720078, 13.727847, 100.772423
1759228870.221271, 0.375740, 9.752930, -2.009334, 0.393014, -0.012071, 0.237488, 0.663910, 4.628632, -245.634766, 13.727847, 100.772423
1759228870.241329, -0.751779, 9.036765, -0.816722, 0.602534, -0.750177, 0.227987, 0.881210, 5.207733, -245.541153, 13.727847, 100.772423
1759228870.260221, -1.620875, 8.779837, 0.461931, 0.608460, -0.890864, 0.207643, 1.015060, 5.307648, -245.115692, 13.727847, 100.772423
1759228870.281330, -2.362030, 8.974665, 1.416320, 0.334257, -0.508323, 0.087013, 1.264954, 5.531525, -243.947449, 13.727847, 100.772423
1759228870.301185, -2.827403, 9.522787, 2.290802, -0.191801, 0.156344, 0.019311, 1.396393, 5.687714, -243.961288, 13.727847, 100.772423
1759228870.321132, -2.759467, 10.184784, 1.728464, -0.580069, 0.256155, 0.091298, 1.285172, 5.822815, -244.488663, 13.727847, 100.772423
1759228870.341334, -3.487005, 10.064176, -0.042946, -0.630257, 0.405522, 0.013212, 1.088379, 5.761505, -243.792664, 13.727847, 100.772423
1759228870.360465, -2.794632, 9.293094, -2.116175, -0.215049, 0.652126, -0.120787, 0.958252, 5.241714, -244.663666, 13.727847, 100.772423
1759228870.381195, -1.068562, 8.596231, -2.372055, 0.254959, 0.292549, -0.096902, 0.950302, 5.195419, -244.765121, 13.727847, 100.772423
1759228870.401217, -0.754922, 8.406940, -0.971148, 0.363792, -0.212317, -0.076353, 0.612335, 5.053543, -245.286835, 13.727847, 100.772423
1759228870.421166, -1.418864, 8.984691, 0.277578, 0.293979, -0.411416, -0.088219, 1.036255, 4.860184, -245.195892, 13.727847, 100.772423
1759228870.441146, -1.659930, 9.219472, 0.955885, 0.191171, -0.318611, -0.078450, 1.026489, 5.135681, -244.329849, 13.727847, 100.772423
1759228870.460616, -1.735946, 9.394398, 1.600374, 0.009960, -0.013346, -0.036099, 1.124039, 5.113327, -244.304626, 13.727847, 100.772423
1759228870.481149, -2.173037, 10.066571, 2.012027, -0.318373, 0.268062, -0.001728, 0.800491, 5.354691, -244.374924, 13.727847, 100.772423
1759228870.501143, -2.618957, 10.823438, 1.491288, -0.603351, 0.328822, 0.024489, 0.703995, 5.088379, -244.840256, 13.727847, 100.772423
1759228870.521149, -2.580351, 10.903344, 0.236876, -0.674224, 0.478722, 0.028364, 0.712646, 4.983963, -245.301086, 13.727847, 100.772423
1759228870.541137, -1.887080, 10.334571, -1.399261, -0.395715, 0.702827, 0.061064, 0.583832, 4.879181, -245.243317, 13.727847, 100.772423
1759228870.560849, -1.358709, 9.775376, -2.342427, 0.103444, 0.683253, 0.099760, 0.237137, 4.633560, -245.255692, 13.727847, 100.772423
1759228870.581136, -1.481412, 9.607033, -1.751658, 0.408419, 0.335184, 0.076330, 0.174713, 4.841492, -245.744293, 13.727847, 100.772423
1759228870.601332, -1.832163, 9.713725, -0.493954, 0.473496, -0.066354, 0.021818, 0.030762, 4.984909, -246.118210, 13.727847, 100.772423
1759228870.621142, -2.000954, 9.508422, 0.426467, 0.431764, -0.150036, -0.022764, 0.229904, 5.233124, -245.954819, 13.727847, 100.772423
1759228870.640964, -1.996914, 9.016115, 1.134852, 0.290517, 0.077738, -0.065829, 0.024445, 5.033127, -246.148788, 13.727847, 100.772423
1759228870.660975, -1.918953, 8.998158, 1.641525, 0.056644, 0.192879, -0.106706, -0.033829, 5.256607, -245.876022, 13.727847, 100.772423
1759228870.681139, -1.804330, 9.598504, 1.482460, -0.229673, 0.133571, -0.154898, 0.450623, 4.907227, -246.326111, 13.727847, 100.772423
1759228870.701176, -1.720683, 10.008361, 0.873734, -0.427949, 0.230882, -0.183173, -0.023758, 5.018372, -246.286026, 13.727847, 100.772423
1759228870.721234, -1.506551, 10.174759, 0.200365, -0.480480, 0.457809, -0.189380, 0.322311, 4.614655, -246.608795, 13.727847, 100.772423
1759228870.741332, -1.217152, 9.979481, -0.286706, -0.440970, 0.626139, -0.180367, -0.210098, 4.588974, -246.560257, 13.727847, 100.772423
1759228870.761209, -1.017835, 9.716568, -0.631770, -0.358389, 0.665843, -0.172033, -0.614410, 4.477264, -247.677780, 13.727847, 100.772423
1759228870.781151, -0.931344, 9.708338, -0.797718, -0.260352, 0.514296, -0.170269, -0.766785, 4.167084, -247.775696, 13.727847, 100.772423
1759228870.801159, -0.964564, 9.791537, -0.818667, -0.087160, 0.232550, -0.184824, -0.610260, 4.135483, -247.292099, 13.727847, 100.772423
1759228870.821159, -1.000327, 9.615563, -0.676063, 0.081572, -0.003098, -0.187662, -0.706390, 3.770187, -248.671890, 13.727847, 100.772423
1759228870.841155, -1.096993, 9.400833, -0.276530, 0.135637, -0.134552, -0.201113, -0.764191, 3.846298, -248.106552, 13.727847, 100.772423
1759228870.861133, -1.136198, 9.433753, 0.166098, 0.107194, -0.200566, -0.193081, -0.985992, 3.681458, -248.324890, 13.727847, 100.772423
1759228870.881159, -0.981024, 9.730185, 0.479738, 0.042104, -0.175178, -0.154731, -0.247925, 3.509323, -247.449280, 13.727847, 100.772423
1759228870.901191, -0.778564, 10.017639, 0.637606, -0.068833, -0.150754, -0.084104, -0.093857, 3.779861, -247.607117, 13.727847, 100.772423
1759228870.921198, -0.621595, 10.037092, 0.533009, -0.149011, -0.141805, 0.009423, -0.225388, 3.335785, -247.760101, 13.727847, 100.772423
1759228870.941231, -0.578349, 9.751733, 0.130185, -0.124205, -0.078121, 0.107372, -0.481689, 3.377899, -247.328094, 13.727847, 100.772423
1759228870.961200, -0.971597, 9.659257, -0.181211, -0.064624, 0.014199, 0.145689, -0.713867, 3.742691, -247.085037, 13.727847, 100.772423
1759228870.980323, -1.569848, 9.752182, -0.296582, 0.009453, 0.009905, 0.134727, -0.437607, 3.579086, -247.282715, 13.727847, 100.772423
1759228871.000906, -1.994370, 9.713725, -0.245855, 0.088996, -0.104514, 0.095278, -0.341599, 4.013535, -247.602615, 13.727847, 100.772423
1759228871.021175, -2.080561, 9.480590, 0.039654, 0.170551, -0.217013, 0.061136, -0.593384, 3.804977, -247.544189, 13.727847, 100.772423
1759228871.041178, -1.876755, 9.522937, 0.370802, 0.185545, -0.265082, 0.047732, -0.510727, 4.142975, -246.782913, 13.727847, 100.772423
1759228871.061167, -1.810166, 9.423727, 0.629076, 0.145654, -0.264806, 0.061841, -0.239914, 4.086533, -246.512558, 13.727847, 100.772423
1759228871.081159, -2.033874, 9.449016, 0.761057, 0.067387, -0.182547, 0.060375, -0.343185, 4.331284, -246.751419, 13.727847, 100.772423
1759228871.101164, -2.295890, 9.550321, 0.769287, -0.008130, -0.055962, 0.056291, -0.201843, 4.234116, -246.223267, 13.727847, 100.772423
1759228871.120710, -2.502689, 9.638906, 0.655862, -0.098664, 0.073587, 0.044750, -0.092789, 4.371918, -246.753174, 13.727847, 100.772423
1759228871.141162, -2.573019, 9.533412, 0.381875, -0.130099, 0.159662, 0.028211, 0.011215, 4.281662, -246.728378, 13.727847, 100.772423
1759228871.160306, -2.554314, 9.436895, 0.139612, -0.097972, 0.170665, 0.000319, -0.381073, 4.587509, -246.954636, 13.727847, 100.772423
1759228871.180784, -2.373851, 9.535956, 0.049680, -0.037250, 0.156777, -0.035261, -0.508041, 4.201767, -247.467972, 13.727847, 100.772423
1759228871.201155, -2.015768, 9.704148, 0.091129, -0.013277, 0.116102, -0.038199, -0.269440, 4.514114, -246.652008, 13.727847, 100.772423
1759228871.221149, -1.714398, 9.759664, 0.110582, 0.025177, 0.152265, -0.006660, -0.458267, 4.332077, -247.478088, 13.727847, 100.772423
1759228871.241146, -1.759589, 9.783157, 0.282965, 0.040386, 0.287038, 0.054947, -0.286362, 4.280624, -247.317825, 13.727847, 100.772423
1759228871.261147, -2.030433, 9.695918, 0.436643, 0.019919, 0.373649, 0.097284, -0.858719, 4.210358, -248.037247, 13.727847, 100.772423
1759228871.280796, -2.288707, 9.595062, 0.445770, -0.017239, 0.451258, 0.107713, -0.693909, 4.269470, -248.344147, 13.727847, 100.772423
1759228871.301178, -2.382680, 9.622895, 0.357933, -0.057580, 0.568569, 0.108361, -0.661072, 4.649429, -248.299744, 13.727847, 100.772423
1759228871.321160, -2.302923, 9.740809, 0.189441, -0.060896, 0.675600, 0.085544, -0.553070, 4.531509, -249.000854, 13.727847, 100.772423
1759228871.340475, -2.066795, 9.663896, 0.121356, -0.039052, 0.658388, 0.045775, -1.301224, 4.625580, -249.707581, 13.727847, 100.772423
1759228871.361144, -1.712453, 9.423129, 0.028880, -0.031222, 0.579498, 0.010234, -0.904175, 4.774811, -249.739548, 13.727847, 100.772423
1759228871.381182, -1.515530, 9.377639, -0.026486, -0.018156, 0.524339, -0.018157, -0.976227, 4.239334, -250.163742, 13.727847, 100.772423
1759228871.401159, -1.320552, 9.423428, -0.036212, -0.007549, 0.482307, -0.036657, -1.584457, 4.642792, -250.236740, 13.727847, 100.772423
1759228871.421175, -1.138593, 9.555109, 0.036212, 0.008591, 0.443535, -0.039067, -1.427765, 4.717972, -250.549927, 13.727847, 100.772423
1759228871.441172, -1.061679, 9.833884, 0.177021, 0.008877, 0.396035, -0.028345, -1.348663, 4.598892, -250.865707, 13.727847, 100.772423
1759228871.461238, -1.168071, 9.833136, 0.259023, -0.004716, 0.351196, -0.024400, -1.200394, 4.293533, -251.022644, 13.727847, 100.772423
1759228871.481178, -1.247529, 9.595212, 0.264260, -0.032822, 0.322123, -0.015737, -0.993927, 4.140213, -251.217529, 13.727847, 100.772423
1759228871.501174, -1.323245, 9.397391, 0.208744, -0.077691, 0.357835, -0.016858, -1.806854, 4.495667, -251.165451, 13.727847, 100.772423
1759228871.521295, -1.340005, 9.318831, 0.134973, -0.121123, 0.324243, -0.036693, -1.939941, 4.225021, -251.705460, 13.727847, 100.772423
1759228871.541193, -1.201740, 9.365668, 0.013767, -0.138750, 0.141248, -0.055467, -1.814514, 4.746536, -252.011047, 13.727847, 100.772423
1759228871.561144, -1.058087, 9.537602, -0.185102, -0.129810, 0.008519, -0.051506, -1.227036, 4.494858, -252.496948, 13.727847, 100.772423
1759228871.580559, -1.109563, 9.496002, -0.309600, -0.132531, 0.034001, -0.063998, -1.288605, 4.422287, -251.827744, 13.727847, 100.772423
1759228871.601161, -1.063175, 9.643096, -0.416292, -0.095961, -0.103048, -0.087635, -1.307297, 4.287033, -251.671005, 13.727847, 100.772423
1759228871.621159, -0.951546, 9.766098, -0.424821, -0.034929, -0.285089, -0.102480, -1.636169, 4.101578, -251.314026, 13.727847, 100.772423
1759228871.641029, -1.018284, 9.933692, -0.356437, 0.027863, -0.342468, -0.094292, -1.082504, 4.289398, -251.114487, 13.727847, 100.772423
1759228871.660745, -1.283142, 10.009409, -0.135871, 0.076638, -0.364947, -0.084951, -1.097321, 4.373245, -251.265717, 13.727847, 100.772423
1759228871.681164, -1.511789, 9.943718, 0.080056, 0.070000, -0.430620, -0.090466, -0.941101, 3.683228, -251.110794, 13.727847, 100.772423
1759228871.701174, -1.549497, 9.781212, 0.160412, 0.045546, -0.499823, -0.093597, -1.525513, 4.262863, -250.322357, 13.727847, 100.772423
1759228871.721168, -1.442058, 9.658509, 0.085443, 0.057612, -0.491822, -0.087876, -1.341339, 4.093201, -249.937057, 13.727847, 100.772423
1759228871.741157, -1.327734, 9.625439, 0.088436, 0.107933, -0.457668, -0.071139, -1.188950, 3.944946, -249.733704, 13.727847, 100.772423
1759228871.761150, -1.354071, 9.642198, 0.280122, 0.139504, -0.466688, -0.048806, -1.276321, 3.819809, -249.406067, 13.727847, 100.772423
1759228871.781155, -1.475726, 9.647136, 0.486921, 0.122038, -0.467794, -0.018147, -1.138397, 3.903244, -249.524384, 13.727847, 100.772423
1759228871.801176, -1.668908, 9.562591, 0.532560, 0.073508, -0.394480, 0.021357, -0.990936, 4.527069, -248.924469, 13.727847, 100.772423
1759228871.821169, -1.871368, 9.493458, 0.471508, 0.048097, -0.272295, 0.053668, -0.462082, 3.877487, -248.814789, 13.727847, 100.772423
1759228871.840748, -2.091485, 9.437045, 0.385915, 0.047773, -0.168826, 0.068718, -0.825470, 4.241760, -249.046310, 13.727847, 100.772423
1759228871.861190, -2.259677, 9.496302, 0.381576, 0.030407, -0.108664, 0.046062, -0.350449, 4.330948, -248.940567, 13.727847, 100.772423
1759228871.880500, -2.229600, 9.592219, 0.313192, 0.025954, -0.092899, 0.034353, -0.173172, 4.046158, -248.697235, 13.727847, 100.772423
1759228871.900340, -2.058565, 9.623793, 0.245855, 0.022075, -0.077732, 0.010882, -0.577545, 4.224625, -248.740448, 13.727847, 100.772423
1759228871.921224, -1.891270, 9.646837, 0.210690, 0.006678, -0.118724, -0.008064, -0.137482, 4.104233, -248.727234, 13.727847, 100.772423
1759228871.941232, -1.707066, 9.674969, 0.110582, 0.032594, -0.134975, -0.004735, -0.169418, 3.959335, -248.809662, 13.727847, 100.772423
1759228871.961248, -1.720982, 9.673772, 0.085443, 0.059184, -0.096217, -0.000839, -0.534012, 4.498459, -248.328552, 13.727847, 100.772423
1759228871.981166, -1.866579, 9.542240, 0.207547, 0.032134, -0.092370, 0.000706, -0.492157, 4.085388, -248.267929, 13.727847, 100.772423
1759228872.001179, -1.877054, 9.365818, 0.200365, 0.026769, -0.105506, 0.005846, -0.549561, 4.191238, -248.009689, 13.727847, 100.772423
1759228872.021346, -1.871218, 9.534310, 0.158317, 0.030536, -0.039727, 0.012598, -0.446396, 4.278809, -248.582947, 13.727847, 100.772423
1759228872.041204, -1.985691, 9.665392, 0.234781, 0.006975, 0.040687, 0.018121, -0.262527, 4.365860, -247.977417, 13.727847, 100.772423
1759228872.061310, -2.154632, 9.614066, 0.302867, -0.009526, 0.084103, 0.012514, -0.700150, 4.260910, -248.366257, 13.727847, 100.772423
1759228872.080340, -2.264915, 9.425074, 0.373196, -0.024113, 0.084314, 0.001596, -0.760361, 4.107559, -248.193359, 13.727847, 100.772423
1759228872.101186, -2.315941, 9.338135, 0.388310, -0.049298, 0.065927, -0.017344, -0.581055, 4.330185, -248.248886, 13.727847, 100.772423
1759228872.121358, -2.276736, 9.424027, 0.227599, -0.041442, 0.080651, -0.036545, -1.107834, 4.216400, -248.629501, 13.727847, 100.772423
1759228872.141362, -2.127996, 9.559598, 0.087239, -0.028321, 0.124771, -0.044324, -0.563156, 4.100952, -248.419250, 13.727847, 100.772423
1759228872.161344, -2.051681, 9.548375, 0.043545, 0.003026, 0.137192, -0.045668, -0.770447, 4.120956, -249.051941, 13.727847, 100.772423
1759228872.180642, -2.107346, 9.560646, 0.170886, 0.013335, 0.103630, -0.057593, -1.000687, 3.794006, -248.816422, 13.727847, 100.772423
1759228872.201218, -2.021005, 9.596260, 0.254982, -0.004810, 0.066327, -0.062313, -0.725021, 4.429993, -248.516464, 13.727847, 100.772423
1759228872.221176, -1.866729, 9.680206, 0.248997, -0.011468, 0.076750, -0.057595, -0.520416, 4.288437, -248.798340, 13.727847, 100.772423
1759228872.241172, -1.827674, 9.661651, 0.256329, -0.016556, 0.077575, -0.055598, -0.737396, 4.255692, -249.255142, 13.727847, 100.772423
1759228872.261173, -1.829320, 9.547328, 0.225803, -0.030911, 0.050547, -0.061208, -1.139160, 3.863159, -249.309219, 13.727847, 100.772423
1759228872.280682, -1.792658, 9.611672, 0.163404, -0.037883, 0.030517, -0.062664, -0.829025, 3.840393, -249.143036, 13.727847, 100.772423
1759228872.301182, -1.717690, 9.648333, 0.051026, -0.033458, 0.019998, -0.059932, -0.804474, 4.099228, -249.051956, 13.727847, 100.772423
1759228872.320927, -1.682525, 9.600449, -0.049979, -0.015276, 0.022471, -0.047397, -0.500565, 3.682281, -249.236603, 13.727847, 100.772423
1759228872.341173, -1.671602, 9.662399, -0.133926, 0.012584, 0.023422, -0.035586, -0.685760, 3.919418, -248.882919, 13.727847, 100.772423
1759228872.361162, -1.656189, 9.775076, -0.202759, 0.052185, 0.036100, -0.029128, -0.681671, 3.770203, -249.354889, 13.727847, 100.772423
1759228872.380877, -1.619079, 9.630826, -0.240019, 0.089751, 0.064165, -0.019507, -0.893616, 3.882431, -249.254364, 13.727847, 100.772423
1759228872.401228, -1.547552, 9.424625, -0.209642, 0.112157, 0.097487, -0.005316, -0.576950, 3.753723, -249.545929, 13.727847, 100.772423
1759228872.421223, -1.539322, 9.527127, -0.079458, 0.093851, 0.152878, 0.029227, -0.639526, 3.762772, -249.173080, 13.727847, 100.772423
1759228872.441206, -1.710807, 9.751284, 0.065691, 0.055264, 0.312703, 0.079936, -0.904190, 3.532272, -249.484497, 13.727847, 100.772423
1759228872.461369, -1.849820, 9.737966, 0.012121, -0.007122, 0.479878, 0.143957, -0.687607, 3.703400, -249.554398, 13.727847, 100.772423
1759228872.481249, -1.823933, 9.235783, -0.341623, -0.032337, 0.660911, 0.191221, -1.118301, 3.786621, -249.112213, 13.727847, 100.772423
1759228872.501214, -1.425149, 8.945037, -1.019182, 0.011501, 1.024000, 0.264100, -1.349838, 4.194687, -250.515884, 13.727847, 100.772423
1759228872.521245, -0.384718, 9.588778, -1.903241, 0.220408, 1.517350, 0.487592, -1.404373, 4.451294, -251.349625, 13.727847, 100.772423
1759228872.541281, 0.621744, 11.069591, -2.820370, 0.468152, 2.042045, 0.824662, -1.389023, 4.955872, -252.509949, 13.727847, 100.772423
1759228872.561180, 0.966060, 11.431714, -2.876035, 0.554926, 2.354741, 1.075584, -1.265640, 5.732162, -253.853653, 13.727847, 100.772423
1759228872.581182, 0.143203, 11.386374, -1.998261, 0.571418, 2.178795, 1.185388, -1.304611, 6.637619, -255.409958, 13.727847, 100.772423
1759228872.601181, -1.787272, 10.072107, -0.448165, 0.501515, 1.448627, 0.926951, -1.373306, 7.265579, -257.170776, 13.727847, 100.772423
1759228872.621192, -2.656516, 9.786449, 0.363470, 0.256614, 0.953126, 0.698702, -0.742706, 7.660950, -258.645874, 13.727847, 100.772423
1759228872.641379, -1.672649, 11.041460, -1.380557, 0.131024, 1.234078, 0.902152, -0.952194, 8.373749, -258.480591, 13.727847, 100.772423
1759228872.661355, -3.515287, 10.285341, -3.423559, 0.538246, 1.025433, 0.555472, -0.698715, 8.646835, -259.481689, 13.727847, 100.772423
1759228872.681363, -4.631583, 8.705018, -2.663849, 0.997354, 0.183859, 0.082981, -0.935623, 8.955887, -260.846558, 13.727847, 100.772423
1759228872.700463, -2.344821, 8.694693, -0.347309, 0.813129, 0.027538, -0.149228, -0.941605, 8.731857, -260.514435, 13.727847, 100.772423
1759228872.721252, -0.285808, 9.024045, 0.626533, 0.416510, 0.232901, -0.198981, -0.193176, 8.434967, -260.783844, 13.727847, 100.772423
1759228872.741281, 1.744475, 8.944438, 0.781856, 0.067990, 0.265204, -0.136518, -0.645065, 8.345047, -260.945190, 13.727847, 100.772423
1759228872.761245, 3.926491, 9.020753, -1.047164, -0.117846, 0.381394, 0.146398, -1.056549, 8.609756, -261.261688, 13.727847, 100.772423
1759228872.781175, 3.255067, 8.531438, -1.016189, -0.168547, 0.266282, 0.294988, -0.311386, 9.089600, -261.759460, 13.727847, 100.772423
1759228872.801304, 2.450914, 8.586804, -0.875081, -0.256358, 0.002497, 0.339795, -0.684738, 8.521164, -260.918579, 13.727847, 100.772423
1759228872.821202, 2.134880, 9.418191, -1.652598, -0.209596, -0.284709, 0.406085, -0.481812, 8.775497, -260.890198, 13.727847, 100.772423
1759228872.841171, 0.997634, 9.809194, -2.165256, -0.169402, -0.565994, 0.286417, -0.472977, 9.172745, -260.518890, 13.727847, 100.772423
1759228872.861168, 0.848296, 9.562441, -3.187580, -0.036892, -0.502277, 0.278506, -0.481583, 9.543625, -259.582336, 13.727847, 100.772423
1759228872.881176, 0.689081, 8.784326, -3.773711, 0.130491, -0.420079, 0.208012, -0.378143, 9.669540, -259.616943, 13.727847, 100.772423
1759228872.900700, 1.004368, 8.015338, -3.320309, 0.145945, -0.516786, 0.142298, 0.174316, 9.726852, -259.466492, 13.727847, 100.772423
1759228872.921377, 1.726219, 7.929297, -2.654122, 0.090442, -0.534206, 0.096427, -0.376785, 9.614471, -259.476837, 13.727847, 100.772423
1759228872.941198, 2.530222, 8.160187, -1.894412, 0.013914, -0.230162, 0.058337, -0.329910, 9.786285, -259.545227, 13.727847, 100.772423
1759228872.961267, 3.302801, 8.172607, -1.619827, -0.012071, -0.116558, -0.046794, -0.669540, 9.741226, -259.687836, 13.727847, 100.772423
1759228872.981198, 3.407548, 8.320300, -1.941099, -0.027447, -0.325057, -0.240886, -0.565964, 9.484695, -259.471741, 13.727847, 100.772423
1759228873.000986, 3.189226, 8.790162, -2.629282, 0.004917, -1.102078, -0.367019, -0.640656, 9.433502, -258.205322, 13.727847, 100.772423
1759228873.021182, 2.738667, 9.545981, -3.074604, 0.064098, -1.535703, -0.314989, -0.338943, 9.040756, -257.627136, 13.727847, 100.772423
1759228873.041194, 0.354791, 13.015329, -2.370260, 0.023937, -1.210679, -0.132344, -0.270248, 9.102539, -257.097809, 13.727847, 100.772423
1759228873.061239, -3.441216, 19.988292, -4.979191, -0.116902, -0.510742, 0.239809, -0.612808, 8.660751, -256.527771, 13.727847, 100.772423
1759228873.081204, 1.264887, 16.597803, -8.532635, 0.570614, 1.068612, 0.785845, -0.458282, 9.440430, -256.649414, 13.727847, 100.772423
1759228873.101028, -3.799748, 8.386888, -0.070779, 0.798852, 0.223708, 0.614925, -0.050385, 9.570145, -257.287628, 13.727847, 100.772423
1759228873.121182, -7.689727, 3.362956, 1.648707, 0.261550, -0.308100, 0.242685, -0.019836, 9.807266, -257.095947, 13.727847, 100.772423
1759228873.141190, -7.753323, 1.438766, 0.455946, -0.018264, 0.089664, -0.066956, -0.052200, 9.540817, -257.032166, 13.727847, 100.772423
1759228873.161306, -6.794894, 4.595072, 2.284517, -0.419493, 1.234617, -0.655286, -0.288773, 9.392120, -257.477539, 13.727847, 100.772423
1759228873.181250, -4.429872, 9.278729, 3.454384, -0.577239, 1.442955, -0.934265, 0.054245, 8.881470, -258.299255, 13.727847, 100.772423
1759228873.201378, -3.952677, 14.035259, 2.798522, -0.840670, 0.928357, -0.696291, -0.327454, 7.880508, -258.407196, 13.727847, 100.772423
1759228873.221216, -2.787898, 14.438233, 1.542464, -1.468287, 1.069202, -0.590825, -0.568390, 7.759155, -259.366760, 13.727847, 100.772423
1759228873.241382, 0.363619, 11.931953, 0.203956, -1.537228, 1.737957, -0.489517, -0.349045, 7.475769, -260.186890, 13.727847, 100.772423
1759228873.261239, 1.100734, 9.362226, 0.778116, -1.403388, 1.982555, -0.209691, -0.573746, 6.854141, -260.696564, 13.727847, 100.772423
1759228873.281377, -0.626982, 8.527099, 1.563563, -1.277523, 1.684095, -0.090951, -0.525543, 7.136551, -262.156799, 13.727847, 100.772423
1759228873.301365, -0.937779, 9.435249, 1.621024, -1.146766, 1.270026, -0.180876, -0.162094, 7.262360, -262.695801, 13.727847, 100.772423
1759228873.321209, -0.083348, 9.757270, 0.934487, -1.009454, 1.260449, -0.236892, -0.293762, 7.145004, -263.232422, 13.727847, 100.772423
1759228873.341201, -0.828244, 9.726893, -0.151882, -0.932818, 1.900599, -0.239485, 0.051224, 6.892258, -263.872986, 13.727847, 100.772423
1759228873.361179, -2.322525, 9.752930, 0.041450, -0.859531, 1.875179, -0.148675, -0.079681, 7.166351, -265.849548, 13.727847, 100.772423
1759228873.381186, -2.766201, 9.931747, 0.189441, -0.615775, 1.300164, -0.276673, 0.125290, 6.914383, -266.377075, 13.727847, 100.772423
1759228873.401195, -2.468572, 10.207679, 0.384569, -0.432043, 1.067565, -0.315065, 0.307022, 6.718613, -267.263580, 13.727847, 100.772423
1759228873.421344, -2.194884, 10.037391, 0.745644, -0.388904, 1.137780, -0.335983, 0.293381, 6.706665, -267.633484, 13.727847, 100.772423
1759228873.441208, -1.607407, 9.693674, 1.066617, -0.387051, 1.223130, -0.384919, 0.607452, 6.307007, -268.213806, 13.727847, 100.772423
1759228873.461388, -0.507271, 9.339930, 1.471686, -0.353930, 1.018331, -0.486022, 0.844086, 5.986816, -269.297241, 13.727847, 100.772423
1759228873.481403, 0.622044, 9.117718, 2.099715, -0.453180, 0.893671, -0.501840, 0.579498, 5.719238, -269.844727, 13.727847, 100.772423
1759228873.501253, 1.004517, 9.579201, 2.277185, -0.537436, 0.792000, -0.494452, 0.684326, 5.719879, -270.193176, 13.727847, 100.772423
1759228873.521391, 1.607557, 10.096648, 2.369960, -0.569925, 0.858653, -0.469939, 0.521652, 5.702652, -270.648560, 13.727847, 100.772423
1759228873.541408, 1.839794, 10.352229, 1.738939, -0.661500, 1.162280, -0.403775, 1.048065, 5.315536, -270.909302, 13.727847, 100.772423
1759228873.561220, 2.047192, 10.192116, 1.240795, -0.840929, 1.313630, -0.372545, 1.411377, 5.128754, -271.935547, 13.727847, 100.772423
1759228873.581262, 2.252495, 10.027066, 0.791882, -0.979471, 1.319625, -0.354540, 1.415695, 5.094864, -272.599976, 13.727847, 100.772423
1759228873.601201, 2.057816, 9.690382, 0.563386, -1.032168, 1.320813, -0.362379, 2.188431, 5.426865, -273.515015, 13.727847, 100.772423
1759228873.621208, 1.465102, 9.338733, 0.062997, -1.021445, 1.577512, -0.320213, 2.468369, 5.353455, -274.210693, 13.728206, 100.772471
1759228873.641209, 0.693570, 8.951920, -0.259023, -0.873459, 1.724190, -0.319054, 2.924545, 5.517853, -275.214539, 13.728206, 100.772471
1759228873.661181, -0.049380, 9.416395, -0.354940, -0.605362, 1.565397, -0.380880, 3.562256, 5.293747, -276.043823, 13.728206, 100.772471
1759228873.681188, -0.241665, 10.100688, -0.321870, -0.498312, 1.371358, -0.454406, 4.134689, 5.314941, -277.043396, 13.728206, 100.772471
1759228873.701198, 0.742502, 11.079916, -0.227000, -0.161235, 0.951377, -0.349222, 4.010834, 4.975983, -277.487213, 13.728206, 100.772471
1759228873.721197, 2.501791, 10.769568, -0.118513, 0.302035, 0.202965, 0.010610, 4.261688, 4.604889, -277.922546, 13.728206, 100.772471
1759228873.741225, 3.328688, 9.854085, 0.793977, 0.320264, -0.090522, 0.422978, 4.124680, 4.558197, -277.715088, 13.728206, 100.772471
1759228873.761212, 3.789423, 9.352350, 1.108216, 0.198727, 0.519125, 0.640141, 4.095917, 4.803116, -278.290405, 13.728206, 100.772471
1759228873.781206, 3.862895, 9.397391, 1.056292, 0.242478, 0.984765, 0.996845, 4.626114, 4.912964, -277.941437, 13.728206, 100.772471
1759228873.801203, 3.119196, 10.792163, 1.129016, 0.160431, 1.274766, 1.647886, 5.173950, 5.477707, -278.528381, 13.728206, 100.772471
1759228873.821282, 1.019481, 13.597719, 0.912640, -0.100748, 1.582822, 1.987676, 5.944824, 6.502197, -278.984558, 13.728206, 100.772471
1759228873.841215, -1.269825, 15.208867, 0.306009, -0.542479, 1.815729, 1.840253, 6.825897, 7.507416, -279.704376, 13.728206, 100.772471
1759228873.861367, -3.473089, 15.413870, -1.381155, -0.419498, 2.160321, 1.489880, 8.009567, 8.351608, -280.794861, 13.728206, 100.772471
1759228873.881234, -3.772364, 13.180978, -6.273557, 1.090251, 2.875624, 1.445658, 8.803314, 9.248871, -282.386230, 13.728206, 100.772471
1759228873.900431, -0.425420, 11.486332, -8.533833, 2.493655, 0.782279, 1.817196, 9.961975, 8.863159, -284.009064, 13.728206, 100.772471
1759228873.921318, -0.858022, 12.533346, -5.190330, 2.881291, -1.586691, 1.893654, 10.114044, 8.268234, -283.579437, 13.728206, 100.772471
1759228873.940707, -3.414431, 14.047829, -2.753482, 3.074649, -1.434073, 1.302951, 9.616943, 7.983932, -283.919312, 13.728206, 100.772471
1759228873.961264, -7.437737, 15.761628, -0.512210, 3.166543, -0.406732, 0.356329, 9.337219, 6.814163, -283.427490, 13.728206, 100.772471
1759228873.981242, -8.226477, 13.667151, 1.671602, 2.828590, 0.647637, -0.058468, 9.230453, 5.450073, -283.775391, 13.728206, 100.772471
1759228874.000753, -7.904158, 11.121965, 3.259556, 1.686142, 1.751627, 0.072153, 9.449478, 4.486343, -284.598755, 13.728206, 100.772471
1759228874.021264, -6.570737, 9.449914, 3.506458, 0.381553, 2.306139, 0.589877, 10.366364, 3.909851, -285.136230, 13.728206, 100.772471
1759228874.041231, -5.342661, 8.648605, 1.113004, -0.045168, 2.345192, 0.366875, 12.076340, 4.313629, -285.960754, 13.728206, 100.772471
1759228874.061317, -1.605761, 8.358158, -0.275782, 0.364981, 1.860051, 0.227848, 13.286606, 4.814941, -287.342743, 13.728206, 100.772471
1759228874.081415, 0.970400, 7.972542, 0.275184, 0.940978, 1.014864, 0.356198, 14.214478, 4.154556, -287.874725, 13.728206, 100.772471
1759228874.100953, 3.257162, 8.312967, 1.206528, 0.801938, 1.310448, 0.585584, 14.582367, 4.132751, -287.808960, 13.728206, 100.772471
1759228874.121412, 0.655562, 7.029077, 0.466720, 0.649226, 1.282338, 0.361918, 15.252747, 3.717499, -288.149231, 13.728206, 100.772471
1759228874.141278, -1.000776, 5.405060, -1.150564, 0.492767, 0.251315, 0.215910, 15.709381, 3.366714, -288.112488, 13.728206, 100.772471
1759228874.161221, -0.932093, 4.971560, -0.522385, 0.176678, -0.487429, 0.097087, 15.958694, 3.570175, -288.622864, 13.728206, 100.772471
1759228874.181421, -0.786346, 4.795586, 0.083199, -0.180925, -0.772970, -0.146616, 15.600723, 3.166214, -288.397339, 13.728206, 100.772471
1759228874.201096, -1.680730, 4.505139, 0.506823, -0.620360, -0.612765, -0.573010, 15.001434, 3.566483, -287.156311, 13.728206, 100.772471
1759228874.221256, -1.637933, 4.194043, 0.334440, -0.992498, -0.411952, -0.905159, 14.359894, 3.588699, -287.963165, 13.728206, 100.772471
1759228874.241208, -0.603488, 4.626495, 0.352397, -1.410110, -0.037606, -1.099964, 14.357147, 4.167938, -287.236145, 13.728206, 100.772471
1759228874.261391, -0.371401, 5.927594, 0.493206, -1.752554, 0.423644, -1.256064, 14.139908, 4.850235, -287.132019, 13.728206, 100.772471
1759228874.281239, -0.011223, 9.921272, -3.080440, -1.701910, 1.652130, -0.920853, 14.727463, 5.156311, -287.288391, 13.728206, 100.772471
