SamplingTime, AccelerationX, AccelerationY, AccelerationZ, GyroX, GyroY, GyroZ, MagneticFieldX, MagneticFieldY, MagneticFieldZ, Latitude, Longitude
1759315838.775137, -1.671302, -1.162086, -8.445995, 0.227252, -0.686859, 0.231488, 51.155090, -104.322067, 65.873566, , 
1759315838.794618, -2.447622, -1.212962, -7.882610, 0.273865, -0.755800, 0.476283, 51.357712, -104.416428, 64.885895, , 
1759315838.815111, -1.553987, -0.855927, -7.953837, 0.356460, -0.893189, 0.836112, 51.402771, -104.494202, 65.027435, , 
1759315838.835149, -2.058864, -2.250849, -9.674221, 0.781359, -1.167472, 0.987616, 51.743744, -104.915405, 63.955597, 13.727676, 100.772457
1759315838.855146, -1.642722, -3.509151, -9.113978, 1.046837, -1.087352, 0.805382, 51.992035, -105.345474, 63.114807, 13.727676, 100.772457
1759315838.874789, -1.538424, -2.081609, -9.380781, 1.194779, 0.781593, 0.259774, 52.245743, -105.841415, 62.464172, 13.727676, 100.772457
1759315838.894458, -1.829918, -1.887678, -8.239196, 1.610188, 2.602061, -0.424166, 52.838852, -106.304276, 62.482178, 13.727676, 100.772457
1759315838.915133, -1.643470, -2.518850, -6.705111, 2.205382, 1.877749, -0.891875, 53.073914, -106.959686, 61.552780, 13.727676, 100.772457
1759315838.935151, -1.897854, -3.729268, -8.834754, 1.202611, -1.008884, 0.100309, 52.956741, -107.404724, 60.644958, 13.727676, 100.772457
1759315838.955145, -1.359907, -5.541380, -11.685350, -0.323358, -1.082647, 1.281314, 53.294510, -107.461975, 59.717987, 13.727676, 100.772457
1759315838.975153, -1.727416, -4.529231, -11.330859, -0.342480, -0.406389, 1.009552, 53.578018, -107.672318, 60.530441, 13.727676, 100.772457
1759315838.994291, 0.302717, -3.659088, -9.598055, -0.246567, -0.793635, 0.422666, 53.657867, -107.505859, 60.184082, 13.727676, 100.772457
1759315839.015152, 0.361973, -4.082114, -9.257181, -0.683413, -0.788103, 0.077525, 53.572861, -107.395081, 60.550812, 13.727676, 100.772457
1759315839.035149, -1.684471, -3.702034, -10.554988, -0.829006, -0.179580, -0.137602, 53.374008, -107.083359, 60.890930, 13.727676, 100.772457
1759315839.055138, -2.240075, -3.032855, -10.829872, -0.375351, 0.254292, -0.084213, 53.403534, -107.054901, 61.349533, 13.727676, 100.772457
1759315839.075173, -2.037765, -3.167230, -9.966313, 0.142887, 0.546887, -0.084387, 53.398788, -107.028259, 61.574554, 13.727676, 100.772457
1759315839.095140, -1.094300, -3.779547, -9.216180, 0.234611, 0.950164, -0.053037, 53.789261, -107.178955, 61.720306, 13.727676, 100.772457
1759315839.115152, -1.885883, -3.226037, -8.437466, 0.387280, 1.565743, -0.138619, 54.161911, -107.252945, 61.207001, 13.727676, 100.772457
1759315839.135136, -2.635417, -1.586159, -10.230424, 0.427358, 2.764373, -0.070393, 55.210831, -107.495819, 61.541779, 13.727676, 100.772457
1759315839.155161, -1.362899, -2.192191, -10.175806, -0.129474, 3.677705, -0.194848, 56.147278, -107.288559, 62.526550, 13.727676, 100.772457
1759315839.175135, 0.253486, -3.726575, -9.189096, -0.321121, 4.196967, -0.564744, 56.618378, -106.753601, 63.731674, 13.727676, 100.772457
1759315839.195079, 0.823007, -2.254739, 3.659537, 0.185726, 0.013653, -0.553870, 57.046783, -107.235519, 63.940796, 13.727676, 100.772457
1759315839.215151, -0.848894, -0.101155, -5.999869, -1.664817, -0.814379, 0.081711, 56.876099, -106.702988, 64.644165, 13.727676, 100.772457
1759315839.235123, 0.616208, -0.886154, -4.500650, -2.853860, -1.245666, 0.532771, 56.949539, -106.501038, 65.222672, 13.727676, 100.772457
1759315839.255141, -0.040103, 0.934786, -8.421155, -3.762374, 0.316866, 0.783399, 57.142593, -105.723648, 68.279831, 13.727676, 100.772457
1759315839.274324, -0.307954, -0.465822, -11.577012, -3.398192, 1.853696, -0.086903, 57.252228, -105.028900, 70.310806, 13.727676, 100.772457
1759315839.294970, -0.519691, -0.696114, -13.693187, -2.406212, 3.334984, -0.883924, 57.184250, -104.344193, 72.498856, 13.727676, 100.772457
1759315839.314699, -0.658555, 0.596455, -10.868778, -1.489612, 3.288226, -0.961165, 56.928757, -104.239166, 74.499420, 13.727676, 100.772457
1759315839.335137, 0.333841, 0.486621, -8.210765, -1.034649, 2.419871, -0.841389, 56.409622, -103.940109, 75.820129, 13.727676, 100.772457
1759315839.355138, 2.021604, 0.265607, -9.365219, -0.858496, 2.464867, -0.833361, 55.997482, -103.600098, 76.868698, 13.727676, 100.772457
1759315839.375136, 3.306542, 0.654515, -10.687567, -0.876677, 3.297176, -1.102144, 55.434921, -103.422348, 78.087921, 13.727676, 100.772457
1759315839.395125, 3.916914, 0.659902, -10.124331, -1.236471, 4.401134, -1.562269, 54.504547, -103.193527, 80.276993, 13.727676, 100.772457
1759315839.415143, 5.001637, 1.601721, -8.260894, -1.876877, 4.780783, -1.620110, 53.142715, -103.057541, 82.159912, 13.727676, 100.772457
1759315839.435116, 5.694160, 3.234417, -6.765864, -1.896394, 4.331541, -1.154970, 52.130081, -103.117020, 84.166199, 13.727676, 100.772457
1759315839.454726, 6.126612, 3.538480, -5.858163, -1.582685, 3.399841, -0.602422, 51.243515, -103.069366, 85.846191, 13.727676, 100.772457
1759315839.475144, 5.768081, 1.303792, -6.429329, -0.808373, 2.704318, -0.620149, 50.236786, -103.111145, 87.045822, 13.727676, 100.772457
1759315839.495120, 6.196643, 1.093402, -6.908020, -0.182765, 2.334468, -1.033028, 49.515488, -103.067352, 87.225388, 13.727676, 100.772457
1759315839.514212, 7.792378, 2.374300, -5.725135, -0.152078, 2.062268, -1.260180, 48.092361, -103.101913, 87.523499, 13.727676, 100.772457
1759315839.535120, 9.370606, 3.588609, -4.412963, -0.577773, 1.755748, -1.060635, 47.299850, -103.043060, 87.838135, 13.727676, 100.772457
1759315839.555134, 10.159495, 3.532196, -4.270208, -0.969045, 1.764008, -0.700158, 46.557358, -103.056732, 88.675812, 13.727676, 100.772457
1759315839.574584, 10.204836, 2.286163, -4.881927, -0.974189, 1.883489, -0.509896, 46.231796, -103.156677, 89.354065, 13.727676, 100.772457
1759315839.595115, 9.374197, 1.523760, -4.981137, -0.425322, 1.863256, -0.693272, 44.731201, -103.641953, 89.350540, 13.727676, 100.772457
1759315839.615162, 9.275287, 2.932747, -3.791368, -0.121836, 1.268725, -1.109166, 44.457962, -103.363541, 89.608292, 13.727676, 100.772457
1759315839.634685, 10.173861, 4.160823, -2.721010, -0.519321, 0.493302, -1.215826, 43.657410, -103.516205, 89.689850, 13.727676, 100.772457
1759315839.655063, 11.174487, 5.539434, -2.674922, -1.092756, -0.083505, -0.706110, 43.166931, -103.686081, 90.235626, 13.727676, 100.772457
1759315839.675037, 11.049540, 6.022165, -3.788525, -1.385779, -0.246205, -0.145211, 43.096039, -104.053070, 91.076721, 13.727676, 100.772457
1759315839.694406, 10.312126, 5.616797, -5.007622, -1.581926, -0.003411, -0.016968, 43.246872, -104.487091, 91.872894, 13.727676, 100.772457
1759315839.715137, 9.493159, 4.940136, -4.987870, -1.838647, 0.236591, -0.067096, 43.028854, -104.997330, 93.369385, 13.727676, 100.772457
1759315839.735133, 8.879196, 4.917690, -5.307047, -1.871139, 0.406415, -0.000263, 42.784180, -105.722336, 94.045624, 13.727676, 100.772457
1759315839.754851, 7.818565, 5.074810, -4.593426, -1.588054, 0.216903, 0.116323, 42.552734, -106.381165, 95.271286, 13.727676, 100.772457
1759315839.774984, 7.585280, 4.725256, -5.660940, -1.409104, 0.315056, 0.017375, 42.507538, -107.015305, 96.150772, 13.727676, 100.772457
1759315839.794265, 8.180688, 4.281581, -5.991041, -1.261478, 0.591486, -0.184710, 42.190140, -107.259384, 96.421478, 13.727676, 100.772457
1759315839.815134, 8.112453, 5.066729, -5.646725, -1.115332, 0.795665, -0.352834, 41.771469, -107.842636, 97.331741, 13.727676, 100.772457
1759315839.835115, 8.444798, 4.903774, -4.849605, -0.950795, 0.722556, -0.310465, 41.238388, -108.158966, 97.807144, 13.727676, 100.772457
1759315839.854749, 8.960449, 5.246893, -4.494515, -0.711852, 0.627997, 0.018538, 40.881165, -108.242096, 97.901276, 13.727676, 100.772457
1759315839.874845, 9.851691, 4.787954, -4.452467, -0.521351, 0.624150, 0.308858, 40.799622, -108.507156, 98.576248, 13.727676, 100.772457
1759315839.895132, 9.882816, 4.029591, -3.262100, -0.294915, 0.334087, 0.524204, 40.947403, -108.533966, 98.818405, 13.727676, 100.772457
1759315839.915133, 9.506178, 4.629787, -2.289605, -0.377257, 0.212952, 0.556821, 41.229507, -108.612869, 98.939270, 13.727676, 100.772457
1759315839.935114, 9.171139, 3.344251, -2.002002, -0.876270, -0.010586, 0.659734, 41.642242, -109.147125, 99.529602, 13.727676, 100.772457
1759315839.954643, 9.039757, 3.093009, -1.997662, -1.247187, 0.007075, 0.756075, 41.953888, -109.460800, 99.484344, 13.727676, 100.772457
1759315839.974698, 8.375067, 3.938911, -2.509123, -1.511774, -0.035847, 0.957874, 42.363937, -110.054550, 100.721100, 13.727676, 100.772457
1759315839.995113, 8.083573, 1.814655, -2.000206, -1.315305, -0.125210, 0.773691, 42.983429, -110.349991, 101.552032, 13.727676, 100.772457
1759315840.015124, 7.592013, 1.597830, -2.391957, -1.008670, 0.424244, 0.475962, 43.040421, -111.001190, 101.682205, 13.727676, 100.772457
1759315840.035107, 8.360851, 3.735254, -0.323816, -1.386930, -0.446834, 0.378483, 43.650314, -111.719559, 102.369156, 13.727676, 100.772457
1759315840.054429, 8.400356, 4.572327, -0.640898, -1.562907, -0.608637, 0.702109, 43.754639, -112.203125, 102.612122, 13.727676, 100.772457
1759315840.074543, 7.654412, 3.963601, -1.033846, -1.518815, -0.255335, 0.651270, 44.390564, -112.922256, 103.570053, 13.727676, 100.772457
1759315840.095035, 5.737555, 1.976264, -4.012083, -0.685473, 0.039158, -0.031130, 44.441467, -113.197922, 103.584915, 13.727676, 100.772457
1759315840.114388, 6.215946, 3.437774, -1.277456, -1.006747, -0.358720, 0.237699, 44.725327, -113.760376, 104.077576, 13.727676, 100.772457
1759315840.135097, 7.460183, 4.179977, 0.358083, -1.668047, -0.610588, 0.362768, 45.236923, -114.654770, 105.042603, 13.727676, 100.772457
1759315840.154220, 7.304410, 4.510826, -0.214580, -2.174593, -0.503763, 0.182772, 45.527252, -115.911911, 106.153061, 13.727676, 100.772457
1759315840.174388, 9.261221, 3.800496, 0.466720, -2.592706, -0.775457, 0.372062, 46.054443, -117.593094, 107.112213, 13.727676, 100.772457
1759315840.194418, 9.900622, 5.645378, -2.467674, -1.974488, -0.037076, 0.389674, 46.002090, -118.679031, 106.821259, 13.727676, 100.772457
1759315840.215140, 9.201665, 4.333355, -3.658490, -0.301190, -0.094905, -0.035766, 46.254456, -118.984024, 107.017319, 13.727676, 100.772457
1759315840.234673, 9.677213, 5.239860, -1.283891, -0.556007, -0.424899, 0.295570, 46.566956, -119.451157, 108.078537, 13.727676, 100.772457
1759315840.254126, 9.553613, 5.683236, -1.267431, -0.801894, -0.288826, 0.338741, 46.678574, -119.832062, 107.418488, 13.727676, 100.772457
1759315840.274239, 8.433426, 4.829105, -1.125424, -0.673983, 0.102545, 0.032703, 46.420685, -120.179657, 107.706451, 13.727676, 100.772457
1759315840.294165, 7.646033, 3.673753, -0.378433, -0.671257, 0.223904, 0.066292, 46.313400, -120.578079, 107.802109, 13.727676, 100.772457
1759315840.315128, 6.645705, 4.053234, -1.368436, -0.289715, 0.098242, 0.447423, 46.633896, -120.973846, 107.870483, 13.727676, 100.772457
1759315840.334533, 7.619996, 4.203769, -1.628955, -0.526419, 0.151850, 0.699179, 46.623871, -121.236938, 108.204651, 13.727676, 100.772457
1759315840.355120, 9.135226, 2.738667, -1.683273, -0.673104, 0.775571, 0.198240, 46.057800, -121.626373, 108.067459, 13.727676, 100.772457
1759315840.375115, 7.813327, 2.478148, -1.339556, -0.922967, 0.833370, -0.071747, 45.728180, -122.325974, 108.404495, 13.727676, 100.772457
1759315840.395098, 8.373421, 6.083367, -0.789338, -0.640877, 0.780991, -0.191845, 45.164627, -122.880676, 108.839844, 13.727676, 100.772457
1759315840.415106, 9.954043, 7.471106, 0.962170, -0.628790, 0.506423, -0.150260, 44.746445, -123.264160, 108.741135, 13.727676, 100.772457
1759315840.434209, 10.685172, 5.866842, 0.768389, -1.075301, 0.337199, -0.104223, 44.434891, -124.173141, 109.761932, 13.727676, 100.772457
1759315840.455106, 12.778752, 4.270657, 2.376245, -0.978397, -0.042957, 0.344529, 44.321533, -124.890411, 109.113098, 13.727676, 100.772457
1759315840.475109, 9.963321, 4.063409, -2.319981, 0.094305, 0.624404, 0.339347, 44.324875, -124.870407, 108.993851, 13.727676, 100.772457
1759315840.495098, 9.986365, 5.032911, 1.520468, 0.003933, 0.798038, 0.590898, 43.625381, -124.793701, 109.993103, 13.727676, 100.772457
1759315840.515113, 6.911761, 3.096900, 0.805948, 0.354285, 0.885008, 0.692628, 43.291153, -124.468079, 109.354797, 13.727676, 100.772457
1759315840.535090, 4.596718, 0.914136, 1.551892, 0.393611, 0.211276, 0.039185, 43.172577, -124.281586, 109.942978, 13.727676, 100.772457
1759315840.555103, 3.302203, 2.157176, 1.144877, 0.023206, -0.119619, -0.251764, 43.310974, -124.234344, 108.994461, 13.727676, 100.772457
1759315840.575101, 6.234351, 3.456928, 0.375141, 0.183673, -0.393625, -0.201623, 43.275391, -124.187744, 108.941574, 13.727676, 100.772457
1759315840.594733, 7.336582, 1.839495, -1.430835, 0.216506, -0.229252, -0.426365, 43.737671, -124.260208, 109.158035, 13.727676, 100.772457
1759315840.615118, 7.577199, 2.677316, -1.721880, 0.611891, 0.292377, -1.081665, 43.328766, -124.082855, 108.934250, 13.727676, 100.772457
1759315840.635137, 6.366481, 3.301454, -1.268927, 0.750500, 0.398900, -1.790905, 42.809540, -123.732269, 109.581787, 13.727676, 100.772457
1759315840.655109, 6.613234, 7.387459, 2.731784, 1.143205, -1.113888, -1.911790, 42.506897, -123.400085, 108.373581, 13.727676, 100.772457
1759315840.675086, 5.336077, 7.478139, 3.337367, 0.756210, -2.411152, -2.342253, 43.359528, -122.519638, 108.864029, 13.727676, 100.772457
1759315840.695090, 4.700416, 2.643797, 3.006818, -1.606857, -2.244921, -3.142693, 44.013824, -122.931717, 108.252335, 13.727676, 100.772457
1759315840.714743, 8.834604, 8.005163, 1.736694, -2.617192, -1.545350, -2.018603, 44.812576, -124.401199, 108.956161, 13.727676, 100.772457
1759315840.735121, 14.359374, 10.820744, -0.936432, -1.947801, -0.129608, -0.156922, 44.909058, -125.701675, 110.137802, 13.727676, 100.772457
1759315840.754729, 15.498116, 7.139659, -3.190723, 0.222456, -0.067101, 0.499661, 44.863235, -126.284821, 109.400146, 13.727676, 100.772457
1759315840.774936, 10.017340, 4.213945, -2.224064, 0.791330, 0.423772, -1.014890, 44.292542, -125.739929, 109.072693, 13.727676, 100.772457
1759315840.794497, 8.723124, 1.280748, -1.009455, 0.203451, 0.926141, -1.436243, 43.467865, -125.560638, 109.322113, 13.727676, 100.772457
1759315840.815131, 6.099977, 0.674267, -0.401178, -0.420435, 1.087951, -1.984773, 42.464157, -125.609497, 109.016174, 13.727676, 100.772457
1759315840.835119, 6.980594, 3.869778, -0.798167, -0.544633, 0.808528, -2.115939, 41.279221, -125.898605, 110.384079, 13.727676, 100.772457
1759315840.855117, 2.168548, -2.792537, -0.948104, -0.787822, 0.646592, -2.706311, 40.742844, -126.721268, 109.068237, 13.727676, 100.772457
1759315840.874757, 4.666898, 4.592528, 0.089633, -1.626897, 1.332014, -3.112550, 39.593597, -128.138367, 108.911926, 13.727676, 100.772457
1759315840.895089, 4.373309, 7.637952, 0.491859, -1.163664, 2.028132, -3.326835, 37.970108, -129.523895, 109.874222, 13.727676, 100.772457
1759315840.915120, 3.299808, 11.732636, 0.618003, -0.077020, 1.980745, -3.106865, 36.584015, -130.473297, 108.990448, 13.727676, 100.772457
1759315840.935121, 1.880945, 18.052430, 3.961356, 1.159359, 0.007465, -1.765508, 36.164398, -130.427094, 109.324646, 13.727676, 100.772457
1759315840.955102, 6.300791, 19.179800, -0.291793, 0.426192, -0.273531, -0.435954, 36.376770, -129.960739, 108.857330, 13.727676, 100.772457
1759315840.974569, 3.391387, 11.040711, 1.948132, -0.345264, 0.024774, 0.410829, 36.026047, -129.824371, 108.633652, 13.727676, 100.772457
1759315840.995090, 3.834913, 7.990648, 0.455946, -0.207995, 0.033881, 0.414083, 35.997742, -129.690720, 109.269608, 13.727676, 100.772457
1759315841.015117, 4.120271, 6.668899, 1.627010, -0.160460, 0.180737, 0.519994, 35.739990, -129.584015, 108.848907, 13.727676, 100.772457
1759315841.034441, 5.434090, 3.676297, 3.248932, -0.084826, -0.496991, 0.257722, 36.180679, -129.662552, 109.976364, 13.727676, 100.772457
1759315841.055096, 4.735132, 5.468207, 0.849642, 0.275411, -0.389828, 0.059760, 36.493057, -129.644196, 109.003845, 13.727676, 100.772457
1759315841.074399, 4.495563, 5.211130, 0.323367, 0.370153, -0.212223, -0.304345, 36.666138, -129.477692, 110.298737, 13.727676, 100.772457
1759315841.095087, 4.473566, 4.521300, 0.395492, 0.176226, 0.222468, -1.092627, 36.448532, -129.348846, 109.237320, 13.727676, 100.772457
1759315841.115116, 3.444059, 5.026926, 1.736844, -0.078587, -0.099112, -1.474860, 36.340561, -129.538452, 109.226547, 13.727676, 100.772457
1759315841.135114, 3.047220, 5.607819, 1.088614, 0.245200, 0.032101, -1.774417, 36.129410, -129.778961, 110.003189, 13.727676, 100.772457
1759315841.155095, 2.271499, 5.324256, 2.072780, 0.727420, -0.084657, -2.070987, 36.033417, -130.033569, 108.960403, 13.727676, 100.772457
1759315841.174252, 1.974468, 4.205415, 3.746626, 1.217053, -0.394801, -2.381483, 36.209747, -129.857071, 109.841431, 13.727676, 100.772457
1759315841.195087, 1.259200, 5.019743, 1.683273, 0.869997, -0.421900, -2.463545, 35.509506, -129.307037, 108.731445, 13.727676, 100.772457
1759315841.215099, 0.046088, 3.618686, 3.408296, 1.281654, -2.347061, -2.738339, 36.523224, -129.109680, 108.858124, 13.727676, 100.772457
1759315841.235089, -0.726640, 3.460220, 1.140388, 0.192737, -3.149262, -2.808959, 38.396118, -129.292252, 109.802200, 13.727676, 100.772457
1759315841.255111, 0.022595, 7.101950, -0.371849, -1.499741, -3.249871, -2.905790, 40.950241, -131.082489, 108.883453, 13.727676, 100.772457
1759315841.275114, 2.726696, 36.548985, -1.374421, -2.662153, -3.892148, -4.623459, 43.354431, -133.108795, 108.791153, 13.727676, 100.772457
1759315841.295086, -0.827047, 27.329213, 1.546355, -2.098121, -4.618133, -4.582186, 45.487061, -134.124573, 109.262772, 13.727676, 100.772457
1759315841.314429, -3.038092, 15.308077, 3.939210, -0.559845, -6.004574, -2.083437, 48.707428, -133.964340, 109.340347, 13.727676, 100.772457
1759315841.335119, -3.725677, 7.662493, 3.251775, 0.758233, -6.798982, -0.093804, 52.835236, -133.208664, 108.388443, 13.727676, 100.772457
1759315841.355097, -2.865859, 5.208436, 0.574459, 1.802178, -5.734381, 0.642472, 56.584488, -132.542755, 106.373413, 13.727676, 100.772457
1759315841.375042, -1.548151, 7.777714, -1.992425, 1.784123, -1.795798, 0.084997, 58.339127, -131.700424, 105.239792, 13.727676, 100.772457
1759315841.395090, -0.534655, 8.181436, -0.276830, 0.107706, 1.082011, -0.547092, 57.734940, -131.042953, 106.978607, 13.727676, 100.772457
1759315841.415168, -0.329352, 8.217798, 1.364994, -0.874874, 1.549117, -0.457435, 56.728424, -131.617249, 106.550598, 13.727676, 100.772457
1759315841.434655, -1.103727, 8.034941, 1.667113, -1.129262, 1.945082, -0.060163, 55.377899, -132.337601, 107.729691, 13.727676, 100.772457
1759315841.455096, -1.696142, 11.590630, 4.012233, -0.649423, 2.044996, 0.820303, 54.278488, -132.974899, 107.510254, 13.727676, 100.772457
1759315841.474909, -0.898873, 10.977415, 4.277840, -0.591648, 1.194672, 1.113902, 53.514450, -133.570328, 107.626297, 13.727676, 100.772457
1759315841.495083, -1.003919, 9.950601, 1.028310, -0.286880, 0.783886, 0.681601, 53.046677, -133.671143, 108.608948, 13.727676, 100.772457
1759315841.515115, -1.531541, 9.581894, -1.156250, 1.223660, 1.296552, 0.031298, 52.389694, -132.874481, 108.228058, 13.727676, 100.772457
1759315841.535096, -1.153556, 8.897302, 0.377386, 1.667351, 1.436233, -0.181485, 51.506332, -131.984009, 108.977463, 13.727676, 100.772457
1759315841.555095, -0.717363, 9.617358, 0.786645, 1.206424, 1.309796, -0.071141, 50.697906, -131.260132, 108.522430, 13.727676, 100.772457
1759315841.574744, -0.328455, 10.274118, 0.109984, 0.324229, 1.261740, 0.142073, 50.153549, -131.043732, 109.583084, 13.727676, 100.772457
1759315841.595081, 0.117765, 10.104279, -0.661099, -0.246294, 1.251868, 0.402481, 49.540359, -130.977127, 109.191498, 13.727676, 100.772457
1759315841.614420, 0.313192, 9.930101, -0.740257, -0.115271, 1.265510, 0.576036, 48.551208, -131.312332, 108.883621, 13.727676, 100.772457
1759315841.635115, 0.255731, 9.170989, -0.069881, -0.030001, 1.243235, 0.485685, 47.898239, -131.240204, 110.089417, 13.727676, 100.772457
1759315841.655106, 0.437391, 8.813206, 1.057938, -0.107746, 0.986319, 0.269021, 47.008652, -131.565933, 109.433411, 13.727676, 100.772457
1759315841.674558, 0.760309, 9.540894, 2.103306, -0.091616, 0.157136, 0.165192, 46.772781, -131.541031, 110.124664, 13.727676, 100.772457
1759315841.695081, 0.801309, 9.869348, 2.048988, -0.025806, -0.772184, 0.080085, 47.157471, -131.672806, 109.594009, 13.727676, 100.772457
1759315841.715122, 0.720505, 9.858574, 1.157148, -0.002882, -1.288339, -0.042219, 48.106232, -131.589859, 108.967194, 13.727676, 100.772457
1759315841.735111, 0.353145, 9.718663, 0.429909, -0.040172, -1.287300, -0.129421, 48.790329, -131.799774, 110.036438, 13.727676, 100.772457
1759315841.754147, -0.086491, 9.812935, 0.078410, -0.079177, -0.905798, -0.074367, 49.460373, -131.837112, 109.007080, 13.727676, 100.772457
1759315841.774384, -0.479140, 9.353847, 0.336535, -0.110588, -0.423441, -0.061546, 49.648132, -131.875885, 108.972244, 13.727676, 100.772457
1759315841.795078, -0.799663, 9.309255, 0.941520, -0.160955, -0.051329, -0.077804, 49.855499, -131.921539, 108.708252, 13.727676, 100.772457
1759315841.815095, -0.983568, 9.803807, 1.554435, -0.155368, 0.119857, 0.018697, 49.696136, -131.981003, 108.893021, 13.727676, 100.772457
1759315841.834982, -0.678756, 9.739014, 1.883189, -0.070954, 0.118645, 0.097368, 49.786148, -132.015778, 109.075165, 13.727676, 100.772457
1759315841.854991, -0.268450, 9.579201, 1.422305, 0.023833, 0.028803, 0.005236, 49.626297, -132.095245, 108.406662, 13.727676, 100.772457
1759315841.874221, -0.121506, 9.862315, 0.745046, 0.123885, 0.095071, 0.015724, 49.609344, -131.960922, 108.300598, 13.727676, 100.772457
1759315841.895080, 0.002245, 9.934889, 0.480337, 0.213037, 0.254898, 0.081500, 49.480637, -131.953522, 109.308792, 13.727676, 100.772457
1759315841.915108, 0.054917, 9.781810, 0.568324, 0.238719, 0.343924, 0.101996, 49.241180, -131.759872, 108.777176, 13.727676, 100.772457
1759315841.934793, 0.075118, 9.475502, 0.705990, 0.228823, 0.275586, 0.097521, 49.241196, -131.520752, 109.670059, 13.727676, 100.772457
1759315841.954871, 0.017059, 9.346664, 0.672920, 0.206536, 0.107454, 0.048432, 49.079468, -131.464096, 108.452988, 13.727676, 100.772457
1759315841.975100, -0.119860, 9.603292, 0.529268, 0.147503, -0.060355, -0.004345, 48.995102, -131.372604, 108.820236, 13.727676, 100.772457
1759315841.995078, -0.100556, 9.754875, 0.347010, 0.069336, -0.157338, -0.010358, 49.132034, -131.219971, 109.763596, 13.727676, 100.772457
1759315842.015107, 0.106692, 9.616161, 0.396989, 0.026246, -0.184007, 0.002096, 49.144760, -131.245819, 108.778351, 13.727676, 100.772457
1759315842.034644, 0.212635, 9.543886, 0.687585, -0.018109, -0.191367, 0.019905, 49.342010, -131.110916, 109.404068, 13.727676, 100.772457
1759315842.054680, 0.077961, 9.603143, 0.955436, -0.092743, -0.216804, 0.028644, 49.541962, -131.273010, 109.001999, 13.727676, 100.772457
1759315842.075096, 0.070030, 9.799916, 1.009306, -0.095015, -0.314447, 0.087120, 49.669312, -131.157150, 109.742355, 13.727676, 100.772457
1759315842.095074, 0.001646, 9.693225, 0.671574, -0.080707, -0.326354, 0.070714, 49.956467, -131.097977, 109.067642, 13.727676, 100.772457
1759315842.115105, -0.226551, 9.706842, 0.380977, -0.072220, -0.064430, 0.029418, 50.014328, -131.205170, 109.025940, 13.727676, 100.772457
1759315842.134487, -0.379930, 9.532065, 0.365565, 0.036153, 0.260926, 0.012713, 49.755310, -131.287369, 109.900558, 13.727676, 100.772457
1759315842.154529, -0.423175, 9.521890, 0.803704, 0.113661, 0.363115, -0.015417, 49.694901, -131.255508, 109.035385, 13.727676, 100.772457
1759315842.175104, -0.201263, 9.696367, 1.316362, 0.114622, 0.146687, -0.013748, 49.557007, -131.060989, 110.016693, 13.727676, 100.772457
1759315842.194381, 0.319476, 9.740211, 1.336114, 0.081847, -0.133540, 0.027514, 49.663376, -131.109711, 108.891006, 13.727676, 100.772457
1759315842.214194, -0.091129, 9.387814, 0.797120, 0.041781, -0.111198, -0.005458, 49.880234, -131.008926, 109.080353, 13.727676, 100.772457
1759315842.234330, -0.227150, 9.392603, 0.587028, 0.027719, 0.149646, 0.028017, 49.645508, -131.185471, 109.601089, 13.727676, 100.772457
1759315842.254375, -0.261866, 9.557803, 0.951246, -0.000757, 0.389879, 0.013718, 49.407333, -131.165054, 109.075455, 13.727676, 100.772457
1759315842.275094, -0.157419, 9.703999, 1.207127, 0.002136, 0.370855, 0.014091, 48.882248, -131.466293, 108.888077, 13.727676, 100.772457
1759315842.295073, 0.004190, 9.668235, 1.105373, 0.031912, 0.228148, 0.011537, 48.786011, -131.166992, 109.283188, 13.727676, 100.772457
1759315842.315102, 0.121206, 9.710732, 0.870592, 0.055300, 0.096708, -0.006800, 48.548462, -131.277420, 109.343872, 13.727676, 100.772457
1759315842.334178, 0.099808, 9.677064, 0.709432, 0.011903, 0.017526, -0.017461, 48.753738, -131.330505, 109.722900, 13.727676, 100.772457
1759315842.354211, -0.013168, 9.568577, 0.628029, -0.076501, 0.006927, -0.001175, 48.768692, -131.187485, 109.092773, 13.727676, 100.772457
1759315842.375093, -0.099359, 9.393800, 0.689231, -0.130317, 0.024647, 0.009716, 48.534088, -131.455124, 108.686996, 13.727676, 100.772457
1759315842.395071, -0.075567, 9.318532, 0.628478, -0.117327, 0.073298, -0.003331, 48.741318, -131.522293, 109.601913, 13.727676, 100.772457
1759315842.415158, 0.079757, 9.592219, 0.432902, -0.038653, 0.166987, -0.032403, 48.449097, -131.651276, 108.620636, 13.727676, 100.772457
1759315842.435097, 0.291943, 9.772533, 0.223708, 0.049127, 0.267681, -0.043523, 48.377518, -131.371277, 110.077393, 13.727676, 100.772457
1759315842.455101, 0.480187, 9.726744, 0.309451, 0.032297, 0.307059, 0.024045, 48.149948, -131.284561, 109.169968, 13.727676, 100.772457
1759315842.475099, 0.565181, 9.642049, 0.464924, -0.112000, 0.226328, 0.089887, 47.992996, -131.573685, 108.988678, 13.727676, 100.772457
1759315842.495072, 0.651073, 9.781810, 0.356287, -0.206623, 0.050248, 0.133673, 48.161255, -131.697083, 109.650146, 13.727676, 100.772457
1759315842.515083, 0.655263, 9.938032, 0.101604, -0.107594, -0.132113, 0.109517, 48.001236, -131.724472, 109.185608, 13.727676, 100.772457
1759315842.534569, 0.589871, 9.887005, 0.017358, -0.003269, -0.296115, -0.011431, 48.405609, -131.629562, 109.831924, 13.727676, 100.772457
1759315842.555091, -0.010924, 9.973646, 0.125845, -0.087906, -0.393867, 0.008935, 48.808792, -131.672226, 108.972488, 13.727676, 100.772457
1759315842.574319, -0.461183, 9.539248, 0.205452, -0.215543, -0.339519, 0.022274, 48.884781, -131.649094, 109.963806, 13.727676, 100.772457
1759315842.595069, -0.728286, 9.498247, 0.427515, -0.193672, -0.217989, -0.011293, 49.017853, -131.659561, 109.177444, 13.727676, 100.772457
1759315842.615096, -0.833182, 9.755025, 0.656161, -0.079924, -0.080628, -0.008918, 48.904053, -131.767990, 109.250305, 13.727676, 100.772457
1759315842.635097, -0.620547, 9.771635, 0.907253, 0.015090, 0.045419, 0.005545, 49.085114, -131.836227, 109.610840, 13.727676, 100.772457
1759315842.654536, -0.220566, 9.663746, 1.124676, 0.043327, 0.112744, -0.023378, 49.088440, -131.706528, 109.063889, 13.727676, 100.772457
1759315842.675094, 0.118812, 9.617358, 1.140388, 0.012514, 0.074794, -0.002704, 49.148361, -131.588242, 110.319595, 13.727676, 100.772457
1759315842.694225, 0.291943, 9.633519, 0.824204, -0.015592, 0.100384, 0.029959, 48.933624, -131.661469, 109.295624, 13.727676, 100.772457
1759315842.715094, 0.342820, 9.717167, 0.603788, 0.019932, 0.197930, 0.044063, 48.839874, -131.726334, 109.276962, 13.727676, 100.772457
1759315842.735096, 0.319476, 9.852888, 0.718111, 0.057747, 0.237395, 0.063346, 48.719513, -131.828796, 110.199631, 13.727676, 100.772457
1759315842.755104, 0.187047, 9.644144, 0.931644, 0.025405, 0.142457, 0.085016, 48.585983, -131.901901, 109.202316, 13.727676, 100.772457
1759315842.775093, -0.075717, 9.356390, 0.870292, -0.031557, 0.114974, 0.073348, 48.434067, -132.150070, 109.245377, 13.727676, 100.772457
1759315842.794601, -0.299574, 9.259725, 0.841562, -0.047853, 0.184733, 0.052503, 48.173004, -131.954559, 110.076797, 13.727676, 100.772457
1759315842.815105, -0.375141, 9.515006, 0.899472, -0.019755, 0.245093, 0.035120, 47.983490, -132.018723, 109.759857, 13.727676, 100.772457
1759315842.835089, -0.054019, 9.835680, 0.961122, 0.018886, 0.159865, -0.006742, 47.995438, -132.024460, 110.129318, 13.727676, 100.772457
1759315842.854988, 0.401777, 9.780463, 0.725593, 0.056550, 0.006199, -0.016078, 48.112167, -132.027832, 109.345642, 13.727676, 100.772457
1759315842.875088, 0.563834, 9.389610, 0.798017, 0.009875, -0.175967, -0.016444, 48.184647, -131.943222, 109.269608, 13.727676, 100.772457
1759315842.895067, 0.477643, 9.750087, 1.080084, -0.141373, -0.324975, -0.015932, 48.381836, -132.344162, 110.247681, 13.727676, 100.772457
1759315842.915089, 0.450260, 9.745299, 1.039084, -0.193127, -0.403729, 0.044067, 48.779877, -132.100662, 109.078278, 13.727676, 100.772457
1759315842.935095, 0.417339, 9.606734, 0.770783, -0.100607, -0.276920, 0.061488, 48.998657, -132.137222, 109.924057, 13.727676, 100.772457
1759315842.954846, 0.275483, 9.559748, 0.824054, -0.010962, -0.024298, 0.060060, 48.883682, -132.269135, 109.039795, 13.727676, 100.772457
1759315842.975083, 0.111779, 9.330802, 1.059285, -0.035919, 0.061901, 0.062993, 48.860672, -132.333878, 109.271057, 13.727676, 100.772457
1759315842.995065, -0.030526, 9.188796, 1.123928, -0.080054, 0.019691, 0.033949, 48.853317, -132.164398, 109.932083, 13.727676, 100.772457
1759315843.015076, 0.002993, 9.395147, 1.271920, -0.093387, -0.054797, -0.002530, 48.867386, -132.435822, 109.113449, 13.727676, 100.772457
1759315843.034755, 0.252888, 9.544335, 1.573140, -0.108468, -0.216568, -0.012491, 48.927597, -132.366989, 109.759079, 13.727700, 100.772460
1759315843.054735, 0.447416, 9.551817, 1.596933, -0.154717, -0.373733, -0.024378, 49.179382, -132.506836, 109.772324, 13.727700, 100.772460
1759315843.075095, 0.581043, 9.020604, 1.519420, -0.201021, -0.428981, -0.040839, 49.623245, -132.487564, 110.260635, 13.727700, 100.772460
1759315843.095063, 0.639102, 9.152734, 1.490091, -0.204582, -0.434781, -0.054840, 49.992340, -132.439758, 108.971741, 13.727700, 100.772460
1759315843.114722, 0.647033, 10.036044, 1.516128, -0.187131, -0.364313, -0.067150, 50.265244, -132.701324, 108.532028, 13.727700, 100.772460
1759315843.135083, 0.534356, 10.839898, 1.613991, -0.180398, -0.345631, 0.040780, 50.342850, -132.866302, 109.450516, 13.727700, 100.772460
1759315843.154590, 0.451307, 10.855460, 1.398812, -0.290622, -0.377435, 0.215040, 50.755722, -133.037155, 108.535736, 13.727700, 100.772460
1759315843.174305, 0.448913, 10.338761, 0.605883, -0.399431, -0.351833, 0.327060, 50.891205, -133.430649, 109.481720, 13.727700, 100.772460
1759315843.194940, 0.124498, 9.649830, -1.033397, 0.023185, 0.010298, 0.363651, 51.052811, -133.372879, 108.828384, 13.727700, 100.772460
1759315843.215092, -0.199916, 9.158121, -1.281197, 0.340564, 0.620766, 0.203199, 50.543549, -133.313293, 109.272232, 13.727700, 100.772460
1759315843.235084, -0.211588, 9.464429, -0.689530, 0.204807, 1.115246, 0.149639, 49.697876, -133.319824, 110.096054, 13.727700, 100.772460
1759315843.254428, 0.131681, 9.863812, 0.153827, -0.005333, 1.203606, 0.248826, 48.812332, -133.402023, 109.454773, 13.727700, 100.772460
1759315843.275088, 0.285359, 10.013898, 0.607978, -0.098396, 0.993614, 0.292093, 48.070831, -133.728577, 109.452148, 13.727700, 100.772460
1759315843.294096, 0.439336, 9.563040, 0.656460, -0.150682, 0.722471, 0.267817, 47.569138, -133.653473, 110.188980, 13.727700, 100.772460
1759315843.314422, 0.545579, 9.426720, 0.853234, -0.216408, 0.468345, 0.182235, 47.494156, -133.857620, 109.648300, 13.727700, 100.772460
1759315843.334224, 0.699556, 9.585336, 0.992247, -0.243856, 0.167156, 0.161236, 47.524353, -133.844086, 110.468521, 13.727700, 100.772460
1759315843.354269, 0.806696, 9.602844, 0.963517, -0.270743, -0.110100, 0.207820, 47.280716, -134.134003, 109.295593, 13.727700, 100.772460
1759315843.375087, 0.812383, 9.170989, 0.588525, -0.308074, -0.198521, 0.243522, 47.660629, -134.442657, 109.385620, 13.727700, 100.772460
1759315843.395062, 0.580744, 8.965387, -0.050578, -0.298467, 0.160396, 0.266140, 47.694855, -134.764313, 110.208054, 13.727700, 100.772460
1759315843.415089, 0.222361, 9.207501, -0.296731, -0.281119, 0.354793, 0.275242, 47.386658, -134.803268, 109.560455, 13.727700, 100.772460
1759315843.434886, -0.089783, 9.362077, -0.232387, -0.253463, 0.720903, 0.280138, 46.817978, -135.135483, 110.730103, 13.727700, 100.772460
1759315843.454094, -0.235081, 9.314642, -0.161160, -0.176833, 0.965610, 0.215761, 46.061859, -135.361557, 109.966232, 13.727700, 100.772460
1759315843.474211, -0.168342, 9.365818, -0.200664, -0.058000, 1.016115, 0.054882, 45.792953, -135.244202, 110.755356, 13.727700, 100.772460
1759315843.495058, 0.410606, 9.573515, -0.364667, -0.003756, 1.005754, -0.083274, 45.242752, -135.365982, 109.870956, 13.727700, 100.772460
1759315843.514548, 0.597802, 9.629778, -0.340426, -0.078462, 1.038711, -0.047941, 44.561600, -135.447144, 109.773590, 13.727700, 100.772460
1759315843.535115, 0.869694, 9.173084, 0.408960, -0.493059, 1.007419, 0.049809, 43.866501, -135.852829, 110.457214, 13.727700, 100.772460
1759315843.555059, 1.099687, 9.486126, 0.696413, -0.560141, 0.742382, 0.077391, 43.141083, -136.300369, 109.963669, 13.727700, 100.772460
1759315843.575064, 1.410185, 10.495282, 0.240318, -0.324912, 0.412715, 0.055190, 43.060120, -136.468964, 111.139008, 13.727700, 100.772460
1759315843.595056, 1.525705, 11.426926, -0.332195, -0.034592, 0.292755, -0.045451, 42.986633, -136.655075, 109.852631, 13.727700, 100.772460
1759315843.615074, 1.342100, 11.818528, 0.264559, -0.095799, 0.340209, -0.247065, 42.843185, -136.756119, 110.010376, 13.727700, 100.772460
1759315843.635066, 0.926107, 13.610139, 1.501613, -0.363233, 0.241772, -0.197060, 42.736908, -137.178665, 110.545898, 13.727700, 100.772460
1759315843.654934, 0.745644, 16.745795, 2.728492, -0.647779, -0.097306, 0.011755, 42.613159, -137.695435, 109.722687, 13.727700, 100.772460
1759315843.675133, 1.439813, 17.738490, 3.616591, -0.611970, -0.662937, 0.228708, 42.813583, -138.241013, 109.420563, 13.727700, 100.772460
1759315843.695055, 2.541595, 16.911593, 3.645322, -0.203034, -1.268981, 0.273049, 43.709808, -138.483444, 109.552551, 13.727700, 100.772460
1759315843.715087, 3.424606, 16.167146, 2.135478, 0.207948, -1.379482, 0.010237, 44.460464, -138.365891, 109.439941, 13.727700, 100.772460
1759315843.735081, 1.946486, 14.289194, 0.255431, 0.525392, -0.282189, -0.385693, 44.927322, -138.259308, 110.216721, 13.727700, 100.772460
1759315843.754788, -0.389656, 12.670863, -2.634819, 1.673126, 1.714868, -0.677200, 44.169403, -137.564865, 109.450638, 13.727700, 100.772460
1759315843.775085, -1.300201, 11.183765, -1.427543, 3.063952, 3.391598, -1.195234, 42.110214, -135.863953, 109.681335, 13.727700, 100.772460
1759315843.795053, -1.998859, 10.942699, -0.470461, 3.954863, 4.207026, -1.495593, 39.210052, -133.464584, 110.342010, 13.727700, 100.772460
1759315843.815083, -1.999458, 12.108076, 0.116867, 4.818086, 4.268164, -1.286689, 36.099442, -130.771774, 108.712280, 13.727700, 100.772460
1759315843.835083, -2.376993, 13.204920, 1.176750, 4.910334, 3.471648, -0.843744, 33.674042, -127.742798, 108.724274, 13.727700, 100.772460
1759315843.855080, -2.363227, 11.310807, 4.455759, 3.497590, 1.011705, -0.479139, 32.545319, -125.550568, 107.255035, 13.727700, 100.772460
1759315843.875082, -1.859547, 8.335862, 1.502212, 2.114019, -0.225234, -0.283157, 32.344025, -124.216034, 107.271149, 13.727700, 100.772460
1759315843.895055, 0.959626, 8.638429, -0.786196, 2.210983, -0.035927, 0.377602, 32.392838, -122.749115, 107.073212, 13.727700, 100.772460
1759315843.915074, 3.054552, 10.158448, -2.142362, 3.058245, 0.723151, 1.624484, 32.319229, -120.771652, 105.911346, 13.727700, 100.772460
1759315843.935079, 2.611924, 7.576002, 1.473481, 3.657122, 0.393875, 2.210487, 32.637222, -117.975204, 105.624847, 13.727700, 100.772460
1759315843.954645, 2.149245, 4.969914, 3.510947, 3.811007, -2.400376, 1.659112, 34.472397, -115.300247, 103.588028, 13.727700, 100.772460
1759315843.975089, -0.176423, 4.517859, 0.560991, 3.839016, -4.544702, 1.368923, 37.388351, -112.987808, 103.042511, 13.727700, 100.772460
1759315843.995058, -1.972972, 5.064634, 0.560991, 3.909975, -5.268509, 1.159729, 40.653336, -111.086533, 102.125183, 13.727700, 100.772460
1759315844.014954, -3.229030, 5.906645, -3.098695, 3.972102, -3.297686, 0.802034, 41.838181, -110.190475, 101.005692, 13.727700, 100.772460
1759315844.035078, -3.156905, 4.151695, -4.635773, 3.368561, -1.053756, 0.913146, 43.083923, -108.395065, 99.597122, 13.727700, 100.772460
1759315844.055084, -2.660856, 3.612850, -5.004630, 2.463541, -1.106644, 0.724644, 44.106644, -107.234100, 97.276291, 13.727700, 100.772460
1759315844.075080, -1.502062, 4.749647, -5.034108, 1.869892, -1.332775, 0.549090, 44.820999, -106.373489, 96.705811, 13.727700, 100.772460
1759315844.095051, -0.994641, 4.791246, -4.898836, 1.385157, -1.226988, 0.325157, 45.743881, -105.652695, 95.032471, 13.727700, 100.772460
1759315844.114819, -1.462857, 3.887585, -5.511003, 0.902987, -0.938200, 0.199442, 46.370834, -105.296402, 94.200958, 13.727700, 100.772460
1759315844.134931, -2.145205, 2.311302, -6.321740, 0.214537, -0.323559, 0.129333, 46.654327, -105.325058, 94.936096, 13.727700, 100.772460
1759315844.154105, -2.049287, 2.007239, -6.484097, -0.525307, 0.011140, 0.085341, 46.774536, -105.361313, 94.107971, 13.727700, 100.772460
1759315844.175075, -1.165228, 2.465429, -6.631639, -1.077609, 0.167068, 0.035460, 46.725296, -105.750015, 95.793564, 13.727700, 100.772460
1759315844.195050, -0.847398, 3.357718, -7.221062, -1.580768, 0.362661, 0.048903, 46.682312, -106.384048, 95.823242, 13.727700, 100.772460
1759315844.214598, -1.001524, 4.150947, -8.398411, -2.185273, 0.625463, 0.025738, 46.602737, -107.272125, 97.105591, 13.727700, 100.772460
1759315844.234777, -1.052102, 5.696853, -9.971102, -2.852690, 0.725905, -0.037351, 46.503021, -108.629257, 99.682922, 13.727700, 100.772460
1759315844.255074, 0.155174, 8.957008, -13.569736, -2.556579, 1.918069, -0.044053, 45.857147, -110.265396, 100.153732, 13.727700, 100.772460
1759315844.275077, -1.556680, 12.653805, -8.828319, -1.613938, 2.236095, -0.838193, 44.438080, -111.392242, 101.107422, 13.727700, 100.772460
1759315844.295048, -5.371990, 19.707572, -4.671836, -1.577689, -0.006553, -2.749614, 43.164200, -112.230896, 102.140152, 13.727700, 100.772460
1759315844.314506, -5.671116, 16.993146, -4.522946, -2.144705, 0.127365, -1.669634, 41.775757, -112.856094, 102.961288, 13.727700, 100.772460
1759315844.334625, -2.454506, 5.710919, 0.555156, -2.803477, 0.728373, -0.093167, 40.579376, -113.951141, 105.114639, 13.727700, 100.772460
1759315844.355069, -0.653467, 3.525911, -0.054318, -2.605047, 0.483653, 0.145860, 40.514008, -115.466980, 105.501709, 13.727700, 100.772460
1759315844.375076, -0.944064, 4.834791, -0.856077, -2.684410, 0.193853, -0.086994, 40.403107, -117.085968, 106.461304, 13.727700, 100.772460
1759315844.395055, -1.899500, 7.983017, -4.183718, -2.855908, 0.562252, -0.422427, 40.098862, -119.035431, 107.928101, 13.727700, 100.772460
1759315844.414336, 0.581043, 15.409830, -6.136339, -1.703109, 1.393191, -0.392454, 39.305771, -120.381836, 108.112183, 13.727700, 100.772460
1759315844.434458, -0.142904, 13.192650, -4.555717, -2.237642, 0.267963, -0.492772, 38.722275, -121.508499, 109.654724, 13.727700, 100.772460
1759315844.455070, -0.875679, 7.932289, -4.995801, -3.137816, 1.003394, -0.236031, 37.742020, -123.465164, 109.746796, 13.727700, 100.772460
1759315844.475061, -0.235380, 6.672790, -3.377321, -3.101383, 1.826966, 0.021316, 36.343414, -125.496933, 110.420349, 13.727700, 100.772460
1759315844.495047, -0.195427, 6.632388, -0.598550, -2.985995, 1.868452, 0.390677, 35.515656, -126.563049, 110.660568, 13.727700, 100.772460
1759315844.514144, -0.119710, 6.413468, 0.924611, -2.913707, 1.156351, 0.751307, 34.585587, -128.512985, 110.589478, 13.727700, 100.772460
1759315844.534290, -0.257377, 6.997503, 2.019958, -2.544053, 0.211328, 0.827007, 34.146484, -130.112686, 111.251770, 13.727700, 100.772460
1759315844.555082, -0.397288, 8.542063, 2.989011, -1.820967, -0.971049, 0.721180, 34.635651, -131.527740, 111.163498, 13.727700, 100.772460
1759315844.575078, -0.668730, 8.639028, 2.465280, -1.089866, -1.934635, 0.368254, 36.130188, -132.241745, 112.679718, 13.727700, 100.772460
1759315844.595045, -1.013346, 8.561366, 1.235707, -0.676839, -2.050166, 0.153285, 37.520844, -132.979111, 112.187241, 13.727700, 100.772460
1759315844.615073, -1.063923, 8.119785, 0.384269, -0.571984, -1.684632, 0.316567, 38.973679, -133.314560, 112.087418, 13.727700, 100.772460
1759315844.635044, -0.412401, 7.927052, 0.371101, -0.685845, -1.255099, 0.452766, 39.712540, -133.750885, 113.000931, 13.727700, 100.772460
1759315844.655073, -0.222212, 8.324938, 0.313042, -0.955964, -1.077529, 0.468672, 40.804428, -134.535324, 112.412643, 13.727700, 100.772460
1759315844.674173, -0.140061, 8.999804, -0.041150, -1.226425, -0.741708, 0.405153, 41.162201, -135.423325, 113.112854, 13.727700, 100.772460
1759315844.695043, -0.241964, 10.277709, -0.478242, -1.050844, -0.329799, 0.224425, 41.511948, -136.454391, 112.323425, 13.727700, 100.772460
1759315844.715077, -0.501735, 11.376797, -1.712153, 0.162159, -0.362208, -0.119971, 41.926285, -136.655563, 112.628296, 13.727700, 100.772460
1759315844.735070, 0.025438, 11.196783, -2.945467, 0.941385, -0.153895, -0.189984, 42.195297, -136.238144, 113.217010, 13.727700, 100.772460
1759315844.755072, 0.874033, 10.881048, -4.246117, 0.897483, 0.510395, 0.098061, 41.781250, -135.836380, 112.365402, 13.727700, 100.772460
1759315844.775071, 1.516577, 12.206089, -5.235221, 0.418154, 1.187579, 0.459409, 41.212708, -135.626266, 112.359436, 13.727700, 100.772460
1759315844.795041, 2.304120, 14.478336, -4.908562, -0.576727, 1.274532, 0.473928, 40.149216, -136.108139, 112.674759, 13.727700, 100.772460
1759315844.815070, 1.710657, 17.076943, -1.117194, -1.122845, 1.042257, 0.500680, 39.266205, -136.960480, 111.873550, 13.727700, 100.772460
1759315844.834507, 1.366940, 18.352304, 3.617938, -1.218640, -0.203938, 0.411017, 39.588943, -137.809280, 113.047897, 13.727700, 100.772460
1759315844.855068, 0.254982, 19.322853, 4.860828, -0.546149, -1.617284, 0.150311, 40.447891, -138.039093, 112.397858, 13.727700, 100.772460
1759315844.875068, 0.238073, 14.374039, 3.841048, 0.438600, -2.033942, -0.211315, 41.787888, -137.487900, 113.159088, 13.727700, 100.772460
1759315844.895041, 0.097414, 10.007613, 2.426523, 1.044970, -1.589471, -0.560509, 42.728745, -136.570145, 113.677597, 13.727700, 100.772460
1759315844.915065, -0.588076, 8.773702, 0.553360, 1.219434, -0.427746, -0.940030, 42.822723, -135.551575, 113.232437, 13.727700, 100.772460
1759315844.935059, -1.731606, 12.285397, -2.818574, 2.965111, 0.803879, -1.562699, 42.260422, -133.052704, 113.892685, 13.727700, 100.772460
1759315844.955047, -1.840094, 13.396755, -3.139098, 5.687146, 1.064706, -2.411304, 41.228287, -128.466324, 112.675781, 13.727700, 100.772460
1759315844.975045, -1.830218, 13.814095, -4.001908, 7.139277, 1.230573, -2.473912, 40.389725, -123.687592, 111.313629, 13.727700, 100.772460
1759315844.995039, -3.381810, 12.354081, -1.169268, 5.545843, 1.173026, -0.802648, 39.452240, -121.636063, 110.687683, 13.727700, 100.772460
1759315845.015066, -0.822558, 4.765359, 3.444807, 2.294694, 0.041740, -0.215247, 38.613373, -118.795288, 110.223007, 13.727700, 100.772460
1759315845.034893, -0.119560, 2.854038, 0.239869, 1.168704, 0.160267, -0.406204, 38.137253, -117.615845, 109.394623, 13.727700, 100.772460
1759315845.055076, 0.783203, 5.054459, -1.404947, 1.937492, 1.203376, 0.072685, 37.474731, -116.618179, 108.787079, 13.727700, 100.772460
1759315845.075079, 0.648978, 6.800131, 1.060781, 2.383986, 0.724076, 0.178027, 37.117096, -114.745117, 108.712143, 13.727700, 100.772460
1759315845.095040, 0.725144, 9.599851, 0.703446, 3.287813, -0.287873, 0.416526, 37.245743, -112.990646, 106.134201, 13.727700, 100.772460
1759315845.115073, 0.662745, 9.599402, 1.709161, 4.154768, -2.648398, 1.190528, 38.972275, -110.521286, 104.619873, 13.727700, 100.772460
1759315845.134750, -1.225233, 6.804321, -2.904316, 4.195868, -3.900625, 1.167939, 41.736435, -108.103058, 103.477036, 13.727700, 100.772460
1759315845.154370, -1.661726, 4.777031, -3.320758, 3.738407, -3.299493, 0.806324, 43.915207, -106.037796, 100.965012, 13.727700, 100.772460
1759315845.175073, -2.144606, 4.136133, -4.079271, 3.039849, -2.282087, 0.408782, 45.265472, -104.749237, 99.121918, 13.727700, 100.772460
1759315845.195046, -2.966715, 3.249530, -4.151695, 2.336554, -1.694344, 0.319952, 46.376480, -103.595764, 97.066238, 13.727700, 100.772460
1759315845.215075, -3.737349, 2.370110, -5.943606, 1.815025, -1.619865, 0.165501, 47.232513, -102.952393, 95.935532, 13.727700, 100.772460
1759315845.234636, -3.435979, 3.443311, -6.777386, 1.154143, -1.157225, 0.025593, 47.295639, -102.578430, 96.002472, 13.727700, 100.772460
1759315845.255074, -3.010858, 4.865916, -5.982362, 0.571846, -0.338354, -0.077588, 47.471588, -102.577744, 94.748978, 13.727700, 100.772460
1759315845.275074, -3.504962, 4.066701, -5.581333, 0.094259, 0.212486, 0.013513, 47.313889, -102.482483, 95.186081, 13.727700, 100.772460
1759315845.295042, -2.910152, 1.952621, -7.602937, -0.701809, 0.201916, 0.079286, 47.461334, -102.641937, 95.841995, 13.727700, 100.772460
1759315845.315068, -1.821688, 2.564190, -7.911340, -1.409719, 0.086588, 0.093178, 47.433701, -103.100449, 96.383820, 13.727700, 100.772460
1759315845.334509, -2.005593, 3.511695, -6.120178, -1.496456, 0.434925, 0.158461, 47.258484, -103.715347, 98.098373, 13.727700, 100.772460
1759315845.355057, -2.035371, 4.066851, -5.535843, -1.628143, 0.663399, 0.355241, 47.585693, -104.488846, 98.342148, 13.727700, 100.772460
1759315845.375064, -1.876007, 4.709844, -8.146271, -2.350706, 0.796948, 0.689487, 47.542023, -105.933441, 100.068573, 13.727700, 100.772460
1759315845.395035, -1.789067, 5.405958, -10.733356, -3.095762, 1.555587, 0.890408, 47.191650, -107.425400, 102.672821, 13.727700, 100.772460
1759315845.415105, -1.097741, 8.602666, -18.288708, -2.167467, 3.192226, 0.449316, 46.051376, -108.832092, 102.556091, 13.727700, 100.772460
1759315845.434355, -4.276792, 19.196260, -6.390872, -0.649809, 1.084177, -1.384234, 45.033279, -109.740891, 104.219528, 13.727700, 100.772460
1759315845.455057, -8.952070, 22.776489, -7.673117, -2.987716, 0.522397, -2.039456, 42.809479, -110.695709, 105.560669, 13.727700, 100.772460
1759315845.475068, -4.334552, 9.434801, -0.799514, -3.199792, 2.376441, -0.305103, 41.476120, -111.344162, 107.314056, 13.727700, 100.772460
1759315845.495034, -0.409109, 2.270900, 2.355446, -2.833343, 1.231216, -0.233660, 40.212250, -112.818497, 107.500488, 13.727700, 100.772460
1759315845.515062, 0.174029, 3.196858, -0.459836, -2.457199, 0.195220, -0.516617, 39.793961, -114.509140, 108.540192, 13.727700, 100.772460
1759315845.534204, -0.360178, 6.209512, -1.772906, -2.556202, -0.248501, -0.573620, 39.755783, -116.356644, 109.559280, 13.727700, 100.772460
1759315845.555057, -1.458967, 9.844808, -5.103690, -2.842649, 0.539200, -0.651620, 39.424164, -118.425903, 110.021576, 13.727700, 100.772460
1759315845.574232, -1.775600, 13.468282, -7.314436, -3.260257, 2.498906, -0.545946, 37.977539, -120.533157, 111.687592, 13.727700, 100.772460
1759315845.595032, -1.087865, 10.983699, -5.168932, -3.550233, 3.872619, -0.107203, 34.729385, -122.923981, 111.908981, 13.727700, 100.772460
1759315845.615054, -0.286107, 7.595605, -1.195754, -3.227864, 3.690717, 0.088227, 31.774124, -124.901993, 111.311890, 13.727700, 100.772460
1759315845.634048, 0.383820, 6.590190, 1.629853, -2.416756, 2.202589, 0.568570, 30.301941, -126.644394, 112.362427, 13.727700, 100.772460
1759315845.655065, 0.817919, 5.374384, 2.186954, -2.114086, 0.706581, 1.037909, 29.722565, -127.813339, 111.396393, 13.727700, 100.772460
1759315845.675056, 0.808193, 5.112967, 1.395520, -2.076957, -0.373941, 1.215690, 30.120041, -129.115921, 111.920242, 13.727700, 100.772460
1759315845.695039, 0.351349, 6.290466, 1.451335, -1.981323, -1.156124, 1.015811, 30.856934, -130.294052, 111.938141, 13.727700, 100.772460
1759315845.714227, 0.216226, 8.588600, 2.022352, -1.656061, -1.984265, 0.668638, 32.377075, -131.504761, 112.574356, 13.727700, 100.772460
1759315845.734950, -0.389058, 9.728838, 0.833332, -1.059716, -2.592343, 0.272467, 34.227280, -132.579163, 113.776855, 13.727700, 100.772460
1759315845.754194, -0.471957, 10.254216, -0.178368, -0.621490, -2.590384, 0.116433, 36.198227, -133.022354, 113.649384, 13.727700, 100.772460
1759315845.775041, -0.092626, 9.990106, -0.746542, -0.661267, -2.040895, 0.320156, 37.698914, -133.385513, 114.184296, 13.727700, 100.772460
1759315845.795029, 0.093374, 9.031677, -0.952593, -0.891641, -1.188752, 0.534578, 38.245071, -134.220047, 114.484177, 13.727700, 100.772460
1759315845.815066, -0.193332, 8.885481, -1.161188, -1.071137, -0.361273, 0.463826, 38.491638, -134.966415, 114.217712, 13.727700, 100.772460
1759315845.834899, -0.673968, 10.343999, -1.206079, -0.552574, -0.107886, 0.084182, 38.464127, -135.384567, 114.628021, 13.727700, 100.772460
1759315845.855058, -0.403573, 12.360814, -1.283891, -0.012652, -0.262503, -0.189390, 38.949554, -135.595032, 113.987640, 13.727700, 100.772460
1759315845.874232, 0.686687, 12.772617, -2.162712, 0.216189, -0.317071, -0.134792, 39.119186, -135.297134, 113.837677, 13.727700, 100.772460
1759315845.895029, 1.750461, 12.215815, -3.469348, 0.323413, -0.198928, 0.380936, 39.419098, -135.171799, 114.598312, 13.727700, 100.772460
1759315845.915057, 2.134281, 12.248436, -4.292804, 0.229884, 0.262064, 0.828018, 38.959930, -135.224304, 114.118057, 13.727700, 100.772460
1759315845.934771, 2.220772, 14.228890, -2.802114, -0.351354, 0.703489, 0.775827, 38.453644, -135.539658, 114.647141, 13.727700, 100.772460
1759315845.955029, 1.889773, 17.607558, 0.082301, -0.884567, 0.459721, 0.334825, 37.867935, -136.043320, 113.871674, 13.727700, 100.772460
1759315845.975055, 0.704943, 19.328689, 2.754080, -0.518601, -0.637798, -0.029268, 38.256012, -136.203171, 114.769684, 13.727700, 100.772460
1759315845.995027, -0.212036, 16.132580, 3.435230, 0.363020, -1.801367, -0.277708, 39.059540, -136.064819, 114.531342, 13.727700, 100.772460
1759315846.015069, 0.090531, 10.832266, 2.271798, 0.939586, -1.919236, -0.578812, 40.429062, -135.325592, 114.164993, 13.727700, 100.772460
1759315846.034608, -0.134225, 8.955811, 0.262015, 1.398405, -0.781174, -0.817178, 40.990082, -134.205414, 114.598724, 13.727700, 100.772460
1759315846.055051, -0.803853, 11.196634, -1.807323, 2.747322, 0.332080, -1.311125, 40.691483, -132.420563, 114.694885, 13.727700, 100.772460
1759315846.075060, -1.036989, 12.902652, -2.868703, 5.088273, 0.406381, -2.043124, 40.228104, -128.732071, 115.127960, 13.727700, 100.772460
1759315846.094994, -1.200393, 14.172776, -4.061314, 6.250756, 0.492042, -2.087799, 39.747345, -124.358536, 113.335541, 13.727700, 100.772460
1759315846.115055, -0.724246, 11.641656, -0.760009, 5.423012, 0.312266, -1.287015, 39.224518, -120.531067, 111.990402, 13.727700, 100.772460
1759315846.134465, -0.762703, 6.645107, 3.772364, 2.837289, -0.851572, -0.480960, 39.012344, -117.993622, 112.314651, 13.727700, 100.772460
1759315846.155060, -0.381426, 3.569605, 0.006584, 1.357243, -0.624668, -0.390832, 39.209534, -117.232971, 111.411865, 13.727700, 100.772460
1759315846.175061, 0.171784, 3.827580, -1.019182, 1.826604, 0.785696, -0.108630, 38.637253, -116.071167, 110.781921, 13.727700, 100.772460
1759315846.194916, 0.130035, 4.677671, 1.675941, 2.236055, 0.804985, -0.150905, 37.989838, -114.420670, 109.795380, 13.727700, 100.772460
1759315846.215047, -0.643591, 7.580641, -0.163853, 3.012064, 0.175918, -0.290726, 38.160736, -112.651199, 108.275467, 13.727700, 100.772460
1759315846.234277, -0.674417, 10.414628, 0.954838, 4.036828, -1.288642, 0.309848, 39.280579, -110.561432, 107.826355, 13.727700, 100.772460
1759315846.255047, -1.460762, 7.476942, -1.602319, 4.109127, -3.711631, 0.699176, 41.890778, -107.871124, 104.833908, 13.727700, 100.772460
1759315846.275051, -1.476923, 5.591059, -5.789629, 3.634631, -3.522696, 0.711923, 44.339203, -106.042496, 103.367676, 13.727700, 100.772460
1759315846.294688, -1.394622, 5.361515, -5.264251, 2.592489, -1.918513, 0.642172, 45.236725, -104.606064, 102.347397, 13.727700, 100.772460
1759315846.314897, -2.045097, 4.449325, -1.739088, 2.081622, -0.874380, 0.295280, 46.009354, -103.618469, 100.331451, 13.727700, 100.772460
1759315846.334164, -3.922151, 4.724358, -3.566463, 2.156110, -1.294833, 0.197875, 46.628632, -102.705109, 99.726685, 13.727700, 100.772460
1759315846.355054, -4.693533, 3.598485, -7.365163, 1.617940, -1.158834, 0.230685, 47.042496, -102.076859, 97.936005, 13.727700, 100.772460
1759315846.375057, -3.829376, 3.474436, -8.685565, 0.705348, -0.647421, -0.011823, 47.378204, -101.794113, 97.401382, 13.727700, 100.772460
1759315846.394540, -3.147477, 5.125686, -6.497115, 0.150962, -0.416001, -0.084452, 47.408066, -101.755173, 98.231155, 13.727700, 100.772460
1759315846.414733, -2.625392, 4.400094, -6.421548, -0.256578, -0.066368, 0.003553, 47.417603, -101.856949, 98.127289, 13.727700, 100.772460
1759315846.435024, -2.687940, 2.986467, -5.520879, -0.562496, 0.187625, 0.091451, 47.397827, -101.774231, 99.046097, 13.727700, 100.772460
1759315846.455050, -3.242198, 2.353051, -6.560861, -0.918134, 0.521017, 0.124981, 47.368729, -102.185120, 98.903427, 13.727700, 100.772460
1759315846.475061, -3.067122, 2.613121, -7.843854, -1.452319, 1.117441, 0.168605, 47.130402, -102.689056, 100.723145, 13.727700, 100.772460
1759315846.494395, -2.572121, 3.960309, -8.779238, -2.072335, 1.532598, 0.303914, 46.547318, -104.085907, 101.344864, 13.727700, 100.772460
1759315846.514600, -1.735796, 5.158158, -11.013178, -2.550524, 1.604317, 0.309958, 46.074829, -105.435501, 102.976059, 13.727700, 100.772460
1759315846.534078, -0.579995, 7.611017, -11.661558, -2.909851, 1.823372, 0.037361, 45.177338, -106.889709, 104.839371, 13.727700, 100.772460
1759315846.555040, -1.510143, 14.791378, -12.062287, -2.020275, 2.260521, -0.293501, 44.269836, -108.569473, 105.956863, 13.727700, 100.772460
1759315846.575021, -6.186916, 22.984635, -5.936273, -2.124488, 1.310996, -0.900503, 42.882370, -109.661209, 107.790054, 13.727700, 100.772460
1759315846.594233, -6.056732, 13.757382, -2.323124, -2.626712, 1.889413, 0.117285, 40.953171, -110.509613, 109.145721, 13.727700, 100.772460
1759315846.614443, -1.162086, 1.700931, 0.988656, -2.559578, 0.355079, 0.278754, 40.986588, -112.149963, 110.699585, 13.727700, 100.772460
1759315846.635025, 0.248997, 2.447922, -5.008969, -2.711265, 0.283631, -0.386871, 40.910767, -113.995773, 112.334427, 13.727700, 100.772460
1759315846.655044, 0.276979, 3.931429, -4.699070, -2.763554, 0.754723, -0.616521, 40.473099, -116.197189, 112.787720, 13.727700, 100.772460
1759315846.675031, -1.722030, 9.804256, -3.983802, -3.355536, 2.191869, -1.324401, 38.966202, -118.862320, 114.104095, 13.727700, 100.772460
1759315846.694203, -2.172588, 11.073931, -3.914520, -3.702501, 2.811482, -1.407079, 36.289078, -122.041428, 114.737579, 13.727700, 100.772460
1759315846.714289, -2.336890, 14.096311, -3.583671, -4.127559, 3.878372, -0.918337, 32.794846, -125.117096, 115.212265, 13.727700, 100.772460
1759315846.734871, -0.230292, 10.017639, 1.601871, -3.019694, 3.172823, 0.147400, 30.016220, -127.614944, 116.012161, 13.727700, 100.772460
1759315846.755090, 0.578499, 7.767089, 2.569577, -2.135948, 1.394693, 0.641540, 28.517578, -129.303009, 115.618149, 13.727700, 100.772460
1759315846.774122, 0.795324, 6.666954, 2.655319, -1.800288, 0.556131, 0.813502, 28.622253, -130.338852, 115.647705, 13.727700, 100.772460
1759315846.794053, 0.777966, 5.616199, 1.612944, -1.485285, -0.713735, 1.027672, 29.403351, -131.250778, 116.565628, 13.727700, 100.772460
1759315846.814146, 0.409558, 5.729773, 0.581641, -1.461606, -1.252496, 0.967292, 30.561111, -132.079102, 116.077988, 13.727700, 100.772460
1759315846.835027, -0.291644, 7.949049, -0.509217, -0.991484, -1.596883, 0.262202, 31.724792, -132.812653, 117.652451, 13.727700, 100.772460
1759315846.855043, -0.515053, 9.622147, -0.884508, -0.354897, -1.689857, -0.198369, 33.051376, -133.524734, 117.302002, 13.727700, 100.772460
1759315846.875045, -0.047136, 10.378864, -0.752528, -0.531267, -1.535658, 0.043776, 34.707657, -133.863205, 117.567261, 13.727700, 100.772460
1759315846.895015, 0.474351, 9.501988, -0.430807, -1.023178, -1.229348, 0.490109, 35.628357, -134.561188, 118.297989, 13.727700, 100.772460
1759315846.915029, 0.598999, 8.183980, -0.331896, -1.164257, -0.893697, 0.748558, 36.354187, -135.256348, 117.926010, 13.727700, 100.772460
1759315846.935016, 0.371550, 8.016984, -0.555006, -1.106174, -0.216996, 0.621416, 36.689651, -136.137329, 118.894592, 13.727700, 100.772460
1759315846.954539, -0.145897, 9.479991, -0.156371, -1.022022, 0.424287, 0.387069, 36.567383, -136.686813, 118.063538, 13.727700, 100.772460
1759315846.975055, -0.258275, 11.228058, 0.406116, -0.988501, 0.746168, 0.266438, 36.284607, -137.523102, 118.862137, 13.727700, 100.772460
1759315846.995021, 0.519093, 11.242124, 0.350900, -0.755167, 0.565383, 0.168381, 35.361343, -138.269379, 117.953384, 13.727700, 100.772460
1759315847.015038, 1.163432, 11.585691, -1.360954, 0.766889, -0.504604, 0.209946, 35.602188, -138.457199, 117.567139, 13.727700, 100.772460
1759315847.035018, 1.767220, 13.091944, -2.988263, 0.843740, -0.873383, 0.295395, 36.635635, -137.551682, 117.863586, 13.727700, 100.772460
1759315847.055043, 2.323124, 15.530588, -3.781043, -0.496356, -1.099070, 0.124562, 37.968781, -137.578278, 117.957138, 13.727700, 100.772460
1759315847.075050, 1.139790, 17.044771, -2.374749, -0.995381, -0.976466, 0.155465, 38.681931, -137.853043, 118.687500, 13.727700, 100.772460
1759315847.095013, -0.305710, 16.910097, -0.102053, -0.581112, -1.498406, 0.232418, 39.702454, -138.602798, 118.151810, 13.727700, 100.772460
1759315847.115044, -0.917578, 15.949573, 0.464774, 0.081637, -1.742048, -0.025363, 41.210739, -138.637802, 118.299850, 13.727700, 100.772460
1759315847.134037, -0.604835, 12.958467, 1.482609, 0.444180, -1.194666, -0.429400, 42.756073, -138.068588, 119.140305, 13.727700, 100.772460
1759315847.155023, -0.120907, 10.129718, 1.342249, 0.966208, -0.050062, -0.701204, 43.070892, -137.207855, 119.193710, 13.727700, 100.772460
1759315847.174808, -0.298527, 10.556933, 0.948403, 1.715710, 1.129703, -0.935115, 42.671783, -135.906662, 119.080231, 13.727700, 100.772460
1759315847.194194, -1.154604, 14.218266, -1.878550, 3.402437, 1.983954, -1.245903, 41.395294, -133.173965, 119.490845, 13.727700, 100.772460
1759315847.214323, -0.651073, 14.206744, -1.972074, 5.267968, 1.850092, -1.440172, 39.559845, -129.269180, 118.862869, 13.727700, 100.772460
1759315847.235008, -0.253636, 13.120973, -1.168221, 6.162775, 0.549300, -1.095574, 39.063797, -124.212204, 120.031647, 13.727700, 100.772460
1759315847.255008, -0.176423, 9.021053, 0.133477, 4.821536, -1.179101, -0.418816, 39.801056, -119.832260, 118.056351, 13.727700, 100.772460
1759315847.275036, -0.776170, 4.038270, -0.051924, 2.306825, -0.800530, -0.606529, 40.165695, -117.240311, 115.335022, 13.727700, 100.772460
1759315847.295017, -0.763601, 2.378340, 1.282245, 1.407519, 0.324147, -0.840376, 39.807251, -115.790833, 115.443497, 13.727700, 100.772460
1759315847.315042, -0.418985, 3.070414, 0.058808, 1.894554, 0.724680, -0.627587, 38.919418, -114.314148, 113.908569, 13.727700, 100.772460
1759315847.335034, -0.514454, 5.147683, 2.020407, 2.989516, 0.304053, -0.486788, 38.727676, -112.189529, 113.445557, 13.727700, 100.772460
1759315847.355087, -0.763301, 7.068581, 1.791761, 3.271610, -1.010684, -0.397322, 39.326355, -110.023727, 110.736938, 13.727700, 100.772460
1759315847.374107, -0.137667, 11.718570, -3.052308, 4.566549, -1.037718, 0.417529, 40.604370, -107.080139, 108.510849, 13.727700, 100.772460
1759315847.395010, 0.003591, 9.945065, -3.265691, 4.371838, -2.987226, 0.885853, 42.960114, -104.287064, 106.537491, 13.727700, 100.772460
1759315847.414924, -0.816423, 7.595904, -6.441600, 3.641404, -3.189146, 0.694193, 45.194016, -102.257645, 103.306961, 13.727700, 100.772460
1759315847.434063, -1.325340, 5.442918, -2.419939, 2.750748, -2.763140, 0.239749, 45.775604, -101.502808, 102.849106, 13.727700, 100.772460
1759315847.455035, -2.421286, 3.086126, -3.134010, 2.527642, -2.334611, -0.026256, 46.847412, -99.900421, 99.961395, 13.727700, 100.772460
1759315847.475038, -5.526416, 1.849521, -6.876895, 2.093074, -1.773560, 0.136957, 48.127121, -99.007172, 99.469116, 13.727700, 100.772460
1759315847.494124, -5.914277, 2.481889, -8.590695, 1.220097, -0.972443, -0.046785, 49.051651, -98.515015, 97.145355, 13.727700, 100.772460
1759315847.514801, -3.798700, 4.047548, -8.148366, 0.345317, -0.509602, -0.260183, 49.213959, -98.291809, 96.372925, 13.727700, 100.772460
1759315847.535035, -2.240673, 4.507384, -6.325182, -0.245787, -0.102531, -0.188017, 49.082886, -98.028320, 97.480850, 13.727700, 100.772460
1759315847.555034, -2.149843, 2.312051, -5.248988, -0.482226, 0.132596, 0.025360, 49.004410, -98.029968, 96.913528, 13.727700, 100.772460
1759315847.575018, -2.812738, 2.116923, -5.817461, -0.736870, 0.242730, 0.222080, 49.106827, -98.390366, 98.044083, 13.727700, 100.772460
1759315847.595006, -2.512864, 2.742408, -6.810007, -1.142552, 0.329656, 0.428520, 49.442871, -98.746689, 97.578232, 13.727700, 100.772460
1759315847.614639, -2.463634, 3.206883, -8.228721, -1.781034, 0.876599, 0.564954, 49.499603, -99.827835, 98.922562, 13.727700, 100.772460
1759315847.634563, -2.992902, 4.818780, -10.265140, -2.375452, 1.574318, 0.593704, 49.524216, -101.127686, 101.208054, 13.727700, 100.772460
1759315847.655036, -2.818724, 6.689699, -13.432968, -2.604342, 2.504902, 0.579291, 48.823135, -102.683533, 102.107956, 13.727700, 100.772460
1759315847.675034, -2.908207, 9.196577, -10.434230, -2.914729, 2.763699, -0.012982, 47.703094, -104.406662, 103.958649, 13.727700, 100.772460
1759315847.695010, -6.632537, 20.728250, -8.097489, -1.670614, 0.181633, -1.260371, 46.934540, -106.059158, 105.500793, 13.727700, 100.772460
1759315847.714495, -7.056311, 23.462877, -4.570980, -2.363264, 0.767643, -0.303371, 45.630783, -106.834381, 107.068237, 13.727700, 100.772460
1759315847.735032, -2.345869, 5.475090, 0.454898, -2.657425, 2.045323, 0.478972, 44.071854, -107.802078, 109.288773, 13.727677, 100.772457
1759315847.755035, 0.070928, -0.594510, 0.577601, -2.611800, 0.884545, 0.141329, 43.731827, -109.435547, 110.194000, 13.727677, 100.772457
1759315847.775034, 0.160860, 1.290924, -3.435679, -3.032467, 0.173825, -0.136722, 43.508057, -111.694809, 111.385300, 13.727677, 100.772457
1759315847.794537, -0.570269, 5.948095, -5.771971, -2.916559, 1.195222, -0.399464, 42.618301, -113.819061, 112.942291, 13.727677, 100.772457
1759315847.814345, -2.547730, 10.801441, -5.343260, -3.348202, 2.511911, -1.054192, 40.582153, -116.607040, 113.335693, 13.727677, 100.772457
1759315847.835031, -3.331083, 14.797962, -3.249530, -4.098613, 3.227677, -0.921599, 37.857117, -119.594666, 115.716049, 13.727677, 100.772457
1759315847.855032, -0.857274, 12.871827, -1.251120, -4.019171, 2.940806, -0.111998, 35.336227, -122.494507, 115.500351, 13.727677, 100.772457
1759315847.875027, 0.604386, 9.745149, 1.077091, -3.221688, 1.855372, 0.632113, 33.928085, -124.554703, 115.864151, 13.727677, 100.772457
1759315847.895003, 0.923114, 6.149657, 1.705420, -2.388261, 0.564480, 1.249895, 33.754730, -125.872681, 117.014084, 13.727677, 100.772457
1759315847.914426, 0.608426, 3.694552, 1.109862, -1.968655, -0.211418, 1.349010, 34.102219, -126.353409, 116.632050, 13.727677, 100.772457
1759315847.935018, 0.308702, 2.683601, 0.412701, -1.756142, -0.551442, 1.192725, 34.701447, -127.597946, 117.798721, 13.727677, 100.772457
1759315847.955030, 0.372149, 4.583250, 0.311246, -1.432488, -0.758582, 0.763830, 35.329941, -128.835617, 117.306702, 13.727677, 100.772457
1759315847.975027, 0.287603, 7.612215, 0.120159, -0.773264, -0.998887, 0.106886, 36.569290, -129.840195, 117.887955, 13.727677, 100.772457
1759315847.995000, 0.375590, 11.170447, 0.097115, -0.356786, -1.145676, -0.172749, 37.279495, -130.536667, 117.274490, 13.727677, 100.772457
1759315848.015031, 0.637755, 12.978518, -0.205752, -0.561476, -1.188382, 0.263365, 38.383606, -130.922607, 117.238052, 13.727677, 100.772457
1759315848.035077, 0.980276, 11.756877, -0.739210, -0.925973, -0.721116, 0.712461, 39.094009, -131.262085, 118.030716, 13.727677, 100.772457
1759315848.054994, 0.874781, 9.241618, -0.424223, -1.111020, -0.247743, 0.706863, 39.243912, -131.799408, 117.433548, 13.727677, 100.772457
1759315848.075031, -0.002095, 7.641244, -0.965013, -0.911000, 0.000468, 0.379604, 39.200394, -132.644272, 117.930603, 13.727677, 100.772457
1759315848.094992, -0.571017, 8.965238, -1.558925, -0.051364, -0.426923, -0.035719, 39.682251, -133.006958, 117.553375, 13.727677, 100.772457
1759315848.114398, 0.113126, 11.117475, -1.919551, -0.062225, -0.469340, -0.235212, 39.926086, -133.224854, 117.588837, 13.727677, 100.772457
1759315848.135020, 1.352275, 12.278813, -2.088492, -0.500730, -0.228347, -0.126557, 40.093353, -133.687119, 118.206635, 13.727677, 100.772457
1759315848.155026, 2.474557, 13.652187, -2.496255, -0.436375, -0.308020, 0.303409, 40.354996, -134.054993, 117.356964, 13.727677, 100.772457
1759315848.175029, 2.896236, 14.946552, -3.028815, -0.141327, -0.434864, 0.635424, 40.577377, -134.347382, 116.948013, 13.727677, 100.772457
1759315848.194761, 2.665345, 15.578771, -2.335843, -0.095373, -0.198126, 0.612135, 40.849899, -134.409149, 117.632538, 13.727677, 100.772457
1759315848.214979, 1.926584, 16.504579, -0.115520, -0.218486, -0.097152, 0.330806, 41.023315, -134.742661, 117.289825, 13.727677, 100.772457
1759315848.235000, 0.623839, 17.399711, 1.832163, -0.267835, -0.645851, 0.171157, 41.202103, -134.695312, 117.673553, 13.727677, 100.772457
1759315848.255072, -0.355988, 15.534329, 2.715324, -0.012310, -0.942099, -0.280151, 41.915024, -134.273941, 117.118042, 13.727677, 100.772457
1759315848.275022, -0.602740, 11.754183, 2.496853, 0.687683, -0.718025, -0.562942, 42.008331, -133.338486, 117.192566, 13.727677, 100.772457
1759315848.294997, -1.149666, 9.770737, 0.839018, 1.727017, 0.220923, -0.798362, 41.764816, -131.304245, 117.702148, 13.727677, 100.772457
1759315848.314838, -1.817798, 10.896461, -1.430087, 3.989756, 0.125938, -1.865298, 41.841370, -127.850952, 116.468521, 13.727677, 100.772457
1759315848.335021, -1.583764, 11.716475, -2.813337, 6.333636, -0.700160, -2.814792, 41.913284, -122.610153, 115.997955, 13.727677, 100.772457
1759315848.355020, -2.435502, 13.280337, -4.704008, 7.086028, -0.807194, -2.475857, 42.304001, -117.671631, 112.859528, 13.727677, 100.772457
1759315848.375008, -2.883068, 11.749395, -4.172345, 4.991802, -0.920008, -0.437922, 42.198196, -113.990875, 111.270615, 13.727677, 100.772457
1759315848.394995, -0.470161, 4.540304, 2.198027, 1.915632, 0.062931, -0.420100, 41.461929, -112.260605, 111.105637, 13.727677, 100.772457
1759315848.414769, 0.218022, 3.132963, 0.802656, 0.959730, 0.663953, -0.560681, 41.071152, -111.867401, 109.851059, 13.727677, 100.772457
1759315848.435002, 0.663343, 5.564723, -1.084124, 1.840566, 1.581741, -0.217187, 40.009781, -110.837738, 109.668182, 13.727677, 100.772457
1759315848.455020, 0.494403, 8.632144, 0.433799, 2.968026, 1.231727, -0.071204, 39.109207, -109.130402, 107.258820, 13.727677, 100.772457
1759315848.475023, 0.616357, 12.019341, 1.474978, 3.903722, -0.626918, 0.274139, 39.420532, -107.025848, 106.071930, 13.727677, 100.772457
1759315848.494995, -0.398036, 11.318139, -0.668880, 4.125902, -2.929787, 0.837151, 41.308945, -104.567810, 102.743607, 13.727677, 100.772457
1759315848.514499, -0.928352, 7.119757, -2.862717, 4.147839, -2.916202, 0.911701, 43.306473, -102.338654, 100.419128, 13.727677, 100.772457
1759315848.534994, -1.169119, 2.246809, -1.873164, 3.581187, -3.325284, 0.424200, 45.141022, -100.282394, 98.277527, 13.727677, 100.772457
1759315848.555022, -1.930624, 1.470339, -3.773860, 2.829021, -2.318084, 0.174470, 46.064301, -98.961441, 94.870102, 13.727677, 100.772457
1759315848.574955, -4.277241, 0.051775, -5.379173, 2.261838, -0.784321, 0.057019, 46.348984, -98.528107, 94.004349, 13.727677, 100.772457
1759315848.594993, -5.117606, 1.871966, -5.629965, 1.721230, -0.671473, -0.068560, 46.464523, -97.847168, 91.913177, 13.727677, 100.772457
1759315848.614345, -3.214814, 3.962104, -6.254852, 1.019952, -0.588758, -0.194748, 46.460403, -97.687424, 90.969818, 13.727677, 100.772457
1759315848.635028, -2.847005, 4.810849, -6.553229, 0.201799, -0.064466, -0.219165, 46.371704, -97.574051, 91.433411, 13.727677, 100.772457
1759315848.655022, -2.719514, 3.577237, -6.386383, -0.489353, 0.100595, -0.102293, 46.417450, -97.555771, 91.082321, 13.727677, 100.772457
1759315848.675019, -1.852962, 2.592172, -6.760178, -1.211114, 0.268247, 0.001453, 46.189316, -98.111160, 91.595612, 13.727677, 100.772457
1759315848.694891, -2.445677, 2.816180, -7.790134, -2.027293, 0.324456, 0.151250, 46.332947, -98.924515, 94.118652, 13.727677, 100.772457
1759315848.714235, -2.231396, 3.900454, -9.079860, -2.883446, 0.483064, 0.316179, 46.440399, -100.094681, 95.807846, 13.727677, 100.772457
1759315848.735015, -2.317138, 5.178060, -10.594043, -3.335102, 1.254412, 0.396739, 46.008453, -101.461380, 98.954987, 13.727677, 100.772457
1759315848.755016, -1.484255, 6.934506, -12.060192, -3.118687, 2.599971, 0.477485, 45.025772, -103.131165, 99.738068, 13.727677, 100.772457
1759315848.774689, -1.868225, 9.052327, -9.930849, -3.258310, 3.294661, -0.064422, 43.376221, -104.711365, 101.476791, 13.727677, 100.772457
1759315848.794741, -4.878635, 22.228666, -5.658995, -0.540825, 0.412939, -1.221363, 43.320892, -105.786392, 102.379089, 13.727677, 100.772457
1759315848.815015, -6.877494, 19.499276, -2.292897, -2.567877, 0.223248, -0.551629, 41.492538, -105.986328, 103.650543, 13.727677, 100.772457
1759315848.834993, -3.065626, 4.759523, 0.134075, -2.951425, 1.809954, 0.041362, 40.087112, -107.241608, 106.146683, 13.727677, 100.772457
1759315848.855018, -1.040281, 1.172710, 0.998532, -2.340747, 1.493736, 0.204042, 39.706406, -108.631165, 106.063828, 13.727677, 100.772457
1759315848.875005, -0.310947, 2.661604, -1.827973, -2.561213, 0.782697, 0.136964, 39.436523, -110.831406, 107.004837, 13.727677, 100.772457
1759315848.894595, -0.666636, 8.253711, -8.201039, -2.831317, 1.327737, -0.515390, 39.071518, -111.640335, 107.850006, 13.727677, 100.772457
1759315848.915015, -3.002329, 13.224373, -7.520038, -3.401972, 2.801164, -1.024647, 36.865311, -113.892426, 108.469254, 13.727677, 100.772457
1759315848.935020, -2.278981, 12.750770, -3.425504, -3.954367, 3.324399, -0.677326, 34.211761, -116.111542, 110.063248, 13.727677, 100.772457
1759315848.955015, -0.375291, 8.975263, -0.650924, -3.624977, 2.914559, -0.192354, 31.781143, -118.370651, 109.986206, 13.727677, 100.772457
1759315848.974427, 0.328006, 7.794623, 1.463605, -2.846735, 1.837989, 0.372310, 30.427490, -120.225784, 111.629135, 13.727677, 100.772457
1759315848.994440, 0.954389, 5.909339, 2.082058, -2.170447, 0.521009, 0.870399, 30.166473, -121.332169, 111.144455, 13.727677, 100.772457
1759315849.015015, 0.801908, 5.107281, 1.517026, -1.897279, -0.339832, 1.161164, 30.759644, -122.509201, 111.574203, 13.727677, 100.772457
1759315849.035013, 0.439935, 5.140650, 1.231368, -1.687261, -0.863199, 1.124059, 31.612579, -123.181656, 112.728729, 13.727677, 100.772457
1759315849.055016, 0.756268, 6.961291, 1.083376, -1.476548, -1.209152, 0.825918, 32.519958, -124.081375, 112.418365, 13.727677, 100.772457
1759315849.074885, 0.902764, 9.702053, 0.994192, -1.265816, -1.600251, 0.428304, 33.963257, -125.168274, 113.090591, 13.727677, 100.772457
1759315849.094430, 0.878373, 11.441740, -0.137517, -0.844925, -1.847930, 0.094115, 35.423828, -125.875092, 113.508148, 13.727677, 100.772457
1759315849.115019, 0.665139, 12.096105, -1.155950, -0.554327, -1.689978, 0.264396, 36.790070, -126.257675, 113.446426, 13.727677, 100.772457
1759315849.135018, 0.642544, 10.102783, -1.718289, -0.593658, -1.089649, 0.583289, 37.572113, -126.435684, 114.705887, 13.727677, 100.772457
1759315849.155005, -0.258723, 7.840562, -2.037915, -0.348898, -0.559030, 0.553994, 38.077347, -126.468338, 114.040131, 13.727677, 100.772457
1759315849.174079, -0.811634, 7.561487, -2.215385, -0.015908, -0.108537, 0.377716, 38.038437, -126.587448, 114.096878, 13.727677, 100.772457
1759315849.194289, -0.392499, 8.525453, -1.907580, -0.150182, 0.460922, 0.210651, 37.655777, -126.873535, 114.343994, 13.727677, 100.772457
1759315849.215016, 0.165798, 9.644293, -0.742502, -0.708744, 0.961804, 0.043970, 36.809708, -127.528152, 113.750397, 13.727677, 100.772457
1759315849.235018, 1.086818, 9.733776, 0.300772, -1.058807, 0.912783, -0.075494, 36.111313, -128.200302, 114.884933, 13.727677, 100.772457
1759315849.255021, 1.674894, 10.948684, 0.487070, -0.970954, 0.419959, 0.000126, 35.984650, -129.200272, 113.649979, 13.727677, 100.772457
1759315849.275032, 2.235885, 13.540707, -0.530615, -0.539639, -0.237797, 0.205345, 36.367310, -129.447189, 113.437149, 13.727677, 100.772457
1759315849.294138, 2.464082, 16.128390, -1.447295, -0.108226, -0.622665, 0.358568, 36.885712, -129.584106, 114.204346, 13.727677, 100.772457
1759315849.315009, 2.069488, 17.956064, -0.995090, -0.048366, -0.639222, 0.271495, 37.467819, -129.324371, 113.274338, 13.727677, 100.772457
1759315849.335014, 0.780959, 17.613693, 0.691625, -0.163085, -1.063580, 0.241901, 38.307755, -129.069763, 114.256424, 13.727677, 100.772457
1759315849.354130, -0.043844, 15.776891, 1.091906, 0.058022, -1.648215, 0.129408, 38.958817, -128.611099, 113.425461, 13.727677, 100.772457
1759315849.375011, 0.833631, 10.909778, 1.310526, 0.680888, -1.913090, -0.328602, 39.787094, -127.737976, 114.057495, 13.727677, 100.772457
1759315849.394983, 0.858321, 9.126248, 1.082478, 0.985271, -1.632490, -0.663542, 41.013596, -127.032791, 112.917816, 13.727677, 100.772457
1759315849.414236, -0.490362, 10.246136, -1.660229, 1.770295, -0.295458, -1.111224, 41.222458, -125.596603, 112.616684, 13.727677, 100.772457
1759315849.435010, -1.363049, 12.936620, -3.145831, 3.893049, 0.873025, -2.078322, 39.979385, -122.887390, 112.242462, 13.727677, 100.772457
1759315849.455015, -1.325939, 13.907768, -3.201197, 5.751446, 1.012753, -2.547637, 38.429031, -119.269058, 109.508499, 13.727677, 100.772457
1759315849.475010, -1.868076, 13.446435, -3.314623, 6.248948, 1.096102, -2.121270, 37.160446, -115.588074, 107.925522, 13.727677, 100.772457
1759315849.494493, -2.139818, 10.739491, -1.100585, 4.737186, 0.512409, -0.962673, 36.075470, -112.712845, 104.791382, 13.727677, 100.772457
1759315849.514076, -2.357690, 5.731120, 2.675520, 2.002726, -0.193626, -0.502247, 35.528900, -111.248337, 103.769257, 13.727677, 100.772457
1759315849.534983, -1.200692, 5.216217, -1.491737, 1.568201, 0.313142, -0.535255, 34.946259, -110.208221, 103.663177, 13.727677, 100.772457
1759315849.555008, -0.524779, 7.376086, -2.239327, 3.068985, 1.538286, -0.229276, 33.966492, -108.954742, 101.079544, 13.727677, 100.772457
1759315849.575020, -0.603189, 8.012495, 1.766023, 3.176742, 0.038652, -0.385619, 34.162109, -107.511780, 98.944656, 13.727677, 100.772457
1759315849.594344, -0.489914, 10.914118, -1.722030, 3.697172, -2.688839, -0.148902, 35.239304, -106.043732, 97.460815, 13.727677, 100.772457
1759315849.615006, -0.892289, 11.061960, -2.980183, 4.073433, -3.657230, 0.189365, 36.697922, -104.378967, 95.377014, 13.727677, 100.772457
1759315849.634986, -0.985064, 4.486435, -4.544943, 3.487271, -2.207405, 0.199641, 37.487259, -102.732162, 94.021164, 13.727677, 100.772457
1759315849.654982, -1.482011, 2.611475, -4.702661, 2.847064, -2.029526, -0.277495, 37.788330, -101.653702, 91.403641, 13.727677, 100.772457
1759315849.674994, -3.252673, 1.185429, -2.745401, 2.810687, -2.274539, -0.521247, 38.153763, -101.022568, 89.843201, 13.727677, 100.772457
1759315849.693992, -3.563769, 1.631499, -3.978415, 2.757990, -2.132805, -0.489785, 38.387466, -100.641510, 88.963364, 13.727677, 100.772457
1759315849.714997, -3.053655, 1.753005, -7.281665, 1.872188, -1.386185, -0.717071, 38.235641, -100.149429, 87.134247, 13.727677, 100.772457
1759315849.734985, -2.669086, 3.268833, -5.139603, 1.409805, -0.904180, -0.887425, 37.867523, -100.155563, 87.479752, 13.727677, 100.772457
1759315849.754990, -3.304896, 2.945167, -4.243124, 1.022346, -0.479629, -0.798192, 37.359085, -100.218903, 85.582993, 13.727677, 100.772457
1759315849.774985, -3.354127, 2.651578, -5.688474, 0.449825, -0.204814, -0.665879, 36.542236, -100.317535, 85.152679, 13.727677, 100.772457
1759315849.794983, -3.462016, 3.212121, -4.841076, -0.056434, -0.123614, -0.590376, 36.123596, -100.511108, 85.995804, 13.727677, 100.772457
1759315849.814013, -3.881899, 3.080889, -4.518756, -0.183826, -0.126650, -0.511770, 35.713898, -100.602081, 85.204056, 13.727677, 100.772457
1759315849.835007, -3.176058, 2.111237, -5.404162, -0.319425, 0.072887, -0.145137, 35.555038, -100.839676, 86.920517, 13.727677, 100.772457
1759315849.854993, -2.576610, 1.934814, -8.403199, -0.813403, 0.410577, 0.020012, 35.392059, -100.962784, 86.463547, 13.727677, 100.772457
1759315849.874994, -3.099893, 2.408567, -6.671742, -1.149358, 0.503001, 0.185045, 35.154510, -101.157486, 87.971207, 13.727677, 100.772457
1759315849.894978, -4.049942, 2.267159, -7.724143, -1.289765, 0.540376, 0.283815, 35.062546, -101.715897, 87.274292, 13.727677, 100.772457
1759315849.915010, -5.019743, 2.774132, -7.450756, -1.292121, 0.529259, 0.316640, 35.187592, -102.063034, 88.321655, 13.727677, 100.772457
1759315849.935003, -5.286846, 3.141641, -8.226028, -1.462991, 0.217618, 0.381343, 35.218781, -102.444565, 89.478729, 13.727677, 100.772457
1759315849.954054, -5.166538, 3.815759, -9.421632, -1.642246, 0.084926, 0.410902, 35.665390, -103.164032, 90.260559, 13.727677, 100.772457
1759315849.975005, -4.851251, 5.703288, -9.652074, -1.776596, 0.252832, 0.592870, 35.738708, -103.691345, 91.990723, 13.727677, 100.772457
1759315849.994975, -4.507683, 7.086837, -12.666674, -1.480586, 0.499358, 0.726924, 35.782990, -104.466705, 92.133789, 13.727677, 100.772457
1759315850.015015, -5.593304, 16.120758, -17.252916, 2.072895, -0.055489, 0.576550, 36.322556, -104.619308, 91.770233, 13.727677, 100.772457
1759315850.035019, -10.520571, 20.694881, -11.443536, 0.817358, -2.119591, -0.277188, 37.333389, -104.533829, 91.289490, 13.727677, 100.772457
1759315850.055012, -7.533954, 2.593968, -7.464073, -1.913902, -1.179476, 0.778119, 36.802719, -103.478271, 92.455597, 13.727677, 100.772457
1759315850.075012, -4.711639, -3.542371, -2.423531, -3.129798, -0.218355, 0.353034, 36.966385, -104.276703, 94.465836, 13.727677, 100.772457
1759315850.094982, -2.982427, 5.073762, -4.762666, -1.564611, 0.762644, 0.219405, 37.274994, -105.448563, 95.409271, 13.727677, 100.772457
1759315850.115009, 1.237653, 8.362497, -1.146074, -1.961730, 2.349567, 1.012946, 37.071655, -106.044250, 96.474899, 13.727677, 100.772457
1759315850.135012, -0.686837, 8.761282, -4.446930, -2.603209, 4.065507, 0.728025, 36.043793, -107.187057, 98.519150, 13.727677, 100.772457
1759315850.155009, -4.040963, 12.829779, -5.419724, -2.562173, 4.479392, 0.303785, 34.769287, -108.234497, 98.105576, 13.727677, 100.772457
1759315850.174995, -4.031087, 11.848904, -4.698471, -3.147702, 2.504726, 0.217825, 33.093094, -109.593613, 99.680786, 13.727677, 100.772457
1759315850.194978, -2.406622, 8.478916, -4.574721, -2.962668, 1.675765, 0.206902, 32.417999, -110.701599, 101.166977, 13.727677, 100.772457
1759315850.215002, -1.856105, 6.924480, -1.303493, -2.435024, 1.659654, 0.039053, 31.556259, -111.961975, 101.797134, 13.727677, 100.772457
1759315850.234977, -0.872687, 5.152322, -1.195604, -2.184614, 1.624433, -0.207616, 30.700287, -113.248413, 103.359848, 13.727677, 100.772457
1759315850.255002, -0.337732, 5.054309, -1.658583, -2.513195, 1.603183, -0.181468, 29.809677, -114.341812, 102.950211, 13.727677, 100.772457
1759315850.275002, -0.389806, 5.951836, -2.805855, -2.898676, 1.565499, 0.098926, 28.859940, -116.010773, 103.845428, 13.727677, 100.772457
1759315850.294850, -0.250344, 6.538265, -3.689764, -2.615825, 1.778899, 0.249961, 27.996506, -117.390884, 104.778320, 13.727677, 100.772457
1759315850.315029, -0.414197, 7.449110, -2.763058, -2.166461, 1.969894, -0.020374, 26.926819, -118.608536, 104.609665, 13.727677, 100.772457
1759315850.335047, -0.808193, 8.412626, -1.485303, -2.126884, 2.061831, -0.370079, 25.507919, -119.871887, 105.105927, 13.727677, 100.772457
1759315850.355044, -1.070358, 9.945514, 0.571466, -2.085760, 1.731016, -0.334998, 24.287552, -121.465515, 103.983276, 13.727677, 100.772457
1759315850.374998, -0.915034, 11.023054, 2.436100, -1.627381, 0.820400, 0.004961, 24.099472, -121.749039, 105.139771, 13.727677, 100.772457
1759315850.394746, -0.395791, 10.717644, 3.189226, -1.009887, -0.402871, 0.304275, 23.873337, -122.393616, 104.342789, 13.727677, 100.772457
1759315850.415003, -0.173131, 9.987712, 2.426673, -0.560782, -1.367631, 0.392631, 24.672852, -122.727448, 104.966965, 13.727677, 100.772457
1759315850.434998, -0.232986, 9.362526, 1.226131, -0.417599, -1.748717, 0.321670, 25.757385, -122.982346, 106.594467, 13.727677, 100.772457
1759315850.455007, -0.501585, 9.044695, -0.097115, -0.352461, -1.627603, 0.143013, 26.898178, -122.988586, 106.564682, 13.727677, 100.772457
1759315850.474978, -1.007809, 9.363274, -1.111358, -0.222280, -1.062154, 0.026201, 27.690430, -123.139008, 107.960861, 13.727677, 100.772457
1759315850.494969, -1.442357, 9.323470, -1.232565, -0.216345, -0.469974, 0.026524, 28.156982, -123.292557, 107.428207, 13.727677, 100.772457
1759315850.514998, -1.515979, 9.034370, -1.222090, -0.311591, 0.032178, 0.065639, 28.216888, -123.371918, 107.339920, 13.727677, 100.772457
1759315850.534283, -1.327734, 9.118766, -0.611270, -0.437502, 0.438607, 0.043128, 27.744064, -123.527115, 108.184280, 13.727677, 100.772457
1759315850.555001, -1.176600, 9.656563, -0.061800, -0.408546, 0.665538, 0.011972, 27.382599, -123.938309, 107.189621, 13.727677, 100.772457
1759315850.574996, -0.998831, 10.461165, -0.023643, -0.142562, 0.730092, -0.001706, 26.875290, -124.250885, 107.331146, 13.727677, 100.772457
1759315850.594454, -0.810138, 10.786776, -0.637157, 0.284551, 0.753112, 0.033958, 26.572739, -124.147827, 107.349014, 13.727677, 100.772457
1759315850.615000, -0.733972, 10.600627, -1.384297, 0.354755, 0.736320, 0.002267, 26.163940, -123.895691, 106.390244, 13.727677, 100.772457
1759315850.635002, -0.205303, 9.970054, -1.711106, 0.204587, 0.653843, -0.089782, 25.729034, -123.774384, 107.183823, 13.727677, 100.772457
1759315850.655064, -0.224456, 10.534487, -0.470910, -0.285415, 0.522809, -0.185420, 25.507065, -123.694031, 106.041916, 13.727677, 100.772457
1759315850.674994, 0.090980, 9.287557, 1.609801, -0.696224, 0.185544, -0.002947, 25.074234, -124.149399, 106.224548, 13.727677, 100.772457
1759315850.694650, 0.381576, 7.822306, 1.797746, -0.569710, -0.329528, 0.179207, 25.087784, -124.435608, 107.407578, 13.727677, 100.772457
1759315850.714996, 0.225354, 7.728333, 1.498471, -0.063938, -0.309459, 0.084435, 25.570770, -124.674500, 106.787735, 13.727677, 100.772457
1759315850.734998, -0.461782, 9.008333, 1.047014, 0.174737, 0.125755, -0.113318, 25.330307, -124.639496, 107.389587, 13.727677, 100.772457
1759315850.755064, -1.302146, 10.280852, 0.675315, -0.070552, 0.764726, -0.023931, 25.132614, -124.649734, 106.410767, 13.727677, 100.772457
1759315850.774993, -1.679682, 10.603321, 0.870891, -0.463352, 1.217339, 0.058137, 24.324112, -124.911697, 105.932098, 13.727677, 100.772457
1759315850.794186, -1.973421, 10.090064, 0.847547, -0.542976, 1.319592, 0.156751, 23.479584, -125.159042, 106.141449, 13.727677, 100.772457
1759315850.814998, -1.963096, 9.402329, -0.332794, 0.079760, 1.244290, 0.075619, 22.870789, -125.197754, 105.295959, 13.727677, 100.772457
1759315850.834973, -1.208174, 9.003994, 0.002394, 0.136946, 1.046301, -0.124140, 22.266464, -125.155441, 105.492615, 13.727677, 100.772457
1759315850.854991, -0.680103, 9.069535, 0.215478, -0.329497, 0.810758, -0.200665, 21.904846, -125.310974, 104.645584, 13.727677, 100.772457
1759315850.874843, -0.608576, 9.683349, 0.184952, -0.400153, 0.679580, -0.177468, 21.574631, -125.263290, 105.286377, 13.727677, 100.772457
1759315850.894017, -0.875380, 10.082133, 0.318130, -0.194382, 0.941583, -0.124377, 20.926727, -125.830200, 104.040665, 13.727677, 100.772457
1759315850.914992, -0.909946, 9.586383, 0.492607, -0.139012, 1.096905, -0.070278, 20.434174, -126.030212, 103.725632, 13.727677, 100.772457
1759315850.935049, -0.997335, 9.172635, -0.030975, -0.101429, 1.117556, -0.094837, 19.795654, -125.993317, 103.977173, 13.727677, 100.772457
1759315850.954580, -1.307533, 9.440936, -0.156820, -0.050524, 1.151479, -0.142473, 19.238525, -126.105011, 102.536942, 13.727677, 100.772457
1759315850.974695, -1.061380, 9.540744, -0.304961, -0.087950, 1.350769, -0.104374, 18.682449, -126.302261, 102.640167, 13.727677, 100.772457
1759315850.994963, -0.784550, 9.528623, -0.226701, -0.159331, 1.661707, -0.103183, 17.657028, -126.430145, 100.850967, 13.727677, 100.772457
1759315851.014989, -0.921468, 9.692776, 0.068684, -0.142306, 1.881475, -0.078520, 16.760025, -126.328262, 100.149139, 13.727677, 100.772457
1759315851.034487, -1.041927, 9.915437, 0.311246, -0.073267, 1.877483, -0.048786, 15.932037, -126.337875, 99.630569, 13.727677, 100.772457
1759315851.054990, -1.330278, 9.645191, 0.598850, -0.022650, 1.606355, -0.073676, 15.089584, -126.525848, 98.205948, 13.727677, 100.772457
1759315851.074544, -1.694347, 10.154707, 0.296731, -0.014116, 1.149670, -0.060647, 14.830688, -126.442719, 97.699112, 13.727677, 100.772457
1759315851.094962, -1.055544, 9.983821, -0.436044, -0.115602, 0.789858, 0.047511, 14.417023, -126.435379, 97.139282, 13.727677, 100.772457
1759315851.114988, -0.443227, 9.180716, -0.720056, -0.170926, 0.652108, -0.044856, 13.962296, -126.612854, 96.890549, 13.727677, 100.772457
1759315851.134967, -0.378433, 9.106346, -0.816273, -0.056086, 0.595499, -0.077394, 13.777512, -126.808823, 96.967514, 13.727677, 100.772457
1759315851.154989, -0.232537, 9.581445, -0.679205, -0.021973, 0.557951, -0.125831, 13.604462, -126.900146, 96.096664, 13.727677, 100.772457
1759315851.174398, -0.035763, 10.171018, -0.503680, -0.020687, 0.403557, -0.095661, 13.259109, -127.000992, 95.925583, 13.727677, 100.772457
1759315851.194959, 0.109385, 10.062680, -0.011223, -0.040434, 0.088968, -0.042120, 13.233994, -127.069809, 96.434662, 13.727677, 100.772457
1759315851.214011, -0.093823, 9.630377, 0.308403, -0.107899, -0.261513, -0.011086, 13.431992, -127.083893, 96.520935, 13.727677, 100.772457
1759315851.234993, -0.729034, 9.184008, 0.331747, -0.169431, -0.373218, -0.000513, 13.622009, -127.212967, 97.251572, 13.727677, 100.772457
1759315851.254988, -1.180491, 8.998757, 0.477494, -0.117184, -0.342383, -0.015580, 13.687698, -127.217941, 96.713318, 13.727677, 100.772457
1759315851.274220, -1.479018, 9.512163, 0.399532, -0.070548, -0.322024, -0.041658, 13.686493, -127.429733, 96.504257, 13.727677, 100.772457
1759315851.294960, -1.574188, 9.757270, 0.241216, -0.053759, -0.234350, -0.013710, 13.842468, -127.423172, 97.444473, 13.727677, 100.772457
1759315851.314973, -1.375020, 9.643545, 0.144101, -0.041253, -0.145715, 0.001692, 13.841766, -127.176498, 96.938354, 13.727677, 100.772457
1759315851.334036, -1.117643, 9.724649, 0.134973, -0.042640, -0.139143, 0.019298, 13.842041, -127.284943, 97.681091, 13.727677, 100.772457
1759315851.355039, -0.839168, 9.777620, 0.209642, -0.092598, -0.135704, 0.024382, 13.975128, -127.233093, 97.482254, 13.727677, 100.772457
1759315851.374089, -0.744746, 9.524284, 0.341772, -0.086350, -0.155124, 0.033827, 14.025726, -127.203018, 98.053665, 13.727677, 100.772457
1759315851.394301, -0.969203, 9.310751, 0.547973, -0.043665, -0.219656, 0.058592, 14.076614, -127.348526, 97.841507, 13.727677, 100.772457
1759315851.414987, -1.246930, 9.528923, 0.723498, -0.031793, -0.294312, 0.077157, 13.990753, -127.517715, 97.453720, 13.727677, 100.772457
1759315851.434987, -1.355417, 9.800365, 0.573711, -0.031281, -0.391770, 0.056518, 14.402054, -127.311752, 98.438629, 13.727677, 100.772457
1759315851.454989, -1.257704, 9.820267, 0.231789, -0.009630, -0.463477, 0.033386, 14.376175, -127.471924, 98.223923, 13.727677, 100.772457
1759315851.474278, -1.145625, 9.681254, 0.081552, -0.006451, -0.543307, 0.038748, 14.860580, -127.170990, 99.408432, 13.727677, 100.772457
1759315851.494957, -0.893636, 9.392453, 0.029030, -0.054651, -0.607761, 0.030333, 14.892624, -127.263748, 98.908539, 13.727677, 100.772457
1759315851.514044, -0.788441, 9.384822, 0.183755, -0.108911, -0.561901, 0.034543, 15.283768, -127.485504, 99.009979, 13.727677, 100.772457
1759315851.534980, -0.730082, 9.595212, 0.406266, -0.109293, -0.431716, 0.036457, 15.501343, -127.331329, 100.092468, 13.727677, 100.772457
1759315851.554479, -0.722750, 9.730784, 0.522086, -0.066209, -0.313485, 0.051466, 15.885269, -127.200455, 99.522995, 13.727677, 100.772457
1759315851.574984, -0.897826, 9.569175, 0.477344, -0.042398, -0.213326, 0.074097, 15.987030, -127.276871, 99.857803, 13.727677, 100.772457
1759315851.594963, -1.179743, 9.506477, 0.436493, -0.073616, -0.169277, 0.097006, 16.172318, -127.260742, 100.236847, 13.727677, 100.772457
1759315851.614984, -1.207875, 9.578902, 0.294936, -0.059872, -0.236009, 0.075973, 16.028259, -127.043198, 99.941666, 13.727677, 100.772457
1759315851.634983, -0.980126, 9.582194, 0.064643, -0.027212, -0.318718, 0.042764, 16.297134, -127.234100, 101.044754, 13.727677, 100.772457
1759315851.655035, -0.798167, 9.629030, 0.054917, -0.045804, -0.283088, 0.039968, 16.464066, -127.298248, 100.441086, 13.727677, 100.772457
1759315851.674987, -0.603339, 9.604939, 0.461931, -0.072163, -0.274338, 0.061583, 16.630112, -127.332962, 100.739136, 13.727677, 100.772457
1759315851.694226, -0.617704, 9.614366, 0.655862, -0.057968, -0.297726, 0.085234, 16.768478, -127.283310, 101.409836, 13.727677, 100.772457
1759315851.714999, -0.818218, 9.666140, 0.673220, -0.061123, -0.259362, 0.109667, 16.732819, -127.396301, 101.206924, 13.727677, 100.772457
1759315851.734983, -1.085471, 9.693524, 0.716614, -0.055979, -0.309197, 0.103073, 17.081161, -127.244797, 102.034134, 13.727677, 100.772457
1759315851.754984, -1.184232, 9.548076, 0.504877, -0.065944, -0.356690, 0.098963, 17.135162, -127.343002, 101.541031, 13.727677, 100.772457
1759315851.774987, -1.103428, 9.489867, 0.463727, -0.091494, -0.271017, 0.078295, 17.278915, -127.405273, 101.532303, 13.727677, 100.772457
1759315851.794695, -1.004368, 9.499743, 0.562937, -0.122994, -0.128177, 0.061685, 17.354645, -127.262772, 102.205475, 13.727677, 100.772457
1759315851.814969, -1.088763, 9.562292, 0.645686, -0.169683, 0.011878, 0.063422, 17.387955, -127.528076, 101.618134, 13.727677, 100.772457
1759315851.834980, -1.258003, 9.289951, 0.960973, -0.206906, 0.092544, 0.080749, 17.298569, -127.302353, 102.215042, 13.727677, 100.772457
1759315851.854989, -1.297059, 9.804854, 0.691625, -0.140356, 0.065426, 0.111893, 17.326859, -127.379105, 101.204834, 13.727677, 100.772457
1759315851.874986, -1.335366, 9.187150, 0.491260, -0.172939, 0.155827, 0.144243, 17.236496, -127.439453, 102.266617, 13.727677, 100.772457
1759315851.894955, -0.909198, 8.932766, 1.044919, -0.243182, 0.076150, 0.104540, 17.147507, -127.611328, 101.603745, 13.727677, 100.772457
1759315851.914983, -0.182708, 9.996091, 1.444901, -0.132237, -0.258144, 0.051182, 17.254349, -127.791367, 101.402161, 13.727677, 100.772457
1759315851.934978, 0.290746, 9.991153, 1.300052, -0.005105, -0.719683, 0.015742, 17.780487, -127.622208, 102.816193, 13.727677, 100.772457
1759315851.954980, -0.119112, 9.967510, 0.104597, -0.065598, -0.761381, 0.034943, 18.123688, -127.815384, 102.551758, 13.727677, 100.772457
1759315851.974979, -1.004218, 9.511116, -0.680851, -0.169438, -0.470964, 0.180754, 18.534271, -127.602570, 103.056198, 13.727677, 100.772457
1759315851.994953, -1.439214, 9.626935, -0.840215, -0.154570, -0.187798, 0.204803, 18.545944, -127.692932, 102.107285, 13.727677, 100.772457
1759315852.014974, -1.203535, 9.972299, -0.301370, -0.129624, -0.058553, 0.195489, 18.611221, -127.696442, 102.830841, 13.727677, 100.772457
1759315852.034976, -0.838120, 9.549273, 0.452953, -0.177529, -0.123479, 0.195787, 18.539200, -127.425568, 103.477875, 13.727677, 100.772457
1759315852.054978, -0.950498, 9.365967, 0.619649, -0.161524, -0.082284, 0.182917, 18.701553, -127.550949, 103.123184, 13.727677, 100.772457
1759315852.074981, -1.215955, 9.470414, 0.658405, -0.045838, 0.108550, 0.151159, 18.742752, -127.612595, 102.874100, 13.727677, 100.772457
1759315852.094949, -1.206378, 9.590723, 0.751330, 0.017071, 0.090925, 0.155209, 18.741379, -127.447159, 103.259033, 13.727677, 100.772457
1759315852.114975, -0.910395, 9.476699, 0.416292, 0.021088, -0.142512, 0.173535, 18.760834, -127.344086, 103.008530, 13.727677, 100.772457
1759315852.134985, -0.835726, 9.555408, 0.125995, -0.051410, -0.202087, 0.156704, 18.978668, -127.539902, 103.369858, 13.727677, 100.772457
1759315852.154972, -0.770484, 9.788544, 0.602291, -0.158613, -0.079363, 0.157695, 19.069946, -127.554382, 102.839523, 13.727677, 100.772457
1759315852.174972, -0.411354, 10.154557, 1.413327, -0.185878, -0.105657, 0.191789, 19.193283, -127.829559, 102.764755, 13.727677, 100.772457
1759315852.194951, -0.104148, 10.166528, 1.094001, -0.163434, -0.251039, 0.219301, 19.408707, -127.792297, 104.088852, 13.727677, 100.772457
1759315852.214974, 0.189740, 9.606435, 0.415993, -0.094680, -0.186054, 0.215249, 19.643372, -127.764587, 103.408432, 13.727677, 100.772457
1759315852.234975, 0.219369, 9.635315, 0.000150, -0.062355, 0.061266, 0.222687, 19.607025, -127.565140, 103.982605, 13.727677, 100.772457
1759315852.254973, 0.029179, 10.202142, 0.140659, -0.149728, 0.351890, 0.302842, 19.245026, -127.601913, 103.128220, 13.727677, 100.772457
1759315852.274970, -0.325163, 10.596288, 0.802506, -0.260784, 0.554760, 0.407063, 19.092087, -127.553238, 102.983307, 13.727677, 100.772457
1759315852.294946, -0.622343, 10.464008, 1.671153, -0.303370, 0.635142, 0.469335, 18.808014, -127.354095, 103.561584, 13.727677, 100.772457
1759315852.314981, -1.109862, 9.816077, 1.914763, -0.125402, 0.655285, 0.448509, 18.607422, -127.185669, 102.899216, 13.727677, 100.772457
1759315852.334974, -1.320552, 9.117718, 1.128716, 0.134920, 0.863237, 0.334983, 18.153564, -126.962250, 102.962296, 13.727677, 100.772457
1759315852.354974, -1.200393, 9.218275, 0.959027, 0.091840, 1.169653, 0.230556, 17.786575, -127.098297, 101.903305, 13.727677, 100.772457
1759315852.374979, -0.515202, 9.550919, 1.834258, -0.123421, 1.408247, 0.188533, 17.143082, -126.966766, 101.437912, 13.727677, 100.772457
1759315852.394947, -0.082899, 10.039336, 2.257433, -0.159944, 1.509139, 0.213413, 16.497025, -127.068512, 99.965652, 13.727677, 100.772457
1759315852.414972, 0.459836, 9.682750, 1.676989, 0.004946, 1.564200, 0.205725, 15.837830, -126.761139, 99.271713, 13.727677, 100.772457
1759315852.434976, 0.672621, 9.696217, 0.902614, 0.085199, 1.650096, 0.199562, 15.153641, -126.736115, 99.303467, 13.727677, 100.772457
1759315852.454970, 0.511012, 9.440936, 0.688782, -0.023891, 1.729518, 0.288250, 14.314468, -126.663483, 97.349533, 13.727677, 100.772457
1759315852.474831, 0.318578, 9.113678, 0.945710, -0.044775, 1.786931, 0.306022, 13.803482, -126.502930, 96.795731, 13.727677, 100.772457
1759315852.494946, 0.190638, 9.144204, 1.291223, 0.029856, 1.717516, 0.278013, 13.364090, -126.416794, 95.135590, 13.727677, 100.772457
1759315852.514970, 0.162506, 9.375095, 0.812083, 0.069567, 1.608242, 0.222408, 12.936661, -126.203812, 94.202789, 13.727677, 100.772457
1759315852.534971, 0.020949, 9.187599, -0.188693, 0.016899, 1.684901, 0.178109, 12.283478, -126.032913, 93.797668, 13.727677, 100.772457
1759315852.555010, 0.176423, 8.249820, -0.521786, -0.044696, 1.819000, 0.118348, 11.611221, -125.918274, 92.072372, 13.727677, 100.772457
1759315852.574821, 0.604686, 8.657433, 0.617704, -0.115338, 1.672296, 0.045412, 11.339661, -125.977463, 91.330933, 13.727677, 100.772457
1759315852.594943, 1.212962, 9.326313, 0.644639, -0.277651, 1.443412, 0.011035, 11.088715, -126.116898, 90.826981, 13.727677, 100.772457
1759315852.615013, 1.424550, 9.473557, 0.147094, -0.414473, 1.344847, 0.016973, 10.621384, -126.375992, 90.147766, 13.727677, 100.772457
1759315852.634968, 0.784550, 9.672724, -0.072574, -0.416299, 1.205631, 0.044124, 10.184464, -126.491608, 89.772720, 13.727677, 100.772457
1759315852.654972, 0.309451, 9.278579, -0.028282, -0.348920, 1.012923, 0.007808, 10.215683, -126.586761, 88.855225, 13.727677, 100.772457
1759315852.674664, 0.250194, 9.315390, 0.162806, -0.288142, 0.936414, -0.014190, 9.930588, -126.977676, 88.287582, 13.727677, 100.772457
1759315852.694940, 0.111181, 9.845107, -0.354043, -0.281009, 1.111614, 0.002062, 9.491638, -126.909592, 88.394470, 13.727677, 100.772457
1759315852.714973, -0.047585, 10.068815, -0.885705, -0.255116, 1.468674, 0.049218, 9.507980, -126.953583, 86.981461, 13.727677, 100.772457
1759315852.734946, -0.389058, 9.921721, 0.117466, -0.184781, 1.594944, 0.033153, 9.094864, -126.900116, 86.358231, 13.727677, 100.772457
1759315852.754954, -1.125424, 9.855133, -0.623540, -0.063254, 1.666592, 0.040982, 9.014175, -126.920578, 84.585144, 13.727677, 100.772457
1759315852.774469, -1.238550, 10.260501, -0.720655, 0.014301, 1.837435, 0.085822, 9.043152, -126.731064, 84.824371, 13.727677, 100.772457
1759315852.794474, -0.538995, 12.348095, 1.511639, 0.505821, 1.976019, 0.205095, 8.911774, -126.592758, 82.595657, 13.727677, 100.772457
1759315852.814136, -0.231489, 13.190255, 1.883937, 0.909126, 1.912810, 0.308888, 8.614990, -126.046066, 81.237030, 13.727677, 100.772457
1759315852.834521, 0.644788, 12.288689, 3.431639, 1.649985, 1.496865, 0.119736, 8.682816, -125.899628, 80.654144, 13.727677, 100.772457
1759315852.855019, 0.222511, 10.844088, 2.464980, 1.537173, 1.431609, -0.139834, 8.733536, -125.613068, 79.051849, 13.727677, 100.772457
1759315852.874290, -0.671125, 11.311406, 2.622100, 1.517006, 1.726603, -0.023680, 8.865677, -125.565750, 78.470367, 13.727677, 100.772457
1759315852.894940, -3.082385, 11.092935, 2.465579, 1.480280, 3.611592, -0.222432, 9.162186, -125.477615, 75.756546, 13.727677, 100.772457
1759315852.914948, -6.006453, 12.821997, 1.462408, 1.911213, 5.413436, -0.609818, 9.305939, -125.986099, 72.022705, 13.727677, 100.772457
1759315852.934746, -6.997803, 12.481273, 3.481020, 3.224968, 4.676618, 0.052573, 10.109863, -126.234940, 68.941681, 13.727677, 100.772457
1759315852.954858, -3.550152, 7.821558, -0.272041, 3.133929, 4.366539, -0.341571, 11.121078, -127.038422, 65.158524, 13.727677, 100.772457
1759315852.974103, -2.563741, 6.615778, -0.506224, 2.807412, 4.439683, -0.717470, 12.383881, -128.181717, 61.931702, 13.727677, 100.772457
1759315852.994942, -1.811214, 6.959645, 0.124947, 1.757735, 3.760136, -1.095752, 13.495377, -129.448959, 58.736008, 13.727677, 100.772457
1759315853.014974, -2.101511, 7.788787, 0.895880, 1.248474, 2.515218, -1.170403, 14.690796, -130.580536, 57.317429, 13.727677, 100.772457
1759315853.034618, -2.541445, 8.740632, 0.782156, 0.913393, 1.242229, -1.252573, 15.440857, -131.397430, 56.798630, 13.727677, 100.772457
1759315853.054734, -2.421286, 9.687987, -0.461033, 0.927256, 1.090899, -1.150776, 15.578918, -132.470642, 55.604599, 13.727677, 100.772457
1759315853.074938, -1.456423, 8.811261, -1.001225, 1.003863, 1.945164, -1.121586, 16.564377, -133.411987, 54.938904, 13.727678, 100.772457
1759315853.094759, -0.484078, 8.192060, -1.435474, 0.831092, 2.557226, -1.123021, 17.606384, -134.265137, 54.303589, 13.727678, 100.772457
1759315853.114966, 0.473603, 8.891915, -0.687136, 0.470532, 2.494245, -1.027649, 18.888702, -135.279984, 51.854233, 13.727678, 100.772457
1759315853.134966, 1.233912, 9.412654, -1.456872, 0.271546, 1.852490, -0.759354, 20.146088, -135.654160, 52.066467, 13.727678, 100.772457
1759315853.154576, 1.560271, 8.509442, -1.416021, 0.079656, 1.085570, -0.523735, 20.560242, -136.002472, 50.634018, 13.727678, 100.772457
1759315853.174114, 0.615609, 7.455843, -2.828600, -0.325465, 0.812051, -0.501815, 20.903564, -136.017487, 50.404572, 13.727678, 100.772457
1759315853.194936, -0.569970, 7.562086, -3.494786, -0.759517, 1.145045, -0.341021, 21.618698, -135.849838, 50.515396, 13.727678, 100.772457
1759315853.214956, -0.799663, 7.763199, -3.533542, -1.197899, 1.502728, -0.274096, 22.549896, -135.073334, 49.124664, 13.727678, 100.772457
1759315853.234271, -0.403722, 7.612963, -3.270479, -1.531331, 1.509263, -0.316852, 23.226379, -134.306396, 49.610794, 13.727678, 100.772457
1759315853.254406, 0.049829, 7.608474, -2.929755, -1.704715, 1.159039, -0.300909, 24.161407, -133.472839, 48.561264, 13.727678, 100.772457
1759315853.274943, 0.084246, 8.233809, -2.726248, -1.870753, 0.606620, -0.077080, 24.357498, -132.246658, 48.270721, 13.727678, 100.772457
1759315853.294586, -0.147393, 9.417143, -3.046322, -1.793016, 0.436147, 0.243803, 24.775131, -131.551498, 48.322113, 13.727678, 100.772457
1759315853.314962, -0.140210, 9.641151, -3.619135, -1.294474, 0.602622, 0.393772, 25.013580, -130.462570, 47.762009, 13.727678, 100.772457
1759315853.334956, -0.222062, 9.785252, -4.298789, -0.729775, 0.678737, 0.273872, 25.646561, -129.636551, 48.806747, 13.727678, 100.772457
1759315853.354271, 0.412551, 10.170120, -5.843199, -0.324057, 0.298413, 0.193141, 26.208145, -129.315857, 48.302628, 13.727678, 100.772457
1759315853.374130, 1.034145, 10.569652, -8.059781, 0.192766, 0.827015, 0.295963, 26.375504, -128.964218, 48.799850, 13.727678, 100.772457
1759315853.394933, 0.224157, 10.441862, -6.753145, 0.223718, 2.092499, 0.369485, 27.193893, -129.100494, 47.716202, 13.727678, 100.772457
1759315853.414998, -2.203563, 12.401815, -3.306991, -0.071244, 1.977674, 0.512259, 28.799103, -128.931198, 47.206314, 13.727678, 100.772457
1759315853.433971, -4.078822, 15.033940, -1.694945, 0.131621, 0.561347, 0.318206, 29.628220, -128.621765, 47.228348, 13.727678, 100.772457
1759315853.454115, -5.159056, 14.135217, -1.976862, 0.385066, -0.050323, -0.078892, 29.430603, -128.545547, 46.644974, 13.727678, 100.772457
1759315853.474957, -3.924994, 7.886351, -1.416918, 0.259623, 0.342671, -0.304548, 29.445572, -128.530945, 47.012650, 13.727678, 100.772457
1759315853.494932, -2.098667, 4.876540, 0.885705, -0.535715, 0.966587, -0.305263, 29.805435, -128.030823, 47.002670, 13.727678, 100.772457
1759315853.514650, -0.875380, 5.346552, 1.318008, -0.909908, 0.996162, -0.237117, 30.581100, -127.477936, 47.423355, 13.727678, 100.772457
1759315853.534545, -0.018256, 6.484396, 2.002301, -0.907098, 0.769079, -0.274519, 31.188171, -126.817657, 47.777725, 13.727678, 100.772457
1759315853.553970, -0.185102, 8.461408, 1.576881, -0.786289, 0.174520, -0.241419, 31.376114, -126.259781, 46.735336, 13.727678, 100.772457
1759315853.574953, -0.607678, 10.034099, 1.113154, -0.797338, -0.196380, -0.162127, 31.200562, -125.895828, 47.316086, 13.727678, 100.772457
1759315853.594931, -1.043573, 11.334600, 1.063474, -0.754972, -0.336404, -0.098557, 31.032379, -125.295990, 47.756516, 13.727678, 100.772457
1759315853.614960, -1.399261, 12.455684, 1.112556, -0.626146, -0.315123, -0.004509, 30.873672, -124.961639, 47.459961, 13.727678, 100.772457
1759315853.634958, -1.600823, 12.514193, 0.871340, -0.457362, -0.024136, 0.047260, 30.849075, -124.595490, 48.898193, 13.727678, 100.772457
1759315853.654957, -1.568801, 10.769418, 0.326509, -0.323924, 0.665271, 0.024770, 31.267075, -124.279602, 48.194702, 13.727678, 100.772457
1759315853.674959, -1.179144, 8.934412, 0.327706, -0.306086, 1.242643, -0.011030, 32.194992, -123.882797, 47.627579, 13.727678, 100.772457
1759315853.694930, -0.796820, 8.196998, 0.444873, -0.449584, 1.375176, -0.061533, 32.894302, -123.769409, 47.897141, 13.727678, 100.772457
1759315853.714011, -0.528819, 8.514679, 0.485125, -0.571500, 1.220225, -0.009453, 33.297943, -123.372650, 47.138153, 13.727678, 100.772457
1759315853.734929, -0.307655, 9.075670, 0.722450, -0.506229, 0.932099, 0.057754, 33.848709, -123.088531, 47.842117, 13.727676, 100.772457
1759315853.754944, -0.345364, 9.941623, 2.272696, -0.192204, 0.264606, 0.043282, 33.485672, -122.604034, 46.846191, 13.727676, 100.772457
1759315853.774198, -1.482160, 9.342923, 10.034698, 0.207333, -3.291335, -0.234171, 33.505966, -123.089767, 47.849152, 13.727676, 100.772457
1759315853.794927, 0.092476, 10.549750, -3.999215, -0.535404, -1.654019, -0.230973, 32.074905, -123.184204, 48.185944, 13.727676, 100.772457
1759315853.814732, 0.846500, 9.595212, -5.662736, -0.477513, 0.825797, 0.104180, 31.837646, -122.657135, 48.001968, 13.727676, 100.772457
1759315853.834751, 0.437840, 9.123105, -3.604920, -0.511580, 2.586115, 0.061924, 33.266418, -122.168655, 48.342957, 13.727676, 100.772457
1759315853.854284, -0.623091, 9.730484, -1.083227, -0.584530, 3.203371, 0.083464, 34.931992, -121.843430, 47.566711, 13.727676, 100.772457
1759315853.874951, -0.736067, 9.362226, 0.461782, -0.541738, 3.049664, 0.021230, 36.839600, -121.446274, 47.924255, 13.727676, 100.772457
1759315853.894701, -0.625784, 9.738266, 1.659930, -0.232053, 2.359861, -0.093199, 38.524078, -121.133469, 47.011551, 13.727676, 100.772457
1759315853.914952, -0.631920, 10.242095, 1.828721, 0.094467, 1.322376, -0.183778, 39.413483, -121.140472, 46.782028, 13.727676, 100.772457
1759315853.934954, -0.005836, 10.253917, -0.165649, 0.129855, 0.592077, -0.284856, 39.830383, -121.295456, 47.442444, 13.727676, 100.772457
1759315853.954132, 0.640299, 10.037690, -2.026243, 0.136338, 0.332286, -0.303674, 40.155121, -121.483734, 46.743576, 13.727676, 100.772457
1759315853.974950, 0.790535, 9.795427, -2.478298, -0.009602, 0.145191, -0.406570, 40.192688, -121.570740, 47.073334, 13.727676, 100.772457
1759315853.994925, -0.028431, 10.551097, -1.098490, -0.008311, 0.028970, -0.359689, 39.893600, -121.354172, 46.486816, 13.727676, 100.772457
1759315854.014950, -0.026935, 11.131841, 0.820014, -0.025901, -0.094988, -0.342631, 39.881683, -121.351486, 46.600616, 13.727676, 100.772457
1759315854.034959, 0.145448, 10.898107, 1.902044, 0.037824, -0.325941, -0.126340, 39.372559, -121.088318, 47.459366, 13.727676, 100.772457
1759315854.054959, -0.016310, 9.475203, 1.431284, 0.277130, -0.121378, 0.020554, 39.426056, -121.167267, 46.756836, 13.727676, 100.772457
1759315854.074960, -1.118691, 8.692448, 0.616357, 0.295080, 0.782991, 0.110035, 39.824982, -121.220886, 46.619797, 13.727676, 100.772457
1759315854.094924, -1.779041, 8.389283, 0.954089, 0.062251, 1.554394, 0.104554, 41.007202, -121.152237, 47.574371, 13.727676, 100.772457
1759315854.114949, -2.094328, 8.800936, 1.456572, -0.196887, 1.649682, 0.113922, 42.082642, -120.949524, 46.547211, 13.727676, 100.772457
1759315854.134951, -2.086547, 9.128193, 1.614889, -0.387289, 1.251718, 0.146743, 42.798584, -120.657242, 47.510437, 13.727676, 100.772457
1759315854.154949, -1.564611, 8.859594, 1.085022, -0.423202, 0.683155, 0.010099, 43.126923, -120.623352, 46.710800, 13.727676, 100.772457
1759315854.174951, -1.251868, 9.064298, -0.671574, 0.247322, 0.268645, -0.189607, 43.319717, -120.765060, 46.652390, 13.727676, 100.772457
1759315854.194927, -0.883311, 9.585935, -0.720954, 0.285520, 0.148555, -0.271589, 43.380432, -120.940140, 47.093750, 13.727676, 100.772457
1759315854.214945, -0.807145, 10.138546, -0.221913, -0.102119, 0.185020, -0.145943, 43.516174, -120.777008, 46.847656, 13.727676, 100.772457
1759315854.234933, -1.025167, 10.092159, 0.672771, -0.212125, 0.148277, -0.025500, 43.431931, -120.565063, 47.405487, 13.727676, 100.772457
1759315854.254932, -1.330877, 9.437195, 0.715268, -0.039827, 0.220886, -0.022984, 43.464981, -120.474136, 46.889816, 13.727676, 100.772457
1759315854.274952, -1.231069, 8.971074, 0.324863, 0.118408, 0.368346, -0.064527, 43.897598, -120.516998, 48.032135, 13.727676, 100.772457
1759315854.294921, -1.238700, 9.006089, -0.079009, 0.136719, 0.350614, -0.087686, 44.124420, -120.485916, 47.136032, 13.727676, 100.772457
1759315854.314942, -1.019631, 9.553314, -0.011372, 0.049317, 0.193965, -0.138923, 44.308350, -120.696442, 46.857040, 13.727676, 100.772457
1759315854.334951, -0.589722, 9.893141, 0.320524, -0.028900, -0.211313, -0.159759, 44.311264, -120.704224, 47.519989, 13.727676, 100.772457
1759315854.354950, -0.213383, 9.548525, 0.416441, -0.044594, -0.683127, -0.124236, 43.754364, -120.691254, 47.017487, 13.727676, 100.772457
1759315854.374948, -0.100706, 9.221118, 0.368408, -0.069882, -1.072086, -0.042889, 43.372726, -120.528320, 47.930344, 13.727676, 100.772457
1759315854.394920, -0.376787, 9.716718, 0.222212, -0.193779, -1.269054, -0.002955, 42.344727, -120.552536, 47.161331, 13.727676, 100.772457
1759315854.414947, -0.867449, 10.050859, 0.081253, -0.324137, -1.181650, 0.057585, 41.621399, -120.379272, 47.463272, 13.727676, 100.772457
1759315854.434943, -1.332224, 10.087221, 0.122703, -0.282989, -0.783598, 0.177769, 41.222931, -119.927643, 47.651520, 13.727676, 100.772457
1759315854.454952, -1.627608, 9.773730, 0.188543, -0.228393, -0.241666, 0.134620, 41.033218, -119.835327, 47.579590, 13.727676, 100.772457
1759315854.474949, -1.798794, 9.602095, 0.502633, -0.201287, 0.150446, 0.040921, 41.142776, -119.735535, 47.728729, 13.727676, 100.772457
1759315854.494925, -1.811064, 9.428366, 0.743100, -0.153062, 0.188073, 0.083996, 41.193924, -119.499481, 47.922501, 13.727676, 100.772457
1759315854.514025, -1.715595, 8.989030, 0.199168, 0.121342, -0.015884, 0.048282, 41.227982, -119.573639, 47.693130, 13.727676, 100.772457
1759315854.534943, -1.407342, 9.477747, -0.059107, 0.284052, -0.190250, -0.108524, 41.404617, -119.598053, 49.026779, 13.727676, 100.772457
1759315854.554965, -0.994641, 9.900024, -0.226252, 0.055377, -0.258848, -0.046477, 41.259552, -119.707672, 47.729568, 13.727676, 100.772457
1759315854.574944, -0.799514, 9.579799, -0.271293, -0.265283, -0.087314, -0.004416, 41.020035, -119.715271, 47.600632, 13.727676, 100.772457
1759315854.594918, -0.839317, 9.374497, 0.229544, -0.273008, 0.084480, 0.051269, 41.140961, -119.447021, 48.380981, 13.727676, 100.772457
1759315854.614950, -1.104625, 9.436596, 0.580594, -0.085274, 0.169643, 0.013783, 41.151749, -119.338074, 48.086792, 13.727676, 100.772457
1759315854.634915, -1.272668, 9.529671, 0.760608, -0.012077, 0.216482, -0.007256, 41.192841, -119.386139, 48.933945, 13.727676, 100.772457
1759315854.654900, -1.558476, 9.487473, 0.808492, -0.029316, 0.171621, 0.009083, 41.440292, -119.153625, 47.819763, 13.727676, 100.772457
1759315854.674947, -1.417966, 10.228329, 0.951246, -0.080929, 0.013761, 0.018577, 41.181381, -119.453079, 48.079498, 13.727676, 100.772457
1759315854.694917, -0.975637, 10.265888, 0.659752, -0.086137, -0.220585, -0.018102, 41.082367, -119.337921, 48.449066, 13.727676, 100.772457
1759315854.714719, -0.976984, 9.327959, 0.161160, -0.016862, -0.290849, -0.018725, 40.670273, -119.364990, 48.742386, 13.727676, 100.772457
1759315854.734936, -1.058985, 8.929624, 0.067935, 0.001763, -0.104170, -0.071639, 40.716049, -119.192245, 48.690689, 13.727676, 100.772457
1759315854.754765, -1.013495, 9.341427, 0.282067, -0.050936, 0.078937, -0.133347, 40.954117, -119.124619, 47.945419, 13.727676, 100.772457
1759315854.774950, -0.980874, 9.852738, 0.732027, -0.070470, 0.097143, -0.125737, 40.838226, -119.214813, 48.819717, 13.727676, 100.772457
1759315854.794588, -0.570718, 9.894188, 0.785897, -0.012578, -0.055295, -0.070077, 40.853302, -119.252380, 48.127411, 13.727676, 100.772457
1759315854.814943, -0.458490, 9.763405, 0.413598, 0.036489, -0.065699, -0.037627, 40.859314, -119.288086, 47.819107, 13.727676, 100.772457
1759315854.834941, -0.474202, 9.615114, 0.102801, -0.025415, 0.049511, -0.038962, 40.826477, -119.341125, 48.269287, 13.727676, 100.772457
1759315854.854639, -0.742502, 9.604789, 0.048931, -0.040463, 0.167007, -0.001504, 41.097931, -119.397202, 47.821091, 13.727676, 100.772457
1759315854.874945, -0.733524, 9.353398, -0.166846, 0.066668, 0.210718, -0.031201, 41.051071, -119.081680, 48.244354, 13.727676, 100.772457
1759315854.894299, -0.729932, 9.638607, -0.461931, 0.155905, 0.247601, -0.091844, 41.160355, -119.530258, 47.887634, 13.727676, 100.772457
1759315854.914947, -0.628927, 9.892991, -0.809539, 0.066700, 0.320984, -0.094228, 41.317902, -119.441376, 47.696243, 13.727676, 100.772457
1759315854.934936, -0.306159, 10.180744, -0.658106, 0.068181, 0.282392, -0.120539, 41.437210, -119.331802, 48.587891, 13.727676, 100.772457
1759315854.954555, -0.093673, 9.993697, -0.466869, 0.150958, 0.123578, -0.076047, 41.550095, -119.426727, 48.509308, 13.727676, 100.772457
1759315854.974943, -0.193182, 9.800964, -0.247950, 0.170408, -0.060166, -0.031765, 41.417725, -119.418747, 47.531174, 13.727676, 100.772457
1759315854.994913, -0.572513, 9.701604, -0.117765, 0.149417, -0.241114, 0.010952, 41.357162, -119.590408, 49.128250, 13.727676, 100.772457
1759315855.014938, -0.899621, 9.469217, -0.159663, 0.251475, -0.312392, 0.012397, 41.285172, -119.724152, 47.939438, 13.727676, 100.772457
1759315855.034937, -1.138892, 9.290550, -0.437690, 0.578076, -0.201889, -0.023224, 41.164902, -120.033127, 48.449081, 13.727676, 100.772457
1759315855.054359, -1.400009, 9.398289, -1.063325, 1.107549, 0.131252, -0.053869, 41.218887, -120.818848, 46.875702, 13.727676, 100.772457
1759315855.074940, -1.800440, 10.130316, -1.988085, 1.700659, 0.778078, -0.112129, 41.701965, -121.723770, 46.389694, 13.727676, 100.772457
1759315855.094911, -2.572121, 11.929858, -2.890400, 2.511100, 1.349989, -0.132111, 42.522552, -123.430023, 46.469940, 13.727676, 100.772457
1759315855.114042, -3.108871, 12.394333, -3.102436, 3.300953, 1.446721, -0.131952, 43.424042, -125.549744, 44.865372, 13.727676, 100.772457
1759315855.134904, -2.972252, 11.227309, -3.147028, 3.319873, 1.357528, -0.334032, 44.282608, -127.548187, 45.726685, 13.727676, 100.772457
1759315855.154181, -2.293645, 9.693374, -2.646640, 2.727535, 0.268107, -0.532889, 44.225342, -129.465546, 44.033203, 13.727676, 100.772457
1759315855.174936, -1.131111, 9.416545, -6.161179, 2.724930, -0.300066, -0.619949, 44.007294, -131.230194, 44.073334, 13.727676, 100.772457
1759315855.194909, -0.274884, 9.359682, -4.844069, 2.624594, 0.049690, -0.714567, 43.612625, -132.998459, 44.363403, 13.727676, 100.772457
1759315855.214922, 0.305859, 10.053851, -2.662053, 2.173019, -0.314821, -0.597495, 43.106308, -134.537781, 43.558731, 13.727676, 100.772457
1759315855.234713, 1.501464, 11.824513, -2.599056, 2.153165, -0.859929, 0.088615, 43.282059, -134.932632, 44.581650, 13.727676, 100.772457
1759315855.254036, 1.435922, 11.943026, -4.202722, 2.394418, -1.431614, 0.631055, 42.275391, -136.354843, 44.122971, 13.727676, 100.772457
1759315855.274942, 0.178518, 9.814730, -3.919308, 2.604404, -2.374609, 0.640605, 40.769897, -137.916458, 44.983170, 13.727676, 100.772457
1759315855.294909, -2.080262, 7.636306, -5.152621, 2.789432, -3.000652, 0.338488, 38.574539, -139.899384, 44.409805, 13.727676, 100.772457
1759315855.314935, -3.670461, 5.786486, -6.010643, 2.540697, -2.775567, 0.194146, 36.923981, -141.564285, 45.425781, 13.727676, 100.772457
1759315855.334530, -4.529081, 3.675548, -6.684461, 2.209813, -2.234576, 0.060696, 35.270004, -142.943649, 46.413071, 13.727676, 100.772457
1759315855.354933, -4.049792, 4.162170, -7.455544, 1.978295, -1.497069, -0.150930, 34.360352, -144.266510, 46.297394, 13.727676, 100.772457
1759315855.374935, -2.574365, 5.424213, -6.648399, 1.803286, -1.089959, -0.220736, 33.733643, -145.143188, 47.143021, 13.727676, 100.772457
1759315855.394590, -2.348413, 5.926547, -6.744466, 1.720338, -0.940005, -0.196966, 33.006821, -146.334625, 47.655701, 13.727676, 100.772457
1759315855.414959, -3.327641, 5.211429, -6.400449, 1.621372, -0.849461, -0.251387, 32.527130, -147.162170, 47.760025, 13.727676, 100.772457
1759315855.434387, -3.419818, 4.879084, -5.342062, 1.568857, -1.032110, -0.270552, 31.938446, -148.198090, 48.985367, 13.727676, 100.772457
1759315855.454929, -3.148974, 4.281880, -5.393987, 1.453734, -1.102516, -0.191233, 31.447556, -148.787170, 49.228622, 13.727676, 100.772457
1759315855.474930, -3.005920, 3.551499, -5.996278, 1.217849, -0.918868, -0.137593, 30.931030, -149.567322, 49.882645, 13.727676, 100.772457
1759315855.494215, -2.739116, 4.340239, -5.642535, 1.001729, -0.884928, -0.010137, 30.094437, -150.011581, 50.539566, 13.727676, 100.772457
1759315855.514984, -3.459771, 3.904344, -6.300042, 0.796218, -0.690976, 0.011310, 29.863831, -150.262650, 50.402710, 13.727676, 100.772457
1759315855.534225, -4.148553, 3.486107, -5.939116, 0.495266, -0.555080, 0.019224, 29.479050, -150.382034, 51.303513, 13.727676, 100.772457
1759315855.554932, -4.811597, 2.993500, -6.975207, 0.258927, -0.245426, 0.097863, 29.266556, -150.363403, 50.552002, 13.727676, 100.772457
1759315855.574937, -4.356100, 3.640982, -6.232705, -0.149763, 0.100587, 0.138206, 29.256271, -150.051514, 50.610550, 13.727676, 100.772457
1759315855.594506, -4.222474, 2.788048, -6.477363, -0.475807, 0.236724, 0.182884, 29.294098, -149.519592, 50.707169, 13.727676, 100.772457
1759315855.614947, -4.142119, 3.069067, -7.864055, -0.883022, 0.578710, 0.376632, 29.677475, -148.712234, 49.543900, 13.727676, 100.772457
1759315855.634074, -4.952556, 3.167828, -8.490587, -1.214501, 0.729727, 0.512890, 29.894135, -147.551346, 49.856522, 13.727676, 100.772457
1759315855.654977, -4.637269, 4.214842, -10.683077, -1.360731, 0.625188, 0.636046, 30.006790, -146.749664, 47.978302, 13.727676, 100.772457
1759315855.674978, -3.375525, 7.604433, -15.027057, -0.619996, 0.738748, 0.660765, 30.429901, -147.075180, 47.963028, 13.727676, 100.772457
1759315855.694905, -4.043058, 14.552856, -13.672837, 1.430489, 0.283776, 0.196626, 30.767929, -147.302811, 48.266815, 13.727676, 100.772457
1759315855.714932, -7.464672, 9.399336, -6.517765, -1.121510, -1.439876, -0.167935, 29.588730, -146.414444, 48.308762, 13.727676, 100.772457
1759315855.733922, -8.730905, 7.670424, -9.411158, -2.014985, 0.222971, -0.507852, 29.552948, -145.035278, 48.213303, 13.727676, 100.772457
1759315855.754937, -4.683058, 7.225701, -3.203442, -2.187806, 0.557676, 0.017686, 29.697678, -143.521240, 47.263245, 13.727676, 100.772457
1759315855.774939, -1.236904, 3.019388, -0.380828, -3.012603, 0.969578, 0.264790, 30.082550, -141.287064, 47.187103, 13.727676, 100.772457
1759315855.794920, -0.306159, 5.124340, -2.681805, -2.614523, 2.194993, 0.851671, 31.152481, -139.712509, 45.277954, 13.727676, 100.772457
1759315855.814952, -1.219397, 9.100959, -5.624129, -2.317494, 3.773788, 0.569888, 33.180634, -137.882492, 44.371994, 13.727676, 100.772457
1759315855.834451, -2.976591, 12.248736, -4.721515, -2.432466, 3.987336, 0.227413, 36.240845, -135.860260, 44.045502, 13.727676, 100.772457
1759315855.854909, -3.367295, 12.897265, -5.197812, -3.350128, 2.052314, -0.494506, 38.233994, -133.765289, 42.538071, 13.727676, 100.772457
1759315855.874916, -1.814356, 10.634595, -3.734356, -3.602841, 1.370838, 0.105088, 38.950455, -131.131744, 42.603043, 13.727676, 100.772457
1759315855.894903, -1.338658, 8.035839, -1.963844, -3.664632, 1.185317, 0.303866, 39.991821, -128.370026, 43.202591, 13.727676, 100.772457
1759315855.914909, -1.875408, 7.418434, -1.414674, -3.616757, 1.396635, 0.332405, 40.827820, -125.562881, 42.875305, 13.727676, 100.772457
1759315855.934980, -1.200842, 7.050774, 0.243011, -3.276044, 1.330534, 0.523142, 42.075333, -122.944550, 44.437088, 13.727676, 100.772457
