SamplingTime, AccelerationX, AccelerationY, AccelerationZ, GyroX, GyroY, GyroZ, MagneticFieldX, MagneticFieldY, MagneticFieldZ, Latitude, Longitude
1759228301.562987, 1.693000, 2.790891, -9.052626, 0.694809, 0.788519, -0.195881, -49.253143, 5.432022, -112.326767, , 
1759228301.583133, 2.306664, 2.250998, -11.417499, 1.158214, 1.755848, -0.094517, -49.535919, 5.790894, -112.661102, , 
1759228301.603136, 2.604742, 2.010980, -10.242245, 1.092756, 1.826742, 0.067957, -49.811386, 6.020920, -113.279724, , 
1759228301.623106, 3.501370, 1.784578, -8.617330, 0.689036, 1.103699, 0.119500, -50.008026, 6.170059, -113.075867, , 
1759228301.643193, 2.914641, 1.242740, -7.289147, 0.228851, -0.202054, 0.114102, -49.844299, 6.058441, -113.783630, 13.728178, 100.772385
1759228301.662957, 3.256862, 1.225831, -7.494150, 0.195389, -0.919981, -0.213054, -49.567627, 6.320129, -113.297913, 13.728178, 100.772385
1759228301.682997, 2.644994, 0.738312, -8.070405, 0.267242, -1.681925, -0.441524, -50.025284, 6.116196, -113.953323, 13.728178, 100.772385
1759228301.702294, 3.472490, 1.369783, -7.353192, 0.316907, -2.581715, -0.454802, -50.199844, 6.438766, -114.615372, 13.728178, 100.772385
1759228301.723135, 3.811270, 2.284517, -7.905055, 0.025939, -3.575476, -0.626752, -50.258148, 6.308365, -114.337433, 13.728178, 100.772385
1759228301.743126, 2.483835, 2.084901, -9.890746, -0.516925, -4.702382, -0.812690, -50.300446, 6.334625, -115.167435, 13.728178, 100.772385
1759228301.762981, 0.722151, 2.006491, -10.077195, -1.382743, -3.405404, -0.799811, -50.268417, 6.096695, -114.513870, 13.728178, 100.772385
1759228301.783111, -1.128417, 1.599776, -12.444312, -1.282861, -1.894194, -0.726315, -50.723160, 6.136993, -113.692886, 13.728178, 100.772385
1759228301.802479, 1.063474, 2.050783, -9.618855, -0.772265, -1.545147, -0.451783, -51.065216, 6.046371, -113.893051, 13.728178, 100.772385
1759228301.823297, -0.216526, 2.075623, -9.415946, -0.272038, -1.755873, -0.344847, -50.662170, 6.321854, -113.678741, 13.728178, 100.772385
1759228301.842840, -0.695964, 2.603844, -7.674015, 0.331605, -3.077431, -0.264552, -50.869141, 6.314041, -114.191086, 13.728178, 100.772385
1759228301.862974, -0.902315, 2.687641, -7.267898, 1.262336, -3.408404, -0.223847, -50.616089, 6.204605, -115.358505, 13.728178, 100.772385
1759228301.883129, -1.399710, 3.520823, -9.477447, 2.078892, -4.500594, -0.582631, -50.451477, 6.395020, -116.611694, 13.728178, 100.772385
1759228301.903128, -1.010054, 2.559252, -5.724087, 2.392083, -4.142624, -1.275955, -51.144058, 6.786484, -118.010544, 13.728178, 100.772385
1759228301.922200, -5.345803, 0.679355, -17.222241, 2.356246, -0.875733, -1.526145, -51.882431, 6.780289, -119.477554, 13.728178, 100.772385
1759228301.943123, -4.891055, 1.239149, -10.468796, 1.223331, -1.039328, -0.221166, -52.458649, 6.834824, -120.778839, 13.728178, 100.772385
1759228301.962956, -3.637541, 0.803554, -5.280262, -0.288200, -2.977767, 0.093266, -52.392822, 7.051025, -121.186600, 13.728178, 100.772385
1759228301.982412, -5.131672, -0.336236, -9.304317, -0.517588, -3.432923, 0.046326, -52.620621, 6.991058, -120.921707, 13.728178, 100.772385
1759228302.002853, -3.325546, -0.576853, -9.333197, 2.358777, -0.815970, -0.244144, -52.793961, 6.653702, -121.281097, 13.728178, 100.772385
1759228302.023131, -3.765481, -2.401684, -9.204359, 3.197978, -2.112298, 0.561492, -53.267380, 6.713989, -123.117493, 13.728178, 100.772385
1759228302.042655, -5.192874, -0.690877, -7.180660, 2.456324, -2.556570, 0.667133, -52.783920, 6.172440, -124.746170, 13.728178, 100.772385
1759228302.062126, -6.159982, 0.381875, -5.940314, 0.829240, -2.412741, 0.597317, -52.957153, 6.362274, -125.662979, 13.728178, 100.772385
1759228302.082314, -6.782923, 1.227028, -5.260211, -0.531623, -1.586567, 0.719091, -52.602310, 6.210022, -125.951447, 13.728178, 100.772385
1759228302.103125, -6.011990, 2.235137, -5.724835, -1.966398, -1.697456, 0.672120, -52.479813, 6.278961, -124.803680, 13.728178, 100.772385
1759228302.123125, -4.848408, 1.602918, -6.237344, -2.549170, -1.208005, 0.567648, -51.977692, 6.525421, -123.320297, 13.728178, 100.772385
1759228302.143128, -5.887342, 0.748338, -7.103447, -2.561943, -0.466705, 0.351310, -51.548019, 6.238785, -121.860748, 13.728178, 100.772385
1759228302.163126, -7.375189, 1.670554, -8.877101, -1.869042, -0.156798, -0.309683, -51.996429, 6.295715, -120.929764, 13.728178, 100.772385
1759228302.183142, -3.283498, 4.194941, -6.252308, -1.318995, 0.256802, -0.159846, -52.261780, 6.125351, -119.902481, 13.728178, 100.772385
1759228302.203123, -8.191013, 1.968034, -5.352836, -1.287025, -0.414727, -0.587874, -52.549759, 6.624847, -119.185043, 13.728178, 100.772385
1759228302.223028, -7.101651, 2.954146, -5.335329, -1.582963, -1.217102, -0.129096, -52.667969, 6.525101, -118.532639, 13.728178, 100.772385
1759228302.242315, -7.073669, 1.556231, -6.929867, -1.582577, -1.577605, 0.383269, -52.658615, 6.761292, -118.022141, 13.728178, 100.772385
1759228302.263126, -6.537218, 1.344344, -7.183952, -1.126703, -1.673847, 0.582598, -52.440765, 6.665192, -117.178482, 13.728178, 100.772385
1759228302.283168, -7.016807, 1.737293, -6.802376, -0.646669, -1.776603, 0.854557, -51.949051, 6.340393, -116.754578, 13.728178, 100.772385
1759228302.303186, -8.706814, 2.179023, -6.042666, -0.230777, -2.104540, 1.322954, -50.242798, 6.186249, -117.263672, 13.728178, 100.772385
1759228302.323113, -9.165154, 3.034202, -2.899528, -0.176954, -3.129763, 1.901425, -49.339355, 5.851135, -116.870773, 13.728178, 100.772385
1759228302.342716, -8.450933, 3.750068, -2.902371, -0.749581, -2.962410, 2.423125, -48.585876, 5.461075, -116.453033, 13.728178, 100.772385
1759228302.363124, -9.316288, 4.493917, -3.946991, -1.227446, -2.624425, 2.227655, -46.798431, 4.983185, -117.004593, 13.728178, 100.772385
1759228302.383194, -10.342652, 3.902100, -3.572149, -1.380784, -1.938371, 1.538243, -45.911057, 4.710922, -116.050781, 13.728178, 100.772385
1759228302.403122, -11.422138, 4.335001, -2.460042, -1.510604, -1.421532, 1.107615, -45.004898, 4.487503, -115.790939, 13.728178, 100.772385
1759228302.423051, -11.165060, 4.895843, -2.114080, -1.751593, -1.343563, 0.790454, -44.392426, 4.288788, -115.115341, 13.728178, 100.772385
1759228302.443157, -11.252299, 4.969016, -1.752256, -2.043402, -1.703187, 0.668845, -44.317703, 3.627014, -114.704147, 13.728178, 100.772385
1759228302.463131, -10.893767, 4.649540, -0.696114, -2.434107, -1.647085, 0.594630, -44.096848, 3.752335, -113.956467, 13.728178, 100.772385
1759228302.483124, -11.319935, 4.476858, -1.427842, -2.558720, -1.456110, 0.296040, -43.926453, 3.352997, -112.629166, 13.728178, 100.772385
1759228302.503190, -11.833791, 5.031714, -0.787243, -2.358971, -1.783555, 0.088620, -43.724243, 3.237900, -111.659515, 13.728178, 100.772385
1759228302.523174, -11.280431, 4.774637, 0.564732, -2.298584, -2.306036, 0.028643, -43.524643, 2.909241, -111.298294, 13.728178, 100.772385
1759228302.543119, -10.655544, 3.642927, 2.260725, -2.795455, -2.431724, -0.102186, -43.207794, 2.689697, -110.688461, 13.728178, 100.772385
1759228302.562321, -10.747871, 4.175637, 1.422305, -3.381250, -1.609095, -0.522788, -43.098587, 2.323624, -109.492645, 13.728178, 100.772385
1759228302.583132, -9.565434, 4.624999, 0.717213, -3.332008, -0.853430, -1.092584, -43.209869, 1.921860, -107.599030, 13.728178, 100.772385
1759228302.603139, -7.107038, 3.651158, -0.142605, -3.115773, -0.155949, -1.085628, -44.262955, 1.667465, -106.192429, 13.728178, 100.772385
1759228302.622231, -5.852476, 2.198027, -0.797419, -2.798540, 0.235789, -0.812150, -44.843918, 1.029327, -104.594543, 13.728178, 100.772385
1759228302.643121, -7.490410, 1.779041, -1.552191, -2.300694, 0.935607, -0.873510, -45.380890, 0.369370, -103.624115, 13.728178, 100.772385
1759228302.662713, -6.527791, 0.502633, -3.197756, -1.460654, 1.380818, -0.794825, -46.383881, 0.061172, -102.728836, 13.728178, 100.772385
1759228302.683121, -3.607613, -0.248099, -4.368670, -0.124883, 1.055344, -0.004433, -46.785919, 0.287460, -102.153275, 13.728178, 100.772385
1759228302.703121, -9.516353, 3.202095, 1.865382, -0.580337, 1.102688, -0.418458, -47.065735, 0.075531, -101.946915, 13.728178, 100.772385
1759228302.723115, -8.904635, 3.884742, -0.352696, -0.576809, 1.215705, -0.791521, -47.658035, 0.090424, -101.678650, 13.728178, 100.772385
1759228302.742939, -8.045266, 2.263418, 1.107318, -0.832502, 1.013285, -0.563742, -48.409164, -0.432877, -100.890503, 13.728178, 100.772385
1759228302.763112, -9.072827, 3.469497, 0.783502, -1.004206, 1.050362, -0.445552, -48.707474, -0.764450, -100.564209, 13.728178, 100.772385
1759228302.783120, -9.841067, 3.046023, 1.356166, -1.127415, 1.245214, -0.651232, -49.521255, -1.164261, -99.645721, 13.728178, 100.772385
1759228302.803046, -9.527277, 2.741959, 1.010054, -0.709188, 1.046500, -0.445762, -50.169342, -1.429672, -99.174561, 13.728178, 100.772385
1759228302.823152, -10.118944, -1.051055, -1.467346, -0.058942, 0.692265, -0.403810, -50.346237, -1.159805, -99.310028, 13.728178, 100.772385
1759228302.843251, -12.684031, -3.929035, -2.125153, 0.535483, 0.542156, -0.868269, -50.997986, -0.956436, -99.013687, 13.728178, 100.772385
1759228302.863121, -12.149376, -1.479617, 0.820463, 0.683580, 0.402100, -0.588045, -51.344681, -0.824539, -99.490494, 13.728178, 100.772385
1759228302.883206, -11.559206, 2.368165, 2.918532, 0.277026, 0.437348, -0.707515, -51.689774, -0.444229, -99.340805, 13.728178, 100.772385
1759228302.903322, -11.947814, 3.034202, 5.170578, -0.892056, 1.107909, -1.139387, -52.973022, -0.744980, -98.986755, 13.728178, 100.772385
1759228302.923321, -7.773674, 4.379144, 5.418078, -1.631647, 1.494012, -0.780068, -53.518845, -1.108627, -98.407425, 13.728178, 100.772385
1759228302.943326, -4.175188, 3.577835, 0.772729, -1.183068, 1.740377, -0.269081, -54.606842, -1.678833, -97.752426, 13.728178, 100.772385
1759228302.963162, -5.113267, 3.687819, -1.228375, -1.160043, 2.446032, -0.004233, -55.359802, -1.882721, -97.182220, 13.728178, 100.772385
1759228302.983222, -4.503942, 4.482694, -1.710507, -1.013129, 2.525995, 0.682458, -56.399521, -2.452286, -96.802979, 13.728178, 100.772385
1759228303.003129, -8.995764, 4.700566, -3.564218, -0.730696, 1.556209, 0.849561, -56.557602, -2.658264, -96.982437, 13.728178, 100.772385
1759228303.023116, -10.898256, 4.981137, -1.045668, -0.807410, 0.786100, 1.101909, -56.640640, -2.935028, -96.635101, 13.728178, 100.772385
1759228303.043123, -8.103774, 5.156362, -1.508197, -0.745576, 0.370980, 2.195500, -56.373337, -3.569870, -96.078720, 13.728178, 100.772385
1759228303.062403, -4.291307, 6.483199, -0.957381, -0.551646, 0.010685, 2.949937, -55.105972, -3.473999, -96.208450, 13.728178, 100.772385
1759228303.083110, -7.648576, 8.097340, 0.147393, -0.624171, 0.630466, 2.596320, -54.035889, -3.889053, -96.160095, 13.728178, 100.772385
1759228303.103124, -12.188731, 6.095189, -2.143259, -0.277771, 1.223880, 1.184074, -54.123245, -4.224960, -95.604843, 13.728178, 100.772385
1759228303.123115, -11.820623, 1.610550, -3.001730, -0.251688, 0.865287, 1.040286, -54.431076, -4.068924, -95.560242, 13.728178, 100.772385
1759228303.143123, -11.202470, 4.613776, -2.508076, -0.273495, -0.242831, 0.640924, -54.187256, -4.463394, -95.604446, 13.728178, 100.772385
1759228303.162659, -15.840786, 5.710770, -0.714071, -0.352384, -0.365096, -0.642732, -54.017075, -4.510117, -95.135162, 13.728178, 100.772385
1759228303.183169, -12.580033, 3.570503, -3.222446, 0.020146, -1.141785, -0.934421, -53.806976, -4.612274, -95.230377, 13.728178, 100.772385
1759228303.203015, -10.555885, 1.363947, -1.310376, -0.119487, -1.437228, -0.531244, -53.440750, -4.552216, -95.163147, 13.728178, 100.772385
1759228303.223133, -5.727529, 4.674529, 0.655712, -0.359490, -1.428970, 0.248174, -53.018250, -4.633453, -95.086319, 13.728178, 100.772385
1759228303.243167, -7.489661, 4.250456, 1.026215, -0.662670, -0.738808, 0.156318, -52.604721, -4.995438, -95.164398, 13.728178, 100.772385
1759228303.263063, -8.018481, 2.034772, -1.992874, -0.280071, -0.291652, -0.079541, -51.720978, -4.860107, -95.159531, 13.728178, 100.772385
1759228303.283109, -9.578004, 0.087688, -2.791639, -0.030570, -0.201799, -0.527730, -52.004120, -5.499496, -94.961655, 13.728178, 100.772385
1759228303.303124, -10.095301, 0.180014, -2.775628, 0.207086, -0.416555, -0.585527, -52.373230, -5.293060, -94.569626, 13.728178, 100.772385
1759228303.323146, -8.020725, 0.692672, -1.983746, 0.260243, -0.523271, -0.181709, -52.205399, -4.717194, -95.057159, 13.728178, 100.772385
1759228303.343145, -7.813926, 1.744924, -0.415843, -0.095843, -0.396494, -0.285739, -52.314606, -5.035812, -94.842865, 13.728178, 100.772385
1759228303.363124, -9.343073, 3.751415, 0.055516, -0.003633, 0.021056, -0.602757, -52.070221, -4.810898, -95.347351, 13.728178, 100.772385
1759228303.383120, -6.917298, 4.730045, 0.461033, -0.092978, 0.125971, -0.242373, -52.280365, -4.697342, -95.319946, 13.728178, 100.772385
1759228303.403126, -8.526051, 3.853468, 0.222661, -0.003721, 0.130602, -0.266662, -52.417740, -4.812256, -94.994385, 13.728178, 100.772385
1759228303.423126, -9.255086, 2.217480, -0.693121, 0.117587, -0.092828, -0.125222, -52.288086, -4.602737, -95.066284, 13.728178, 100.772385
1759228303.443123, -8.767866, 2.542493, -0.859069, 0.212051, -0.497583, 0.218658, -52.191422, -4.941177, -95.389420, 13.728178, 100.772385
1759228303.463123, -8.842385, 1.774253, -1.228974, 0.364437, -0.611423, 0.420705, -51.868607, -4.908920, -95.136658, 13.728178, 100.772385
1759228303.482633, -11.222072, 1.873313, -1.331625, 0.577182, -0.425467, -0.151902, -51.554886, -4.631744, -95.883438, 13.728178, 100.772385
1759228303.503120, -11.995549, 3.397522, -0.478391, 0.488346, -0.220260, -0.365312, -51.732605, -4.443146, -96.013290, 13.728178, 100.772385
1759228303.523124, -6.626552, 1.716044, 2.289904, -0.173772, -0.259204, 1.126896, -51.444550, -4.238785, -95.721664, 13.728178, 100.772385
1759228303.543166, -5.980117, 2.352453, -2.639308, 0.053822, -0.260080, 1.752073, -50.699585, -4.202499, -95.932175, 13.728178, 100.772385
1759228303.563147, -6.653786, 2.250849, -1.523760, 0.478021, 0.134836, 2.850547, -50.043793, -4.311417, -96.027054, 13.728178, 100.772385
1759228303.583114, -10.240001, 3.952677, -1.542464, 0.588652, -0.922032, 3.523667, -48.471619, -4.653946, -96.236877, 13.728178, 100.772385
1759228303.603129, -9.932495, 4.245817, 0.666935, 0.851822, -2.366440, 3.274063, -46.502716, -4.988052, -96.994904, 13.728178, 100.772385
1759228303.623128, -7.779210, 4.257489, 2.394651, -0.108927, -4.101775, 3.420869, -43.659500, -5.307129, -98.270309, 13.728178, 100.772385
1759228303.643159, -3.550451, 1.424700, 2.839224, -1.501726, -2.654717, 4.224872, -40.957703, -7.251404, -98.392639, 13.728178, 100.772385
1759228303.663122, -2.537854, 5.841852, -1.543213, -1.574664, -0.416244, 4.817317, -39.321701, -9.067352, -97.854263, 13.728178, 100.772385
1759228303.683110, -1.017536, 8.247725, -0.173879, -0.812740, 2.236058, 5.135289, -38.421432, -10.933853, -97.274643, 13.728178, 100.772385
1759228303.703193, 3.091064, 7.280917, 5.041889, -0.802660, 4.693963, 4.916927, -39.433533, -13.017548, -95.905945, 13.728178, 100.772385
1759228303.723221, -0.060753, 7.367856, 2.968660, -0.898063, 5.581070, 3.347380, -41.759186, -15.148727, -93.845245, 13.728178, 100.772385
1759228303.743123, -4.182521, 9.338284, -2.717868, -0.598310, 3.095157, 2.292512, -42.718506, -16.035339, -92.788757, 13.728178, 100.772385
1759228303.763123, -4.320487, 9.373898, -1.897704, 0.446114, -0.079166, 1.922889, -42.254913, -16.361877, -93.103455, 13.728178, 100.772385
1759228303.783183, -1.463007, 6.955305, 2.789395, 0.292376, -0.904047, 3.447741, -41.243988, -17.095734, -93.432755, 13.728178, 100.772385
1759228303.802346, -0.994940, 6.145018, 2.762161, -0.010213, -2.241011, 5.435169, -40.579956, -17.870834, -94.149460, 13.728178, 100.772385
1759228303.823121, -1.045668, 3.510797, 1.412579, 0.119380, -2.690834, 5.872275, -37.903793, -20.719757, -95.596176, 13.728178, 100.772385
1759228303.843141, -0.498892, 3.301604, 0.272340, 0.106543, -2.476218, 5.618839, -36.877686, -22.893738, -96.553513, 13.728178, 100.772385
1759228303.863123, 0.152331, 4.546589, -1.122432, -0.169320, -2.150943, 5.264957, -36.245728, -24.859406, -97.338837, 13.728178, 100.772385
1759228303.882190, 4.578911, 18.172739, 0.048782, -0.925733, 0.033528, 5.662152, -36.846497, -27.333115, -97.111847, 13.728178, 100.772385
1759228303.903149, 21.196765, 38.747610, 1.713201, -0.817109, 1.999203, 10.005134, -39.059265, -31.740067, -97.062775, 13.728178, 100.772385
1759228303.923132, 6.675334, 27.153688, -0.274286, 0.949008, 3.989115, 8.872983, -42.583206, -33.375519, -95.414871, 13.728178, 100.772385
1759228303.943144, -4.098574, 12.871827, -4.872799, 3.260933, 1.942330, 2.162216, -43.713654, -32.054077, -94.463516, 13.728178, 100.772385
1759228303.962913, 0.709282, 4.312107, 0.448314, 2.886871, -0.449919, -1.962456, -43.379196, -30.826630, -93.529556, 13.728178, 100.772385
1759228303.982607, 5.418078, 6.165817, 5.292532, -0.028407, -0.027539, -1.431722, -42.925293, -30.326492, -93.864044, 13.728178, 100.772385
1759228304.003129, 8.416367, 8.036886, 4.332906, -1.188339, -0.892598, -0.148345, -42.355988, -30.872101, -94.753189, 13.728178, 100.772385
1759228304.023114, 6.277447, 7.248894, 0.523732, -0.751156, 0.008631, 0.025015, -42.989471, -31.409485, -94.347061, 13.728178, 100.772385
1759228304.042376, 6.494571, 7.753622, -0.856077, -0.547627, 0.812792, -0.007798, -42.909134, -31.870590, -94.348328, 13.728178, 100.772385
1759228304.062205, 4.515015, 9.156475, -1.509544, -0.123478, -0.186037, 0.004075, -43.009644, -31.451797, -94.304626, 13.728178, 100.772385
1759228304.083009, 4.682610, 9.210793, 0.440533, 0.255920, -0.872420, -0.036757, -42.572418, -31.305649, -94.666336, 13.728178, 100.772385
1759228304.103121, 4.891354, 8.604461, 1.557279, 0.027909, -0.553138, -0.068042, -42.200974, -31.767365, -94.562408, 13.728178, 100.772385
1759228304.122407, 5.106533, 7.960272, 1.744625, -0.180628, -0.066423, -0.059439, -42.170944, -31.517883, -94.918762, 13.728178, 100.772385
1759228304.143140, 5.159804, 7.570466, 0.871489, -0.188728, 0.050812, -0.061662, -42.335083, -31.919449, -94.864349, 13.728178, 100.772385
1759228304.163124, 5.434389, 8.019528, 0.320075, -0.124096, -0.157115, -0.061306, -42.423630, -31.853424, -94.886490, 13.728178, 100.772385
1759228304.183112, 4.894646, 8.216750, 1.111658, -0.024523, -0.305348, 0.014391, -42.571381, -31.842010, -94.757339, 13.728178, 100.772385
1759228304.203125, 4.285172, 8.130260, 1.898901, -0.016682, -0.010771, 0.005423, -42.196701, -31.969315, -94.972336, 13.728178, 100.772385
1759228304.223130, 4.894945, 8.210166, 2.043002, -0.215922, 0.302743, 0.008364, -42.257050, -31.960266, -94.332062, 13.728178, 100.772385
1759228304.243124, 5.129876, 8.240692, 0.628179, -0.252745, 0.307393, -0.028582, -42.616867, -31.907715, -94.651978, 13.728178, 100.772385
1759228304.263121, 5.763442, 8.298303, 0.036960, -0.121358, 0.100210, -0.018952, -42.542725, -31.943909, -94.725204, 13.728178, 100.772385
1759228304.283138, 6.460604, 8.172158, 0.363769, -0.115621, -0.096460, -0.033808, -42.746307, -31.935226, -94.798080, 13.728178, 100.772385
1759228304.303122, 6.319944, 7.850587, 0.626084, -0.235606, -0.175140, -0.025389, -42.743820, -31.809967, -95.008102, 13.728178, 100.772385
1759228304.322443, 5.486762, 7.359926, 1.395371, -0.286713, -0.265962, -0.003663, -42.458435, -32.385406, -94.943008, 13.728178, 100.772385
1759228304.343251, 5.024531, 7.960272, 1.212962, -0.195494, -0.173472, 0.011021, -42.566696, -32.365982, -95.323730, 13.728178, 100.772385
1759228304.363122, 5.142745, 8.738088, 1.246930, -0.161772, -0.201642, -0.025567, -42.169952, -32.126984, -95.731750, 13.728178, 100.772385
1759228304.383203, 5.549011, 8.757990, 1.243638, -0.173513, -0.290768, -0.044427, -42.243240, -32.809189, -95.682800, 13.728178, 100.772385
1759228304.403135, 5.683236, 7.888146, 1.815104, -0.274091, -0.469351, -0.046541, -41.862137, -32.853165, -95.563751, 13.728178, 100.772385
1759228304.423126, 5.548862, 6.792051, 1.737592, -0.298593, -0.600803, -0.029006, -41.638504, -32.781403, -95.842300, 13.728178, 100.772385
1759228304.443125, 5.055207, 6.807912, 1.124527, -0.245998, -0.851175, -0.004522, -41.237122, -32.786179, -96.365417, 13.728178, 100.772385
1759228304.462998, 4.748450, 8.382848, 1.032200, -0.258311, -1.014261, -0.014777, -40.988373, -32.700485, -96.075256, 13.728178, 100.772385
1759228304.482832, 4.547786, 10.015694, 0.759411, -0.272893, -0.804995, -0.051811, -40.396454, -32.974350, -96.748489, 13.728178, 100.772385
1759228304.502478, 4.603451, 10.367043, 0.320973, -0.149176, -0.745375, -0.074569, -40.294159, -33.061447, -96.805649, 13.728178, 100.772385
1759228304.523121, 4.338293, 9.205556, 0.300772, 0.044449, -0.598396, -0.062007, -39.809128, -33.215210, -97.240234, 13.728178, 100.772385
1759228304.543125, 4.250456, 8.280945, 0.807145, 0.134755, -0.319842, 0.000758, -39.535919, -32.888489, -96.964584, 13.728178, 100.772385
1759228304.563122, 4.114286, 8.557775, 1.336862, 0.192877, -0.136533, 0.025139, -39.743958, -33.061920, -97.311295, 13.728178, 100.772385
1759228304.583115, 4.560356, 8.594286, 0.613065, 0.295052, 0.002610, -0.006218, -39.498428, -32.801468, -96.830597, 13.728178, 100.772385
1759228304.603121, 5.144840, 8.274062, 0.253336, 0.239315, 0.066544, -0.009756, -39.409714, -33.193726, -97.051987, 13.728178, 100.772385
1759228304.623127, 5.400421, 8.080730, 0.369755, 0.112475, 0.124519, -0.030813, -39.659744, -32.470612, -97.005203, 13.728178, 100.772385
1759228304.643165, 5.442918, 8.023868, 0.059705, 0.078190, 0.192156, 0.016970, -39.454605, -32.527725, -96.760284, 13.728178, 100.772385
1759228304.663018, 4.965874, 8.018630, -0.169539, 0.047761, 0.239835, 0.049993, -39.477341, -32.776733, -96.951050, 13.728178, 100.772385
1759228304.683101, 4.444686, 8.480113, 0.012719, 0.046409, 0.404554, 0.057640, -39.653534, -32.189423, -97.016739, 13.728178, 100.772385
1759228304.702171, 3.996371, 8.451233, 0.139462, -0.121472, 0.523538, -0.023348, -39.900345, -32.439056, -96.713959, 13.728178, 100.772385
1759228304.722184, 4.680964, 8.530690, -0.078560, -0.339935, 0.341142, 0.001332, -40.232697, -32.633774, -96.545700, 13.728178, 100.772385
1759228304.743166, 4.310760, 8.544756, -0.999729, -0.376209, 0.122162, -0.060611, -40.246078, -32.885620, -96.704254, 13.728178, 100.772385
1759228304.763119, 4.991312, 9.333646, -0.588225, -0.417522, 0.079795, -0.067906, -40.229568, -33.182831, -96.024887, 13.728178, 100.772385
1759228304.783120, 4.556166, 9.212140, -0.408660, -0.465947, 0.220475, -0.177683, -40.454239, -33.273010, -96.557709, 13.728178, 100.772385
1759228304.802643, 4.219182, 8.154800, -0.198868, -0.576503, 0.291363, -0.228685, -40.494308, -33.297104, -96.240280, 13.728178, 100.772385
1759228304.822717, 5.015553, 7.700351, -0.142605, -0.673381, 0.247082, -0.175536, -40.477173, -33.953354, -96.782394, 13.728178, 100.772385
1759228304.843122, 5.298518, 8.383447, 0.811634, -0.820556, -0.074471, -0.130161, -40.493011, -33.999420, -96.770493, 13.728178, 100.772385
1759228304.863121, 4.370017, 7.953089, 0.505775, -0.843968, -0.212751, -0.046795, -40.180389, -34.075241, -96.947876, 13.728178, 100.772385
1759228304.883113, 4.278438, 7.568820, -0.566977, -0.588504, 0.075627, 0.184745, -40.145706, -34.889023, -97.605621, 13.728178, 100.772385
1759228304.902976, 4.228310, 8.252364, -0.079458, -0.503325, 0.177290, 0.312946, -40.494827, -34.781021, -97.543411, 13.728178, 100.772385
1759228304.923128, 4.055927, 8.741829, 0.845303, -0.625391, 0.109219, 0.288959, -40.895905, -35.237778, -97.480545, 13.728178, 100.772385
1759228304.943124, 4.021211, 8.266879, 0.618003, -0.647151, 0.080524, 0.250498, -40.780853, -35.536545, -97.202728, 13.728178, 100.772385
1759228304.963120, 4.166509, 8.024765, 0.223259, -0.617643, 0.018231, 0.316221, -40.895859, -35.934036, -97.056961, 13.728178, 100.772385
1759228304.983113, 4.781670, 8.992173, 0.950797, -0.592068, -0.050504, 0.473613, -40.922729, -36.525253, -97.653442, 13.728178, 100.772385
1759228305.002584, 5.340716, 9.889400, 1.458368, -0.595318, 0.002185, 0.512665, -41.328842, -36.864685, -98.632645, 13.728178, 100.772385
1759228305.022229, 5.996128, 10.622175, 1.206977, -0.547390, 0.183749, 0.537513, -41.242172, -36.943542, -98.608551, 13.728178, 100.772385
1759228305.043123, 5.375581, 11.310358, 0.630423, -0.095282, 0.016037, 0.275220, -41.566452, -37.425186, -98.223862, 13.728178, 100.772385
1759228305.063120, 5.535095, 11.990162, 1.163732, -0.057171, -0.071090, 0.195083, -41.904312, -37.838623, -97.896393, 13.728178, 100.772385
1759228305.083101, 6.474221, 12.919112, 1.848922, -0.253080, -0.284693, 0.185872, -41.211792, -37.864365, -98.522141, 13.728178, 100.772385
1759228305.103124, 6.873304, 13.703512, 1.873313, -0.310608, -0.331949, 0.085710, -41.635178, -37.753799, -98.580734, 13.728178, 100.772385
1759228305.123130, 8.820089, 13.131448, 0.096067, 0.488320, 0.214276, 0.239783, -41.532623, -37.998108, -98.447342, 13.728178, 100.772385
1759228305.143121, 9.095572, 11.300632, -0.261267, 1.031228, 0.372778, 0.220643, -41.560669, -38.132660, -97.523758, 13.728178, 100.772385
1759228305.163122, 8.776395, 10.354922, -1.654543, 1.516956, 0.314696, 0.245218, -41.889877, -37.444870, -97.528641, 13.728178, 100.772385
1759228305.183127, 8.696040, 9.978584, -1.635090, 1.779519, -0.522944, 0.366662, -41.662720, -36.464783, -96.794907, 13.728178, 100.772385
1759228305.203122, 8.084620, 10.028114, -2.272995, 1.822460, -1.572142, 0.403784, -41.632599, -36.120163, -96.681213, 13.728178, 100.772385
1759228305.223035, 7.328352, 9.982773, -2.169296, 1.671433, -2.363114, 0.182507, -40.704651, -35.354553, -96.565475, 13.728178, 100.772385
1759228305.243140, 7.481880, 9.729437, -1.427543, 1.448295, -3.245356, -0.055630, -39.290054, -35.198654, -97.193222, 13.728178, 100.772385
1759228305.263136, 6.501305, 8.375666, 2.087295, 0.758636, -3.839193, -0.367428, -37.753540, -34.894562, -98.387573, 13.728178, 100.772385
1759228305.283101, 9.247005, 8.736741, 2.254141, -0.058890, -4.279106, -0.721564, -35.837616, -34.526001, -99.316208, 13.728178, 100.772385
1759228305.303122, 10.304943, 10.900651, -3.990236, 0.717917, -3.986811, -1.122050, -34.000977, -34.212982, -101.154343, 13.728178, 100.772385
1759228305.323126, 9.537153, 8.892813, -2.535160, 2.083232, -2.502325, -1.122084, -32.973099, -32.662613, -101.250473, 13.728178, 100.772385
1759228305.343121, 7.054814, 8.738387, -1.109413, 3.149220, -1.568748, -0.905058, -32.127258, -31.527023, -101.435104, 13.728178, 100.772385
1759228305.362717, 5.353435, 10.366893, -5.613655, 4.128752, -1.555807, -0.757541, -31.411728, -29.999252, -101.101654, 13.728178, 100.772385
1759228305.382632, 7.160459, 8.430732, -3.386149, 3.972039, -1.136704, -0.708622, -30.982986, -27.924179, -100.920547, 13.728178, 100.772385
1759228305.403134, 7.769035, 5.919215, 0.353594, 3.199619, -1.309812, -0.736157, -30.324432, -26.826874, -100.725723, 13.728178, 100.772385
1759228305.423127, 5.689671, 5.230582, 1.273566, 2.660611, -1.509010, -1.090375, -29.149658, -24.704239, -101.105515, 13.728178, 100.772385
1759228305.443127, 4.090942, 6.539313, -3.074454, 2.891265, -2.111475, -1.472432, -28.638321, -23.239929, -102.227982, 13.728178, 100.772385
1759228305.463124, 2.941576, 7.396736, -5.339070, 3.053883, -1.789597, -1.409861, -28.026688, -21.310654, -102.890060, 13.728178, 100.772385
1759228305.483102, 2.200870, 6.413917, -2.163610, 2.572028, -1.198570, -1.131777, -27.409744, -20.081635, -103.472748, 13.728178, 100.772385
1759228305.503120, 1.360804, 5.273080, -0.410007, 2.390764, -0.873582, -0.942052, -26.960007, -18.688248, -104.179794, 13.728178, 100.772385
1759228305.522224, 1.319504, 4.198682, -1.215656, 2.802778, -0.143386, -0.652389, -26.953445, -17.391220, -104.201782, 13.728178, 100.772385
1759228305.542188, 0.346112, 3.371934, -1.791611, 2.698578, 0.572696, -0.177228, -27.331528, -16.441147, -103.882614, 13.728178, 100.772385
1759228305.563120, -0.520140, 1.627608, -1.929427, 1.890885, 0.625701, -0.091860, -27.313690, -15.848358, -104.023224, 13.728178, 100.772385
1759228305.583117, 0.361674, -1.121683, -2.593669, 1.063297, 0.321193, -0.101666, -27.502655, -15.414825, -103.444916, 13.728178, 100.772385
1759228305.603123, 0.919523, -2.322675, -2.763058, 0.148854, 0.464173, 0.075079, -27.206436, -15.366623, -103.262314, 13.728178, 100.772385
1759228305.622537, -0.406416, -0.607828, -3.318663, -0.699533, 0.859992, 0.181995, -27.675812, -15.666168, -103.086136, 13.728178, 100.772385
1759228305.643140, -0.181211, 1.044470, -4.951808, -1.187018, 1.057974, 0.315195, -27.586929, -16.268585, -102.219513, 13.728178, 100.772385
1759228305.663118, -0.026935, 1.860444, -9.396942, -1.572957, 1.073473, 0.422782, -28.117004, -16.795929, -100.602036, 13.728178, 100.772385
1759228305.683132, 2.833089, 1.808969, -15.337405, -1.895010, 0.617388, 0.693724, -28.151016, -17.947647, -100.050095, 13.728178, 100.772385
1759228305.703174, 9.357139, 5.938668, -11.910255, -1.999922, 0.034181, 0.871960, -28.132202, -19.360413, -100.338470, 13.728178, 100.772385
1759228305.723010, 6.440702, 13.976003, -2.850147, -2.750124, 0.641993, 0.647226, -28.510468, -20.053635, -99.345795, 13.728178, 100.772385
1759228305.743317, 6.600365, 14.138210, -4.481048, -2.312498, -0.292197, 0.561169, -28.210175, -21.609268, -99.117950, 13.728178, 100.772385
1759228305.763146, 2.404676, 6.783521, -3.621679, -1.928178, 1.583885, -0.085587, -28.363541, -22.320877, -98.345947, 13.728178, 100.772385
1759228305.783167, -0.777517, 8.818144, -4.048296, -2.474198, 0.475843, -0.656446, -28.655334, -22.948334, -97.702484, 13.728178, 100.772385
1759228305.803182, 1.967286, 9.156026, -1.696591, -2.519901, 0.836845, 0.175783, -28.928406, -23.832108, -97.357468, 13.728178, 100.772385
1759228305.822281, 8.316708, 10.567707, -4.302081, -2.099885, 0.861167, 1.286350, -29.777084, -25.338455, -96.778702, 13.728178, 100.772385
1759228305.843161, 11.112088, 11.082161, -4.125060, -1.784733, 1.135830, 1.301337, -30.031174, -26.836609, -96.339355, 13.728178, 100.772385
1759228305.863178, 9.618705, 7.150134, -1.954866, -1.757287, 0.984550, 0.361770, -30.681335, -28.028488, -96.257217, 13.728178, 100.772385
1759228305.883235, 6.661118, 5.185093, -1.283442, -1.956984, 0.639298, -0.270051, -30.641037, -28.634781, -96.156815, 13.728178, 100.772385
1759228305.903152, 5.624578, 5.380220, -2.035371, -2.050656, 0.373196, -0.078592, -30.827438, -29.203064, -95.888885, 13.728178, 100.772385
1759228305.923285, 4.941932, 6.528240, -3.071162, -1.889495, 0.554633, 0.430146, -31.543777, -30.148117, -96.421738, 13.728178, 100.772385
1759228305.943141, 4.843919, 8.268375, -2.848950, -1.499699, 0.751451, 0.712517, -31.449600, -31.233765, -96.076569, 13.728178, 100.772385
1759228305.962392, 5.070321, 9.173084, -3.093458, -0.981638, 0.703844, 0.518604, -31.716248, -31.782791, -96.105133, 13.728178, 100.772385
1759228305.983163, 5.173271, 8.343643, -3.435230, -0.520665, 0.997303, 0.045734, -32.390564, -32.210190, -95.162430, 13.728178, 100.772385
1759228306.003222, 5.432892, 6.644508, -3.430442, -0.436752, 1.256046, 0.025826, -32.714249, -32.798157, -95.198181, 13.728178, 100.772385
1759228306.023313, 5.463269, 5.556044, -1.441309, -0.453342, 1.395635, 0.245754, -33.659790, -32.644455, -94.279800, 13.728178, 100.772385
1759228306.043230, 4.919187, 5.465813, -1.859397, -0.126182, 1.711522, 0.372069, -34.444092, -32.817596, -93.270462, 13.728178, 100.772385
1759228306.063321, 4.862324, 6.758981, -2.857779, 0.227440, 1.766817, 0.365158, -35.420715, -33.059158, -92.380280, 13.728178, 100.772385
1759228306.083163, 4.514716, 8.633790, -2.796278, 0.199312, 1.429366, 0.218411, -36.315796, -33.166473, -91.974640, 13.728178, 100.772385
1759228306.103318, 3.752612, 9.420286, -2.391359, -0.210897, 0.965352, 0.026291, -36.894943, -33.578445, -91.438187, 13.728178, 100.772385
1759228306.123315, 3.610306, 8.999804, -1.684919, -0.614861, 0.628327, -0.044452, -37.071320, -33.315262, -91.416183, 13.728178, 100.772385
1759228306.143115, 4.075380, 8.167669, -1.741931, -0.769839, 0.613697, -0.059859, -37.456207, -33.619492, -91.747177, 13.728178, 100.772385
1759228306.163141, 4.563648, 7.476194, -1.608604, -0.720816, 0.899280, -0.064671, -37.882919, -34.229233, -91.097473, 13.728178, 100.772385
1759228306.183198, 4.989516, 6.947674, -1.774552, -0.597253, 0.891970, 0.058943, -38.350830, -34.481247, -90.502930, 13.728178, 100.772385
1759228306.203322, 5.190480, 8.012944, -1.605163, -0.595186, 0.916544, 0.120633, -38.698212, -35.020157, -90.909958, 13.728178, 100.772385
1759228306.223244, 5.129577, 8.706814, -1.511041, -0.810259, 0.966502, 0.091627, -39.644409, -35.206467, -90.219223, 13.728178, 100.772385
1759228306.242530, 5.025878, 9.076119, -0.670526, -1.032697, 1.041281, 0.098066, -39.820038, -35.886475, -90.607071, 13.728178, 100.772385
1759228306.263125, 5.949441, 9.160664, -1.186925, -1.018442, 1.158312, 0.232593, -40.417786, -36.417999, -89.532394, 13.728178, 100.772385
1759228306.283115, 7.104494, 9.715221, -0.804152, -1.057330, 1.120967, 0.277614, -41.418350, -37.335556, -90.139160, 13.728178, 100.772385
1759228306.303123, 8.100033, 10.710760, -0.548123, -0.947817, 0.921001, 0.307117, -41.992676, -37.584564, -89.997894, 13.728178, 100.772385
1759228306.323126, 8.841787, 12.327295, -0.863259, -0.439834, 0.530416, 0.268549, -42.899521, -38.265060, -89.732162, 13.728178, 100.772385
1759228306.342137, 10.519673, 14.521282, -2.063353, 0.595578, 0.269617, 0.402480, -43.177475, -38.636597, -89.353790, 13.728178, 100.772385
1759228306.363130, 11.756278, 13.413066, -4.664503, 1.280152, 0.222656, 0.394708, -43.296402, -37.870865, -89.110611, 13.728178, 100.772385
1759228306.383113, 9.667337, 11.167155, -5.589862, 1.532549, -1.028513, 0.150533, -43.691986, -37.495651, -88.765869, 13.728178, 100.772385
1759228306.403112, 7.869591, 10.472088, -7.958775, 1.857267, -2.650215, -0.123368, -42.453171, -36.040710, -88.824966, 13.728178, 100.772385
1759228306.423128, 5.541529, 11.491569, -5.894674, 1.384263, -3.715838, -0.524726, -40.529282, -35.213165, -88.864243, 13.728178, 100.772385
1759228306.442497, 6.397905, 12.937518, -2.247706, 0.527756, -4.516420, -0.788567, -37.869156, -34.106781, -89.828491, 13.728178, 100.772385
1759228306.463134, 7.532907, 11.030835, 0.928501, -0.107507, -4.402183, -0.973201, -34.659958, -33.223053, -91.188492, 13.728178, 100.772385
1759228306.483127, 7.648876, 8.988132, 0.230292, 0.279151, -4.391448, -1.182180, -32.138046, -33.024796, -93.310486, 13.728178, 100.772385
1759228306.503119, 8.603713, 7.523479, -0.895880, 1.341065, -2.692346, -1.297051, -29.854767, -32.098190, -95.280777, 13.728178, 100.772385
1759228306.523133, 9.102156, 7.373543, -2.488174, 2.561188, -1.245230, -1.208832, -28.760422, -30.073441, -95.397171, 13.728178, 100.772385
1759228306.542987, 8.442404, 7.599944, -4.510975, 3.093960, -0.885611, -1.237550, -28.077682, -28.195129, -95.752197, 13.728178, 100.772385
1759228306.563115, 7.680150, 6.775142, -0.054767, 3.320903, -0.979301, -1.239473, -27.070541, -25.903412, -95.722198, 13.728178, 100.772385
1759228306.583138, 4.736479, 8.181436, -2.018312, 3.326348, -1.002955, -1.160091, -26.342377, -22.411316, -95.664413, 13.728178, 100.772385
1759228306.603268, 2.305018, 9.541492, -5.156961, 3.471415, -0.521727, -1.466594, -25.871185, -20.300583, -96.498657, 13.728178, 100.772385
1759228306.623152, 4.383484, 8.249072, -2.898630, 3.110662, -1.387727, -1.572770, -25.215759, -17.684387, -97.206345, 13.728178, 100.772385
1759228306.643149, 5.335778, 5.294178, -1.423503, 2.594945, -1.187163, -1.368929, -25.024109, -15.569748, -98.526321, 13.728178, 100.772385
1759228306.662209, 3.835062, 3.353229, -3.047220, 2.830729, -0.780527, -1.242908, -24.586594, -14.611679, -99.522766, 13.728178, 100.772385
1759228306.683113, 2.437297, 3.214814, -2.566135, 3.031284, -0.492111, -0.961901, -24.603729, -11.933868, -100.432053, 13.728178, 100.772385
1759228306.703120, 1.461211, 3.361459, -1.664718, 2.585807, -0.050360, -0.370472, -24.938202, -10.937958, -100.822800, 13.728178, 100.772385
1759228306.723150, 0.411952, 2.306813, -1.331625, 1.888430, 0.202108, 0.090777, -24.747192, -10.351822, -101.370224, 13.728178, 100.772385
1759228306.743214, -0.118812, 1.112256, -1.507300, 1.322844, 0.173981, 0.215183, -24.397232, -10.250397, -101.692062, 13.728178, 100.772385
1759228306.762642, -0.039804, -0.191237, -1.964442, 0.762152, 0.221877, 0.136076, -24.858734, -9.992493, -101.314407, 13.728178, 100.772385
1759228306.783113, -0.268450, 0.437091, -3.695600, 0.163714, 0.446885, 0.081876, -25.089630, -9.620987, -101.006851, 13.728178, 100.772385
1759228306.803179, -0.906355, 1.470339, -3.437924, -0.558960, 0.797482, 0.093771, -25.181351, -10.033035, -99.841385, 13.728178, 100.772385
1759228306.823127, -0.148889, 1.132457, -5.802647, -0.841712, 1.022770, 0.326956, -25.560699, -10.632324, -98.607285, 13.728178, 100.772385
1759228306.843120, 1.714697, 1.227328, -8.299500, -1.426702, 1.414627, 0.671956, -25.707184, -11.488434, -97.713135, 13.728178, 100.772385
1759228306.863000, 4.938490, -1.128268, -18.601899, -1.401333, 0.086634, 0.662538, -25.878113, -11.935425, -97.233261, 13.728178, 100.772385
1759228306.883113, 14.342315, 2.307113, -9.334244, -2.292605, 1.853951, 0.574696, -26.257660, -13.427582, -95.735107, 13.728178, 100.772385
1759228306.903127, 5.140351, 16.940323, 3.398120, -3.887715, -1.663104, 0.709680, -25.376175, -15.771271, -96.149719, 13.728178, 100.772385
1759228306.923131, 7.350498, 18.056919, -6.678027, -2.702446, -0.584658, 0.806630, -25.308365, -17.194916, -96.091202, 13.728178, 100.772385
1759228306.943122, -0.897676, 11.752388, -7.597400, -2.232563, 0.821892, -0.135953, -25.235687, -18.313034, -95.756760, 13.728178, 100.772385
1759228306.963113, 0.550517, 9.745299, -3.630358, -1.929071, 0.602735, -0.509297, -25.612595, -18.873703, -94.741318, 13.728178, 100.772385
1759228306.983116, 6.386383, 6.806117, -5.130325, -1.622613, 0.994082, 0.884489, -25.849625, -19.917297, -94.242722, 13.728178, 100.772385
1759228307.003123, 8.967931, 6.846369, -3.555539, -1.441700, 1.085089, 1.995183, -25.998749, -21.571198, -93.346710, 13.728178, 100.772385
1759228307.023150, 9.317185, 6.310367, -1.400758, -1.866425, 1.040704, 1.845926, -26.733658, -23.233871, -93.015945, 13.728178, 100.772385
1759228307.042733, 7.489661, 6.325780, -1.802086, -2.174442, 0.400889, 0.644387, -27.101730, -24.964813, -92.959702, 13.728178, 100.772385
1759228307.062555, 6.315605, 7.410653, -0.630274, -2.767286, -0.017763, 0.013599, -26.732422, -26.425018, -92.627594, 13.728178, 100.772385
1759228307.083100, 4.599112, 8.749909, -1.786523, -3.059368, -0.347408, 0.249645, -26.804871, -27.631897, -92.919464, 13.728178, 100.772385
1759228307.103118, 3.199551, 9.692477, -1.834856, -2.756315, -0.505152, 0.545160, -26.505951, -29.736969, -93.999100, 13.728178, 100.772385
1759228307.123118, 2.980631, 8.872462, -2.581997, -2.110715, -0.216155, 0.581124, -26.851242, -30.817398, -94.313385, 13.728178, 100.772385
1759228307.143112, 3.153612, 8.919000, -3.303400, -1.363484, 0.137244, 0.485606, -26.717926, -31.799850, -94.664398, 13.728178, 100.772385
1759228307.162922, 3.712210, 8.426093, -2.895937, -0.836576, 0.658225, 0.438275, -27.196060, -32.300385, -94.279648, 13.728178, 100.772385
1759228307.183113, 4.283376, 7.560739, -2.727894, -0.517697, 1.097761, 0.437972, -27.757095, -32.720688, -94.373611, 13.728178, 100.772385
1759228307.203128, 4.387524, 6.479308, -2.877381, -0.263546, 1.441867, 0.400901, -28.588531, -33.371429, -93.523300, 13.728178, 100.772385
1759228307.223129, 4.297442, 6.157887, -1.935113, -0.161860, 1.715754, 0.356333, -29.564850, -33.549820, -92.114700, 13.728178, 100.772385
1759228307.243126, 4.395605, 7.114520, -2.253842, -0.039997, 1.828526, 0.413350, -30.319595, -33.861694, -91.498505, 13.728178, 100.772385
1759228307.262450, 4.017021, 7.853879, -2.583643, 0.045586, 1.599472, 0.316746, -31.731918, -33.829391, -90.641937, 13.728178, 100.772385
1759228307.283109, 3.687669, 8.663119, -2.716970, -0.190605, 1.001129, 0.178764, -32.035110, -33.905502, -90.221237, 13.728178, 100.772385
1759228307.302977, 3.931878, 8.460660, -2.634370, -0.633719, 0.587883, 0.091402, -32.659317, -34.415100, -89.809891, 13.728178, 100.772385
1759228307.322628, 4.669441, 7.780108, -2.412457, -0.909186, 0.343052, -0.009171, -32.654922, -34.438507, -90.245560, 13.728178, 100.772385
1759228307.342440, 5.187337, 7.317279, -1.994520, -0.790965, 0.289344, 0.030976, -32.689362, -35.113846, -89.791519, 13.728178, 100.772385
1759228307.362864, 5.176114, 6.964134, -2.329708, -0.537173, 0.344798, 0.208000, -33.074280, -35.680222, -89.501831, 13.728178, 100.772385
1759228307.383126, 4.675128, 7.457040, -2.632574, -0.402529, 0.531693, 0.358849, -33.458694, -35.814545, -89.942947, 13.728178, 100.772385
1759228307.403123, 4.177583, 9.197026, -2.485181, -0.547025, 0.816679, 0.409521, -33.669067, -36.613083, -89.861725, 13.728178, 100.772385
1759228307.423127, 3.615693, 10.918757, -0.977283, -0.732396, 0.693993, 0.286104, -34.365891, -37.026260, -89.000488, 13.728178, 100.772385
1759228307.443142, 3.325396, 11.686248, 0.099359, -0.810702, 0.968566, 0.166683, -35.158539, -37.776566, -88.916504, 13.728178, 100.772385
1759228307.463120, 4.994754, 11.339987, 0.595408, -0.904538, 1.347984, 0.104368, -35.711746, -38.135345, -88.712341, 13.728178, 100.772385
1759228307.483121, 6.959944, 11.320534, 0.817770, -0.969867, 1.653544, -0.015480, -36.634262, -38.628067, -88.719162, 13.728178, 100.772385
1759228307.502541, 8.698135, 12.242601, -0.023343, -0.469295, 1.445118, 0.066712, -37.636246, -39.098358, -88.072052, 13.728178, 100.772385
1759228307.523131, 11.493066, 13.014132, -1.432930, 0.416185, 0.651946, 0.231874, -38.109467, -39.245483, -87.480927, 13.728178, 100.772385
1759228307.543126, 12.990040, 11.204265, -2.180070, 0.989422, -0.046684, 0.203934, -38.010101, -38.466476, -87.368408, 13.728178, 100.772385
1759228307.563127, 11.801020, 9.342923, -3.656844, 1.236547, -0.818828, 0.313001, -38.016083, -37.444016, -86.318802, 13.728178, 100.772385
1759228307.583129, 8.819640, 9.085546, -6.210709, 1.476145, -2.209077, 0.348385, -36.834839, -36.842484, -87.000229, 13.728178, 100.772385
1759228307.603119, 5.950190, 10.553641, -6.426785, 1.234131, -2.607780, -0.012847, -35.523987, -36.320389, -87.097992, 13.728178, 100.772385
1759228307.623133, 4.495114, 13.333608, -5.917868, 0.928826, -3.350926, -0.681752, -33.597351, -35.275833, -88.084595, 13.728179, 100.772385
1759228307.643152, 5.429152, 13.731644, -2.958635, 0.216860, -4.835964, -1.135045, -30.467346, -34.359024, -89.982483, 13.728179, 100.772385
1759228307.663124, 5.983708, 11.756877, 1.654393, -0.527791, -5.096944, -1.249503, -27.473007, -33.442337, -92.817505, 13.728179, 100.772385
1759228307.683126, 7.047781, 8.984990, 1.992874, 0.245279, -3.404108, -1.237759, -25.332047, -32.881180, -95.190979, 13.728179, 100.772385
1759228307.703121, 8.475923, 6.755988, -1.465700, 1.986454, -0.942973, -1.175511, -23.878265, -31.606491, -96.331223, 13.728179, 100.772385
1759228307.723127, 6.959346, 6.588244, -1.091008, 3.053772, -0.307576, -1.346451, -23.255463, -29.347748, -96.714279, 13.728179, 100.772385
1759228307.743127, 6.771550, 7.545626, -3.950732, 3.790709, 0.046982, -1.350736, -22.940613, -26.795944, -96.414459, 13.728179, 100.772385
1759228307.763123, 5.781099, 7.820660, -1.895759, 3.748187, 0.065822, -1.118906, -22.816788, -24.404434, -95.856979, 13.728179, 100.772385
1759228307.783112, 2.286911, 9.127595, -3.330484, 3.344401, 0.072394, -1.276727, -22.316650, -21.929825, -95.470673, 13.728179, 100.772385
1759228307.803124, 2.400337, 8.153154, -2.554164, 2.552260, -0.757351, -1.329703, -22.456177, -19.487137, -96.197311, 13.728179, 100.772385
1759228307.823131, 5.485266, 4.474913, 1.841889, 2.359431, -0.243573, -1.280075, -21.767883, -17.760651, -97.017914, 13.728179, 100.772385
1759228307.843122, 5.971139, 4.267515, -2.398092, 2.776085, -0.422358, -1.135244, -21.966003, -16.231110, -97.615082, 13.728179, 100.772385
1759228307.863119, 4.678869, 3.427898, -1.559523, 2.957028, -0.455322, -1.078619, -21.503937, -13.753860, -98.395493, 13.728179, 100.772385
1759228307.883113, 3.396025, 4.277989, -3.022231, 2.619092, -0.203790, -0.848587, -22.048447, -12.362228, -99.391571, 13.728179, 100.772385
1759228307.903130, 2.007688, 5.335628, -3.322853, 1.803973, -0.174154, -0.421337, -21.795059, -10.618866, -100.018677, 13.728179, 100.772385
1759228307.923153, 1.318008, 4.781969, -2.305766, 1.372648, 0.024702, -0.364587, -22.059540, -9.612411, -100.769623, 13.728179, 100.772385
1759228307.943160, 0.649427, 3.477728, -1.681927, 1.283597, 0.108186, -0.569943, -22.416977, -8.803909, -100.967484, 13.728179, 100.772385
1759228307.963156, -0.453103, 1.840543, -2.130839, 0.922008, 0.266717, -0.558903, -22.591873, -7.619644, -101.344864, 13.728179, 100.772385
1759228307.983112, -0.216675, 0.884658, -3.526809, 0.339238, 0.684409, -0.286461, -22.803619, -7.336151, -100.726669, 13.728179, 100.772385
1759228308.003122, 0.169240, 1.136348, -3.986046, -0.247415, 0.719757, -0.194676, -23.261063, -7.454391, -99.766296, 13.728179, 100.772385
1759228308.023127, 1.052551, 2.502539, -5.042488, -0.910640, 0.801474, -0.057116, -23.806107, -7.312454, -98.807953, 13.728179, 100.772385
1759228308.043257, 1.939303, 3.203292, -7.998878, -1.830325, 0.938575, 0.157035, -24.234894, -8.103760, -98.178909, 13.728179, 100.772385
1759228308.063138, 1.875109, 1.553687, -11.299135, -2.098152, -0.203254, 0.527730, -23.907806, -8.822723, -97.607620, 13.728179, 100.772385
1759228308.082525, 6.172402, 1.471387, -10.733356, -1.993908, -0.207555, 0.651387, -23.991882, -10.203262, -96.844299, 13.728179, 100.772385
1759228308.103124, 8.634090, 10.087221, -4.162170, -2.618794, 1.154170, 0.760094, -23.810638, -11.919128, -95.499878, 13.728179, 100.772385
1759228308.123130, 6.909816, 19.741091, -5.567716, -2.680222, -1.034861, 1.046411, -23.244141, -13.505783, -95.365616, 13.728179, 100.772385
1759228308.142322, 5.527463, 12.529306, -3.407248, -2.114982, 1.222031, 0.530703, -23.914658, -14.749313, -94.831696, 13.728179, 100.772385
1759228308.163123, 1.576582, 9.296386, -5.764639, -2.070262, 0.490574, -0.289528, -24.148102, -15.759537, -93.523209, 13.728179, 100.772385
1759228308.182797, 5.142147, 8.300398, -2.355595, -2.248523, 0.419943, 0.322193, -24.132278, -16.804459, -92.774506, 13.728179, 100.772385
1759228308.203116, 8.341249, 7.802105, -4.177134, -2.138701, 0.191574, 1.273140, -24.305786, -18.609024, -93.248779, 13.728179, 100.772385
1759228308.222195, 8.586206, 7.558944, -1.293767, -2.326085, 0.220129, 1.332671, -24.284073, -20.433319, -92.667542, 13.728179, 100.772385
1759228308.243121, 6.871808, 7.572860, -1.263989, -2.695902, 0.186799, 0.733538, -23.913773, -22.190720, -92.698227, 13.728179, 100.772385
1759228308.263077, 5.101744, 8.508394, -2.434155, -2.754210, -0.163430, 0.326176, -23.992233, -23.845901, -92.499969, 13.728179, 100.772385
1759228308.283112, 3.674950, 8.934712, -2.846556, -2.471716, -0.278786, 0.528901, -24.110336, -25.153671, -93.173340, 13.728179, 100.772385
1759228308.303133, 2.803909, 8.834305, -3.085677, -1.932767, 0.026464, 0.766158, -24.168869, -26.809174, -92.861176, 13.728179, 100.772385
1759228308.323127, 3.683779, 8.264036, -2.473659, -1.482561, 0.415884, 0.790026, -24.715515, -27.998413, -92.428375, 13.728179, 100.772385
1759228308.343227, 3.741389, 8.322993, -3.456928, -1.021905, 0.851619, 0.665846, -25.100983, -28.945618, -92.226135, 13.728179, 100.772385
1759228308.363135, 4.585345, 7.318626, -2.059462, -0.817791, 1.045669, 0.700912, -25.625900, -29.770401, -92.099213, 13.728179, 100.772385
1759228308.383112, 3.883545, 6.808661, -1.725172, -0.740206, 1.200778, 0.634592, -26.483536, -30.186905, -91.474289, 13.728179, 100.772385
1759228308.403130, 3.468300, 6.745364, -2.334347, -0.503016, 1.407279, 0.481549, -26.919983, -31.356125, -91.036545, 13.728179, 100.772385
1759228308.423127, 3.183690, 7.416339, -2.685546, -0.173388, 1.641125, 0.362474, -28.247742, -31.142929, -89.829575, 13.728179, 100.772385
1759228308.443124, 3.232771, 8.242039, -2.606986, 0.086727, 1.890013, 0.311036, -29.490662, -31.360123, -88.613251, 13.728179, 100.772385
1759228308.463125, 3.823989, 8.740781, -1.940650, 0.063391, 1.754345, 0.327344, -30.451447, -31.677414, -87.913696, 13.728179, 100.772385
1759228308.483112, 4.554071, 8.176049, -2.360384, -0.116296, 1.444586, 0.136939, -30.980972, -31.667007, -87.028900, 13.728179, 100.772385
1759228308.502695, 5.262755, 6.830208, -2.247407, -0.545894, 1.027883, 0.034053, -31.983231, -32.108597, -86.738815, 13.728179, 100.772385
1759228308.523128, 6.303334, 6.290914, -2.505682, -0.971240, 0.546319, 0.129530, -32.628769, -32.364441, -86.881470, 13.728179, 100.772385
1759228308.543128, 5.742942, 7.826346, -1.398812, -1.122408, 0.012906, 0.269703, -32.220718, -33.258865, -86.484634, 13.728179, 100.772385
1759228308.563127, 4.217985, 9.490316, -0.656011, -0.951705, -0.033454, 0.296358, -32.682068, -34.079117, -86.797348, 13.728179, 100.772385
1759228308.583128, 3.426851, 10.644920, -1.451335, -0.737728, 0.642789, 0.306280, -32.921188, -34.631149, -86.156174, 13.728179, 100.772385
1759228308.603147, 2.974646, 12.001385, -1.456872, -0.637888, 1.560479, 0.507641, -34.471802, -35.433853, -86.267792, 13.728179, 100.772385
1759228308.623126, 2.874538, 12.639290, -0.520140, -0.589079, 1.660955, 0.484984, -35.472626, -35.778549, -85.639725, 13.728179, 100.772385
1759228308.643139, 4.159177, 11.834688, 0.547374, -0.666978, 1.285275, 0.064883, -36.444168, -35.946365, -84.213287, 13.728179, 100.772385
1759228308.663121, 8.146870, 11.233893, -0.262165, -0.869106, 1.322245, -0.162500, -37.251755, -36.463089, -84.718719, 13.728179, 100.772385
1759228308.683127, 11.002404, 12.082039, -1.808969, -0.403623, 0.930315, 0.095032, -37.733185, -36.908066, -84.424454, 13.728179, 100.772385
1759228308.703113, 9.914239, 11.593772, -1.817947, 0.825367, -0.192437, 0.040225, -37.902618, -36.551636, -84.446152, 13.728179, 100.772385
1759228308.723126, 11.595268, 9.762058, -2.046893, 1.376075, -0.346929, 0.013641, -37.513779, -35.384262, -84.449615, 13.728179, 100.772385
1759228308.743121, 10.574441, 9.525631, -4.008043, 1.485619, -0.554926, 0.191632, -36.841934, -34.682617, -83.826523, 13.728179, 100.772385
1759228308.763131, 8.390480, 10.863540, -6.204723, 1.799121, -1.813107, 0.215880, -36.027527, -33.156235, -83.187927, 13.728179, 100.772385
1759228308.783112, 4.563049, 12.529905, -5.944952, 1.987741, -2.692839, -0.442354, -34.349487, -32.289383, -84.050949, 13.728179, 100.772385
1759228308.803125, 3.663428, 13.514071, -5.655404, 1.499887, -4.441465, -1.190744, -31.716263, -30.452148, -85.903671, 13.728179, 100.772385
1759228308.823131, 4.915146, 14.001291, -0.405668, 0.226598, -4.892131, -1.244015, -28.514130, -28.893646, -87.962631, 13.728179, 100.772385
1759228308.843205, 6.808511, 10.715998, 5.279364, -0.475329, -4.222437, -0.937410, -25.508789, -29.043869, -90.653183, 13.728179, 100.772385
1759228308.863126, 8.503755, 8.624962, 1.271321, 0.801349, -3.578595, -0.915836, -23.343857, -27.905869, -92.385010, 13.728179, 100.772385
1759228308.883100, 10.250475, 6.643910, -2.726996, 2.487900, -0.981512, -1.197247, -22.477264, -26.688644, -94.235382, 13.728179, 100.772385
1759228308.902222, 9.589675, 6.657078, -1.475127, 3.927547, -0.637118, -1.199376, -22.299942, -24.090012, -94.496353, 13.728179, 100.772385
1759228308.923130, 6.056732, 9.860071, -7.245004, 5.165210, -0.663679, -1.195434, -21.457321, -20.716415, -95.113144, 13.728179, 100.772385
1759228308.943140, 3.305794, 10.696395, -5.285051, 3.935596, 0.458383, -1.084508, -21.568344, -17.935577, -94.899673, 13.728179, 100.772385
1759228308.963142, 5.905149, 8.247725, 1.285387, 2.650979, -1.848846, -0.911706, -21.102890, -15.916260, -96.290649, 13.728179, 100.772385
1759228308.983113, 7.361721, 4.736629, -0.787842, 2.581712, -1.821964, -0.978119, -20.150681, -14.307068, -98.182693, 13.728179, 100.772385
1759228309.002628, 6.693440, 2.939780, -2.631677, 2.825811, -1.202591, -1.124305, -19.759659, -12.675186, -99.764496, 13.728179, 100.772385
1759228309.023127, 3.867833, 3.145831, -2.615366, 2.729213, -1.099442, -1.169801, -19.667023, -10.635574, -101.348770, 13.728179, 100.772385
1759228309.043229, 1.693299, 3.889081, -2.290503, 2.027551, -0.942846, -0.765086, -19.429489, -9.354706, -103.311111, 13.728179, 100.772385
1759228309.063129, 0.414795, 4.340239, -1.747318, 1.268424, -0.472437, -0.180553, -19.349411, -8.193085, -103.705521, 13.728179, 100.772385
1759228309.083121, -1.023222, 3.859154, -1.087416, 1.067466, -0.070334, -0.037096, -18.982193, -7.980255, -104.304337, 13.728179, 100.772385
1759228309.103120, -2.452710, 2.583942, -0.781707, 0.874105, 0.107558, -0.181821, -19.551178, -7.572601, -104.612885, 13.728179, 100.772385
1759228309.123132, -2.496404, 0.846650, -1.851316, 0.539391, 0.949328, -0.081945, -19.712662, -7.089828, -104.244171, 13.728179, 100.772385
1759228309.143129, -1.263540, -0.549918, -2.951452, -0.001166, 1.201567, 0.055216, -19.966827, -7.120300, -103.796494, 13.728179, 100.772385
1759228309.163125, 0.533458, -0.234033, -3.576788, -0.732509, 1.372908, 0.347040, -20.367706, -6.961975, -102.499496, 13.728179, 100.772385
1759228309.183113, 1.518971, 0.580893, -5.583278, -1.507807, 0.982068, 0.517915, -20.263504, -7.450150, -101.365463, 13.728179, 100.772385
1759228309.203112, 2.959533, 1.897255, -16.161160, -1.893825, 0.469856, 1.008707, -20.875000, -8.299332, -100.217987, 13.728179, 100.772385
1759228309.223129, 7.313388, 8.138340, -12.814515, -2.339921, 0.750379, 0.706937, -20.430481, -9.625000, -99.605057, 13.728179, 100.772385
1759228309.243239, 9.627833, 12.200103, 3.700688, -2.762896, -0.330360, 0.093667, -20.449295, -11.293976, -97.942993, 13.728179, 100.772385
1759228309.263120, 2.712182, 19.238607, -11.365126, -1.872889, 0.083947, 0.098051, -20.177490, -11.964264, -98.213821, 13.728179, 100.772385
1759228309.283112, 2.858527, 9.808296, -2.933047, -2.141013, 1.386241, -0.419988, -20.206329, -13.230484, -97.284500, 13.728179, 100.772385
1759228309.303124, -1.404050, 7.622540, -6.454768, -1.831553, 0.158666, -0.159086, -20.597382, -13.334778, -95.765335, 13.728179, 100.772385
1759228309.323145, 6.199935, 6.694038, -2.659659, -1.937198, 0.965677, 1.307280, -21.091431, -14.342102, -95.421066, 13.728179, 100.772385
1759228309.343181, 9.868750, 7.151630, -4.634277, -1.917816, 0.509992, 1.878076, -20.619492, -16.407837, -94.887741, 13.728179, 100.772385
1759228309.362706, 10.712406, 8.078485, -1.498321, -2.386215, 0.377271, 1.020005, -20.967422, -18.137589, -93.954041, 13.728179, 100.772385
1759228309.382519, 7.536797, 8.215703, -0.715118, -2.827556, -0.169162, 0.110677, -21.155106, -19.918167, -94.184799, 13.728179, 100.772385
1759228309.402321, 5.458929, 9.126996, -1.752556, -2.979982, -0.425124, 0.157933, -20.701614, -21.652740, -93.841385, 13.728179, 100.772385
1759228309.423126, 4.170250, 9.726145, -2.499397, -2.460778, -0.352633, 0.552124, -21.080276, -23.552139, -93.813766, 13.728179, 100.772385
1759228309.443125, 2.862418, 10.089016, -3.277213, -1.716079, 0.041433, 0.812523, -21.058777, -24.854767, -94.073334, 13.728179, 100.772385
1759228309.463120, 3.331083, 8.675689, -3.118448, -1.024368, 0.611024, 0.708115, -20.782059, -25.752853, -93.645157, 13.728179, 100.772385
1759228309.483113, 3.250428, 7.937377, -3.324349, -0.625543, 1.009290, 0.604941, -21.473190, -26.943192, -93.369324, 13.728179, 100.772385
1759228309.503119, 4.562002, 6.629245, -2.662053, -0.537454, 1.340076, 0.662066, -21.949799, -27.503082, -92.607971, 13.728179, 100.772385
1759228309.523125, 5.045930, 6.538116, -2.050933, -0.611524, 1.488590, 0.701387, -23.055420, -27.966492, -91.800919, 13.728179, 100.772385
1759228309.543119, 4.751592, 7.019500, -2.122310, -0.735186, 1.419028, 0.645594, -23.448471, -28.900330, -90.551971, 13.728179, 100.772385
1759228309.563121, 4.179528, 7.543082, -2.124405, -0.787552, 1.381213, 0.607089, -24.309219, -29.387222, -90.056885, 13.728179, 100.772385
1759228309.583129, 3.629161, 7.849839, -1.135600, -0.816752, 1.432735, 0.525331, -25.256088, -30.457275, -89.632477, 13.728179, 100.772385
1759228309.603134, 3.201796, 8.467543, -2.034772, -0.499761, 1.624431, 0.456005, -26.215347, -30.980896, -89.115845, 13.728179, 100.772385
1759228309.623126, 2.757222, 8.789414, -2.560898, -0.136973, 1.851567, 0.484577, -27.563828, -31.310135, -87.242722, 13.728179, 100.772385
1759228309.643188, 3.113510, 8.354567, -2.192939, -0.175159, 1.922862, 0.420333, -28.972000, -31.714920, -85.558350, 13.728179, 100.772385
1759228309.663018, 4.012532, 7.605032, -0.732027, -0.642049, 1.557598, 0.217704, -29.626907, -32.237564, -85.729553, 13.728179, 100.772385
1759228309.683127, 5.098153, 7.110629, -1.154304, -0.977333, 0.990080, 0.063197, -30.620773, -32.808990, -85.422485, 13.728179, 100.772385
1759228309.703245, 4.965125, 6.746411, -2.486528, -0.823964, 0.793188, 0.100935, -31.092499, -33.399353, -85.207657, 13.728179, 100.772385
1759228309.722217, 4.503942, 7.505523, -2.610129, -0.680730, 0.827538, 0.275466, -31.475403, -34.127182, -85.130020, 13.728179, 100.772385
1759228309.743140, 3.823390, 9.849297, -2.114529, -0.599461, 0.781182, 0.489055, -32.185486, -34.460526, -84.624893, 13.728179, 100.772385
1759228309.763129, 4.375254, 11.787702, -2.455104, -0.337455, 0.972683, 0.340643, -32.875549, -34.592163, -84.219055, 13.728179, 100.772385
1759228309.783112, 5.178658, 11.313650, -1.315913, -0.308179, 1.007163, 0.048510, -33.808762, -35.236191, -83.819427, 13.728179, 100.772385
1759228309.803122, 6.035333, 10.441862, 0.167893, -0.708202, 0.681275, 0.026561, -34.052948, -35.394165, -83.413345, 13.728179, 100.772385
1759228309.822637, 6.920440, 10.404602, 0.474800, -0.893743, 0.085595, -0.130557, -33.648224, -35.813004, -83.314575, 13.728179, 100.772385
1759228309.843121, 8.961497, 12.004527, 0.774674, -0.591637, -0.438583, -0.048315, -33.753113, -36.597229, -83.511688, 13.728179, 100.772385
1759228309.863149, 9.827001, 13.672687, 1.755548, 0.187445, -0.946613, -0.129190, -32.868301, -36.205429, -84.510498, 13.728179, 100.772385
1759228309.883307, 10.937611, 11.234642, 0.938377, 0.748317, -0.474730, -0.143592, -32.536285, -35.307968, -83.938660, 13.728179, 100.772385
1759228309.903147, 12.310087, 9.059659, -2.809446, 1.073729, 1.199425, 0.178877, -33.571808, -34.889328, -82.843292, 13.728179, 100.772385
1759228309.922972, 8.525004, 11.289858, -7.368455, 1.827179, 0.814628, 0.411976, -33.917603, -33.780151, -82.059372, 13.728179, 100.772385
1759228309.943183, 5.567417, 13.484144, -8.523358, 2.595721, -1.513815, 0.058028, -32.501816, -31.780289, -81.952423, 13.728179, 100.772385
1759228309.963182, 3.828328, 14.118458, -5.466561, 2.209458, -3.402589, -0.625815, -30.243210, -30.119843, -82.731339, 13.728179, 100.772385
1759228309.983113, 5.422119, 13.371467, -0.855179, 0.683688, -4.889615, -1.066958, -26.623474, -28.376984, -85.625275, 13.728179, 100.772385
1759228310.003228, 7.066037, 9.256433, 4.053234, -1.047864, -5.788486, -0.933224, -22.950653, -28.420853, -89.193619, 13.728179, 100.772385
1759228310.023251, 8.333617, 8.335413, -1.754950, -0.582374, -5.580342, -1.295300, -19.823654, -27.455063, -93.146866, 13.728179, 100.772385
1759228310.042950, 10.068516, 6.073042, -3.598784, 2.090902, -2.240686, -1.514075, -17.709564, -25.515259, -95.343628, 13.728179, 100.772385
1759228310.063126, 9.045743, 6.088006, -0.687884, 3.606239, 0.527684, -1.406955, -18.122833, -22.357605, -95.380325, 13.728179, 100.772385
1759228310.083310, 8.213159, 6.623110, -1.146224, 4.574176, 0.087037, -1.105178, -17.781036, -19.616409, -94.991211, 13.728179, 100.772385
1759228310.103325, 3.250727, 8.408436, -3.993528, 4.503251, -0.867901, -0.964813, -17.423065, -16.928909, -95.801361, 13.728179, 100.772385
1759228310.123153, 1.515530, 10.382007, -5.254375, 3.467419, -0.251249, -0.974743, -17.320770, -14.039993, -97.416977, 13.728179, 100.772385
1759228310.143162, 3.922451, 8.537274, -1.206678, 2.083519, -1.508759, -0.989978, -16.940460, -12.034332, -98.939102, 13.728179, 100.772385
1759228310.163199, 4.671387, 5.981165, -1.954117, 1.923607, -1.630116, -1.094854, -16.389740, -10.383087, -100.918381, 13.728179, 100.772385
1759228310.183311, 3.870526, 5.064335, -2.467674, 2.580090, -0.996820, -1.134437, -16.602402, -8.572220, -102.217163, 13.728179, 100.772385
1759228310.203224, 2.965967, 5.052813, -2.883816, 3.072406, -0.550931, -0.995929, -16.548141, -6.694611, -103.788895, 13.728179, 100.772385
1759228310.223309, 2.568529, 5.163694, -2.017414, 2.873129, -0.146066, -0.621642, -16.217743, -5.526108, -105.375229, 13.728179, 100.772385
1759228310.242959, 1.973570, 4.575170, -1.688211, 2.296454, 0.030518, -0.322804, -16.864380, -4.405914, -106.760544, 13.728179, 100.772385
1759228310.263307, 1.391779, 3.134010, -1.819144, 1.826620, 0.168949, -0.274852, -17.128784, -3.662338, -106.892380, 13.728179, 100.772385
1759228310.283311, 0.617554, 1.761684, -2.375347, 1.355566, 0.293823, -0.285662, -17.156296, -3.353165, -107.728394, 13.728179, 100.772385
1759228310.303195, -0.128539, 1.150264, -2.472911, 0.695559, 0.288155, -0.299662, -17.408478, -3.070145, -108.278809, 13.728179, 100.772385
1759228310.323137, -0.032621, 1.195305, -3.431639, 0.256165, 0.326504, -0.268128, -17.587341, -2.275650, -108.163239, 13.728179, 100.772385
1759228310.343238, 0.177171, 1.413626, -3.828777, -0.180175, 0.602925, -0.267732, -17.823425, -2.305405, -107.767136, 13.728179, 100.772385
1759228310.363235, 0.300323, 1.189619, -3.834164, -0.583108, 0.790823, -0.183007, -18.150940, -1.812714, -106.535660, 13.728179, 100.772385
1759228310.383296, 1.183933, 1.274015, -6.282385, -1.160216, 1.090700, 0.053822, -17.849854, -1.678268, -105.806229, 13.728179, 100.772385
1759228310.403245, 1.853411, 1.788020, -8.029554, -2.288981, 1.576442, 0.108642, -17.948822, -2.040771, -103.490265, 13.728179, 100.772385
1759228310.423232, 1.444601, 0.754024, -7.979874, -2.496529, 0.417530, 0.110102, -18.584549, -2.965500, -102.195221, 13.728179, 100.772385
1759228310.443252, 5.591808, 3.552546, -9.868450, -2.159728, -0.020241, 0.030526, -18.439499, -3.480072, -101.318237, 13.728179, 100.772385
1759228310.463231, 8.050802, 21.782297, -9.888053, -2.914201, -0.601888, 1.058001, -17.950745, -4.530457, -100.821243, 13.728179, 100.772385
1759228310.483178, 6.027253, 20.760123, -2.269105, -1.866069, 0.491643, -0.350641, -17.392044, -5.466583, -99.991470, 13.728179, 100.772385
1759228310.503319, -1.512088, 10.533739, -7.395090, -1.724765, 0.866899, -1.584069, -18.249191, -4.994003, -98.694046, 13.728179, 100.772385
1759228310.523260, 0.856825, 6.661716, -3.351284, -2.060968, 1.015183, -0.877024, -19.124252, -4.613281, -96.570923, 13.728179, 100.772385
1759228310.542891, 5.079598, 4.696227, -5.120449, -1.735790, 0.446485, 0.586406, -19.354630, -5.622406, -95.870956, 13.728179, 100.772385
1759228310.563296, 10.657340, 6.948572, -4.609137, -1.809925, 0.967227, 1.717763, -19.822266, -7.289978, -94.831650, 13.728179, 100.772385
1759228310.583195, 10.141838, 7.712771, -2.719065, -1.971853, 0.791768, 1.166604, -19.569977, -9.232208, -93.684723, 13.728179, 100.772385
1759228310.603265, 7.179313, 8.091205, -2.391957, -2.247626, 0.222161, 0.315052, -19.574203, -10.778381, -93.249954, 13.728179, 100.772385
1759228310.623234, 6.408380, 8.004864, -1.454328, -2.498223, 0.057962, 0.376682, -19.473419, -11.842300, -92.607803, 13.728179, 100.772385
1759228310.642696, 4.917690, 8.613739, -2.344971, -2.315728, -0.151770, 0.734595, -19.638931, -13.491272, -91.997528, 13.728179, 100.772385
1759228310.663320, 4.307169, 9.273790, -2.217779, -1.955984, -0.064727, 0.974443, -19.289597, -15.249542, -91.726593, 13.728179, 100.772385
1759228310.683221, 4.187459, 8.512135, -2.739416, -1.416238, 0.254412, 0.853990, -19.004501, -16.829224, -91.376419, 13.728179, 100.772385
1759228310.703149, 4.118925, 8.177246, -3.094805, -1.040094, 0.664999, 0.723899, -19.229294, -18.012207, -91.101761, 13.728179, 100.772385
1759228310.723152, 4.139275, 7.665635, -2.516456, -0.851747, 0.826561, 0.651593, -19.438782, -18.768875, -90.525955, 13.728179, 100.772385
1759228310.743096, 3.689016, 7.258771, -1.873762, -0.846106, 0.755826, 0.605821, -19.806824, -19.998718, -90.030975, 13.728179, 100.772385
1759228310.763129, 3.652355, 7.082797, -2.252046, -0.726559, 0.807784, 0.613234, -20.322647, -20.368179, -89.297577, 13.728179, 100.772385
1759228310.783127, 3.488352, 7.283012, -2.542493, -0.575551, 0.992147, 0.608943, -21.034714, -21.231140, -88.895096, 13.728179, 100.772385
1759228310.803159, 3.221398, 7.815871, -2.446575, -0.319956, 1.358844, 0.592478, -22.250977, -22.105972, -87.461823, 13.728179, 100.772385
1759228310.823172, 3.438522, 8.575432, -1.783231, -0.006210, 1.630654, 0.542255, -23.141479, -22.377701, -86.497818, 13.728179, 100.772385
1759228310.843311, 3.707870, 8.989479, -2.497003, 0.300875, 1.690737, 0.439532, -24.329269, -22.860748, -84.819733, 13.728179, 100.772385
1759228310.863134, 4.043956, 8.626009, -2.635866, 0.225977, 1.544004, 0.371739, -25.069946, -22.648621, -84.204971, 13.728179, 100.772385
1759228310.883135, 4.395305, 8.255656, -0.566678, -0.421223, 1.010292, 0.222418, -26.343719, -23.024063, -83.695450, 13.728179, 100.772385
1759228310.903322, 4.867562, 8.004864, 0.060753, -0.912366, 0.848123, 0.134535, -26.687424, -23.670761, -83.145142, 13.728179, 100.772385
1759228310.923186, 5.902306, 7.766940, -0.643142, -1.013249, 0.835161, 0.288382, -27.191895, -24.031540, -82.903534, 13.728179, 100.772385
1759228310.943120, 5.792771, 7.316381, -0.888099, -0.987964, 0.841940, 0.453398, -27.708130, -25.032196, -82.573364, 13.728179, 100.772385
1759228310.962516, 5.310339, 7.722797, -0.458340, -0.853355, 0.566379, 0.537644, -27.925430, -25.851746, -81.886292, 13.728179, 100.772385
1759228310.983111, 3.965546, 8.271368, -0.002245, -0.706106, 0.765279, 0.480302, -29.128189, -26.651520, -81.610840, 13.728179, 100.772385
1759228311.003119, 3.547309, 8.355913, -0.926257, -0.672039, 1.306389, 0.523637, -29.471054, -27.396027, -81.226227, 13.728179, 100.772385
1759228311.023126, 3.185635, 8.685715, -1.446247, -0.712678, 1.155224, 0.473532, -30.617859, -28.106750, -80.030167, 13.728179, 100.772385
1759228311.043117, 3.318214, 9.196877, -1.922544, -0.765660, 0.730717, 0.324642, -31.271057, -28.819839, -79.966476, 13.728179, 100.772385
1759228311.062892, 4.435558, 9.955988, -1.437419, -0.826963, 0.644825, 0.337740, -31.204361, -29.299820, -79.489471, 13.728179, 100.772385
1759228311.083145, 5.658247, 11.204415, -0.916381, -0.825178, 0.580480, 0.290772, -31.848328, -30.032547, -79.230423, 13.728179, 100.772385
1759228311.103120, 6.584503, 12.141146, -0.898125, -0.514021, 0.407383, 0.009995, -32.018707, -30.037415, -79.541046, 13.728179, 100.772385
1759228311.123130, 6.676082, 12.596344, -0.112378, -0.163020, -0.164465, -0.229415, -31.475372, -29.878738, -79.063293, 13.728179, 100.772385
1759228311.143219, 8.241890, 12.540379, 1.947833, 0.140475, -1.175538, -0.402195, -30.807053, -29.035309, -79.414551, 13.728179, 100.772385
1759228311.163120, 11.095179, 11.142166, 2.535160, 0.060900, -0.895055, -0.428592, -30.120789, -28.565659, -80.167145, 13.728179, 100.772385
1759228311.183107, 12.875717, 9.821913, 0.545279, -0.026540, 0.759066, -0.048986, -31.104599, -28.516464, -79.247452, 13.728179, 100.772385
1759228311.203124, 12.394932, 8.546851, -3.432687, 0.724919, 1.263000, 0.620851, -31.947342, -28.082260, -79.543976, 13.728179, 100.772385
1759228311.223133, 8.283489, 10.082731, -7.850737, 2.360157, -0.317773, 0.561959, -31.108780, -26.468689, -79.591080, 13.728179, 100.772385
1759228311.243214, 6.084115, 12.513295, -10.932823, 3.290200, -1.180801, 0.224454, -30.337479, -23.564880, -80.288742, 13.728179, 100.772385
1759228311.263167, 4.512472, 13.851654, -8.659229, 2.721546, -2.058726, -0.222417, -28.862991, -21.326645, -81.694916, 13.728179, 100.772385
1759228311.283113, 2.549376, 13.521404, -3.163638, 1.070838, -3.855008, -0.749410, -25.787720, -19.651169, -83.978165, 13.728179, 100.772385
1759228311.303150, 3.798551, 10.370484, 3.529353, -0.185228, -5.499014, -0.744092, -22.767639, -19.292740, -88.127136, 13.728179, 100.772385
1759228311.323126, 4.843769, 7.242460, 7.150882, -0.621927, -4.458140, -1.331532, -20.543686, -18.308670, -91.256897, 13.728179, 100.772385
1759228311.343124, 8.969727, 8.586505, 0.536600, 1.198002, -1.815540, -1.814782, -19.788956, -16.142715, -93.058075, 13.728179, 100.772385
1759228311.363113, 7.125892, 10.263643, -2.825757, 3.209260, -0.433473, -1.718245, -19.738708, -13.198364, -94.184143, 13.728179, 100.772385
1759228311.383112, 5.498733, 12.129475, -7.310994, 4.712875, 0.357893, -1.599997, -20.952591, -9.978851, -95.572784, 13.728179, 100.772385
1759228311.403120, 4.132841, 12.341960, -7.060351, 5.386894, 0.841129, -1.497988, -21.666031, -6.807373, -97.098206, 13.728179, 100.772385
1759228311.423129, 4.906467, 9.360281, -2.478897, 4.459832, 0.602996, -1.673881, -22.700089, -4.016861, -97.746506, 13.728179, 100.772385
1759228311.443123, 7.099406, 6.717531, -0.081104, 3.260588, -1.171791, -1.826809, -23.081711, -1.661072, -100.694366, 13.728179, 100.772385
1759228311.462450, 6.930316, 5.110423, -6.070947, 3.517214, -1.524708, -1.706320, -23.777969, 0.474060, -103.600845, 13.728179, 100.772385
1759228311.483102, 4.948815, 5.663783, -6.159682, 3.713657, -1.157822, -1.631929, -24.243469, 2.273849, -105.809402, 13.728179, 100.772385
1759228311.503122, 4.371363, 7.202507, -4.727351, 3.610217, -1.290789, -1.531712, -25.347885, 3.326553, -108.250656, 13.728179, 100.772385
1759228311.523125, 3.927688, 6.953959, -3.483863, 3.473185, -1.076876, -1.240803, -25.950333, 4.779068, -110.807053, 13.728179, 100.772385
1759228311.543226, 3.087024, 5.212776, -3.611952, 3.687077, -0.706600, -1.019354, -26.547440, 5.167557, -114.049713, 13.728179, 100.772385
1759228311.562943, 2.050035, 3.764882, -2.964022, 3.759417, -0.166287, -0.760919, -27.329758, 5.892822, -115.865448, 13.728179, 100.772385
1759228311.583111, 0.381726, 2.512565, -1.920748, 3.131642, 0.221777, -0.508718, -27.870316, 5.870209, -118.262497, 13.728179, 100.772385
1759228311.603002, -0.414047, 1.751059, -1.483058, 2.490649, 0.587697, -0.297880, -27.671204, 5.688919, -119.104980, 13.728179, 100.772385
1759228311.623130, -0.352995, 0.945710, -1.425448, 2.178398, 1.191414, -0.101704, -28.344727, 5.728195, -119.624954, 13.728179, 100.772385
1759228311.643118, 0.126743, -0.573711, -0.696862, 1.417166, 1.383781, -0.105500, -28.048706, 5.584976, -119.670456, 13.728179, 100.772385
1759228311.662339, 0.103400, -1.577480, -1.008707, 0.471886, 1.510045, 0.092262, -28.390396, 6.062622, -119.829697, 13.728179, 100.772385
1759228311.683126, -0.358232, -1.839944, -1.227178, -0.444319, 1.483700, 0.243950, -28.228165, 5.154984, -118.543259, 13.728179, 100.772385
1759228311.703154, -0.016759, -1.636437, -1.623269, -1.260699, 1.021428, -0.111129, -27.955841, 5.243484, -117.566391, 13.728179, 100.772385
1759228311.723126, 0.494253, 0.907253, -6.223428, -1.507890, 0.621754, -0.651677, -28.723785, 5.476440, -116.147476, 13.728179, 100.772385
1759228311.743120, 0.106392, 5.100847, -11.920730, -1.347145, 0.671596, -0.821711, -29.055481, 6.090286, -115.535904, 13.728179, 100.772385
1759228311.763133, -0.161459, 7.173178, -14.944158, -0.808417, 0.914017, -1.039148, -29.980835, 6.793747, -114.772110, 13.728179, 100.772385
1759228311.782448, 1.549348, 6.675932, -15.257649, -0.205033, 1.477144, -0.805134, -30.609924, 7.036285, -114.289688, 13.728179, 100.772385
1759228311.802160, 5.172224, 3.433734, -13.254151, -0.373726, 2.084188, -0.450677, -31.162735, 7.469528, -113.185074, 13.728179, 100.772385
1759228311.823182, 5.161600, 0.680851, -8.598027, -1.356041, 1.738148, -0.633093, -32.100800, 7.361237, -111.861755, 13.728179, 100.772385
1759228311.843142, 2.993949, 0.684742, -12.439673, -1.146980, -0.589544, -0.974163, -32.724762, 7.718796, -110.792587, 13.728179, 100.772385
1759228311.863119, 19.932477, 5.909189, -15.724219, -1.043251, 0.183017, -0.020449, -32.605148, 7.951004, -110.342606, 13.728179, 100.772385
1759228311.883101, 14.575301, 26.321703, -15.876250, -1.111703, 0.612286, -0.194145, -32.897202, 7.040863, -109.546082, 13.728179, 100.772385
1759228311.903271, -2.343175, 7.718607, -0.790386, -0.859510, 2.158618, -1.323684, -33.832581, 6.725067, -108.587570, 13.728179, 100.772385
1759228311.923130, -0.340276, -4.207211, -2.590975, -1.530551, 0.441507, -0.782505, -35.156219, 7.489410, -107.327454, 13.728179, 100.772385
1759228311.943141, -0.604686, -5.733215, -1.840393, -1.953713, -0.870238, -0.023599, -35.170761, 6.839798, -106.560120, 13.728179, 100.772385
1759228311.963122, 4.626495, 3.738696, -2.224662, -2.732855, -1.124352, 0.770636, -34.405914, 6.130402, -105.854874, 13.728179, 100.772385
1759228311.983112, 13.515119, 12.762591, -6.562956, -2.727044, -0.495669, 0.850994, -33.716675, 5.179062, -104.585754, 13.728179, 100.772385
1759228312.003142, 9.944915, 13.173646, -6.528240, -2.096151, -0.341302, -0.288681, -33.557571, 4.006805, -103.468857, 13.728179, 100.772385
1759228312.023129, 3.210176, 6.595427, -1.779939, -2.243064, -0.248504, -0.466539, -34.240997, 3.636749, -102.475403, 13.728179, 100.772385
1759228312.043169, 1.639280, 5.248988, -2.733580, -2.443312, -0.758297, -0.024297, -33.679504, 2.907516, -101.690948, 13.728179, 100.772385
1759228312.063109, 1.580023, 7.034015, -3.484012, -2.389830, -0.785490, 0.381428, -33.210358, 2.095703, -101.794434, 13.728179, 100.772385
1759228312.083100, 2.074127, 9.583540, -3.736601, -1.960985, -0.127594, 0.611617, -32.951019, 0.902863, -100.221664, 13.728179, 100.772385
1759228312.103141, 5.498583, 10.652701, -5.107431, -1.181371, 0.362582, 0.851479, -32.853577, 0.069534, -99.542450, 13.728179, 100.772385
1759228312.123127, 7.080402, 8.699481, -4.963180, -0.673252, 0.667708, 0.696715, -32.865570, -0.400299, -98.941910, 13.728179, 100.772385
1759228312.143139, 5.422567, 6.274155, -3.737947, -0.671149, 0.762795, 0.316351, -32.719009, -1.258148, -98.452164, 13.728179, 100.772385
1759228312.163138, 3.850475, 5.627721, -3.314772, -1.120948, 0.659710, 0.154292, -32.977509, -1.341629, -97.291550, 13.728179, 100.772385
1759228312.182892, 3.710863, 6.353014, -2.877830, -1.642096, 0.223364, 0.297362, -32.851242, -2.523911, -96.944931, 13.728179, 100.772385
1759228312.203184, 4.307169, 7.476793, -2.759018, -1.937102, -0.160738, 0.519389, -32.616455, -3.547104, -95.788345, 13.728179, 100.772385
1759228312.223128, 4.258387, 8.561964, -3.494786, -1.854004, -0.057928, 0.592554, -32.863144, -4.824829, -95.046112, 13.728179, 100.772385
1759228312.243115, 3.911377, 8.852112, -3.109020, -1.573913, 0.218508, 0.471845, -32.450470, -5.576508, -94.729172, 13.728179, 100.772385
1759228312.263123, 3.420566, 8.853458, -3.221997, -1.124335, 0.384125, 0.215549, -32.490784, -6.190125, -93.613266, 13.728179, 100.772385
1759228312.282397, 3.701286, 8.965537, -3.524714, -0.752552, 0.534076, 0.023413, -32.907547, -6.604019, -93.897705, 13.728179, 100.772385
1759228312.303125, 4.599112, 8.342895, -2.081758, -0.601395, 0.740855, -0.045117, -33.357956, -7.022781, -93.340134, 13.728179, 100.772385
1759228312.323126, 5.308693, 7.821109, -2.023100, -0.499687, 0.905233, 0.044834, -34.117081, -7.278839, -93.029755, 13.728179, 100.772385
1759228312.343145, 5.497985, 7.483676, -2.242020, -0.349743, 0.875595, 0.129310, -34.438278, -7.448456, -92.354492, 13.728179, 100.772385
1759228312.363124, 5.536591, 7.351097, -2.344672, -0.226240, 0.874210, 0.081742, -34.653702, -7.801819, -92.227814, 13.728179, 100.772385
1759228312.382795, 5.432144, 7.649325, -1.811513, -0.240399, 0.817471, -0.028954, -35.202057, -8.040878, -91.521332, 13.728179, 100.772385
1759228312.403125, 5.408053, 7.935731, -1.726818, -0.299841, 0.662369, -0.077104, -35.550095, -8.214569, -91.264099, 13.728179, 100.772385
1759228312.423125, 5.381268, 8.161085, -1.763928, -0.369534, 0.538602, -0.034971, -35.998535, -8.212875, -90.717575, 13.728179, 100.772385
1759228312.443128, 5.583278, 8.611943, -1.533935, -0.423401, 0.465487, 0.085859, -36.257309, -8.496765, -90.730865, 13.728179, 100.772385
1759228312.463119, 5.143493, 8.627655, -1.879448, -0.417647, 0.374554, 0.206842, -36.603760, -9.003784, -90.712799, 13.728179, 100.772385
1759228312.483111, 4.712088, 8.200590, -2.801665, -0.407794, 0.420450, 0.246020, -36.821091, -9.467407, -90.503891, 13.728179, 100.772385
1759228312.503120, 4.491971, 8.250120, -2.381333, -0.418848, 0.403244, 0.229394, -36.670929, -9.421844, -90.863846, 13.728179, 100.772385
1759228312.522245, 4.008941, 8.374020, -2.192939, -0.451162, 0.331747, 0.175381, -36.936584, -9.690063, -90.227875, 13.728179, 100.772385
1759228312.543131, 4.051887, 8.844031, -1.445050, -0.609501, 0.113787, 0.010115, -37.160889, -10.192902, -89.652985, 13.728179, 100.772385
1759228312.563106, 4.589236, 8.924536, -1.604265, -0.613500, 0.103190, -0.020478, -37.158325, -10.581192, -90.143967, 13.728179, 100.772385
1759228312.583113, 5.212925, 8.473379, -1.764527, -0.590908, 0.073011, -0.017135, -37.451614, -10.898544, -89.157150, 13.728179, 100.772385
1759228312.603123, 5.706131, 8.054992, -1.418714, -0.577781, -0.040998, 0.050174, -37.326019, -11.657776, -89.133713, 13.728179, 100.772385
1759228312.623131, 5.330690, 8.136395, -0.466420, -0.733999, -0.110943, 0.096767, -37.179260, -11.789856, -89.228012, 13.728179, 100.772385
1759228312.643124, 4.723760, 9.020304, 1.027861, -0.834419, 0.234801, -0.011594, -37.181534, -12.543701, -89.128799, 13.728179, 100.772385
1759228312.663191, 4.123713, 9.563788, 1.788319, -0.511836, 0.726597, -0.123842, -37.568893, -12.596817, -88.580429, 13.728179, 100.772385
1759228312.683118, 3.043928, 9.153482, 1.325640, 0.008770, 0.728358, -0.046908, -37.849304, -12.617706, -88.039963, 13.728179, 100.772385
1759228312.702734, 4.223222, 8.284536, -0.239869, 0.195448, 0.340674, 0.021198, -38.459702, -12.376495, -88.402954, 13.728179, 100.772385
1759228312.723131, 6.231508, 7.366360, 0.215478, -0.238358, 0.908957, -0.129263, -38.944550, -12.661423, -87.687759, 13.728179, 100.772385
1759228312.743256, 7.602039, 6.724864, 1.208623, -0.657318, 0.605789, 0.038240, -39.309540, -13.506210, -87.946106, 13.728179, 100.772385
1759228312.763124, 7.101950, 7.016208, 0.974440, -0.665690, -0.025448, 0.124065, -39.302902, -13.809891, -87.402191, 13.728179, 100.772385
1759228312.783105, 6.241983, 7.052420, 0.651372, -0.464806, -0.099557, 0.238408, -39.265900, -14.130203, -87.466141, 13.728179, 100.772385
1759228312.803115, 4.945972, 7.496994, 1.043423, -0.293791, 0.088291, 0.295824, -39.174942, -14.459122, -87.803925, 13.728179, 100.772385
1759228312.823125, 4.079720, 8.329876, 0.951845, -0.276622, 0.284205, 0.220887, -39.510254, -14.643829, -87.260391, 13.728179, 100.772385
1759228312.843129, 4.730194, 8.315960, 0.300173, -0.443484, 0.408512, 0.096944, -39.704285, -14.993011, -87.595169, 13.728179, 100.772385
1759228312.863122, 5.705981, 7.968352, -0.295235, -0.355314, 0.201388, 0.080184, -39.794617, -14.817825, -87.319443, 13.728179, 100.772385
1759228312.883100, 6.033388, 7.843554, 0.127491, -0.050114, 0.157803, 0.136166, -39.871048, -14.968445, -87.682617, 13.728179, 100.772385
1759228312.903119, 5.535394, 8.220342, 1.079785, 0.057925, 0.274287, 0.152859, -40.090729, -15.000381, -87.521423, 13.728179, 100.772385
1759228312.923128, 5.093514, 8.539668, 1.209371, 0.009703, 0.297851, 0.069399, -40.207092, -14.717407, -87.475739, 13.728179, 100.772385
1759228312.943116, 5.434239, 8.405593, 0.802058, -0.002838, 0.188756, -0.008619, -40.537964, -15.004364, -86.654434, 13.728179, 100.772385
1759228312.963134, 5.900211, 7.950844, 0.528670, 0.006834, 0.034988, -0.000783, -40.478500, -15.120911, -87.059265, 13.728179, 100.772385
1759228312.983108, 6.070049, 7.786542, 0.582988, 0.048410, -0.036947, 0.013243, -40.380737, -15.123474, -87.268814, 13.728179, 100.772385
1759228313.003140, 6.515371, 8.017882, 0.702848, 0.016920, 0.178040, 0.043037, -40.750275, -14.935196, -87.147369, 13.728179, 100.772385
1759228313.023126, 6.384737, 8.122928, 0.408960, -0.100459, 0.259672, 0.075138, -40.884232, -15.228790, -86.872406, 13.728179, 100.772385
1759228313.043153, 5.593603, 7.732374, -0.008529, -0.072746, -0.049709, 0.050207, -40.549728, -15.441635, -87.124100, 13.728179, 100.772385
1759228313.062173, 5.977723, 7.590667, 0.515801, -0.060716, -0.202259, 0.066452, -40.525391, -15.066269, -87.225891, 13.728179, 100.772385
1759228313.083112, 6.151752, 7.709479, 1.009006, -0.094788, -0.104209, 0.117116, -40.137268, -15.347702, -87.672012, 13.728179, 100.772385
1759228313.102457, 5.898265, 7.933786, 0.787393, -0.116571, 0.011501, 0.139873, -40.735977, -15.233246, -87.327789, 13.728179, 100.772385
1759228313.122629, 5.306149, 8.105719, 0.420033, -0.144965, -0.008664, 0.110186, -40.424408, -15.612106, -87.573547, 13.728179, 100.772385
1759228313.143121, 5.013458, 8.384345, 0.402525, -0.158909, -0.067905, 0.064955, -40.276352, -16.146515, -87.549805, 13.728179, 100.772385
1759228313.163120, 5.463718, 8.366238, 0.581791, -0.137449, 0.028224, 0.042482, -40.354630, -15.953827, -87.230515, 13.728179, 100.772385
1759228313.183111, 5.665429, 8.139537, 0.462979, -0.144850, 0.120402, 0.025327, -40.022446, -15.868622, -87.038666, 13.728179, 100.772385
1759228313.202732, 5.789479, 8.115895, 0.109086, -0.099133, 0.070065, 0.038146, -40.468719, -16.113831, -86.738205, 13.728179, 100.772385
1759228313.222669, 5.778106, 8.118588, 0.085144, -0.035322, -0.085422, 0.035376, -40.735260, -16.059616, -87.126419, 13.728179, 100.772385
1759228313.243124, 5.670218, 7.931840, 0.570718, -0.046723, -0.169032, 0.018049, -40.344437, -16.284836, -87.309677, 13.728179, 100.772385
1759228313.263121, 5.525817, 7.872734, 0.813430, -0.102367, -0.223061, 0.026991, -40.269989, -16.285172, -86.843781, 13.728179, 100.772385
1759228313.283099, 5.657199, 8.240393, 0.623839, -0.051161, -0.192520, 0.046375, -40.073746, -16.532883, -87.121948, 13.728179, 100.772385
1759228313.303129, 5.287145, 8.148216, 0.632219, -0.007710, -0.117989, 0.065396, -40.061768, -16.320343, -87.584610, 13.728179, 100.772385
1759228313.323127, 5.102343, 8.141183, 0.670227, -0.005545, -0.129892, 0.060318, -39.983826, -16.216614, -87.885590, 13.728179, 100.772385
1759228313.343218, 5.228787, 8.192060, 0.864008, -0.019761, -0.137403, 0.084003, -39.784897, -16.240433, -87.550629, 13.728179, 100.772385
1759228313.363139, 5.385757, 8.223185, 1.040879, 0.021229, -0.038294, 0.108891, -39.547073, -16.022110, -87.661407, 13.728179, 100.772385
1759228313.383128, 5.452495, 8.226327, 0.944513, 0.067056, 0.092183, 0.118212, -39.783539, -16.304016, -87.246979, 13.728179, 100.772385
1759228313.403120, 5.489605, 8.229769, 0.943615, 0.028560, 0.099809, 0.113868, -39.611954, -16.132156, -87.520889, 13.728179, 100.772385
1759228313.423128, 5.315277, 8.066215, 0.856376, -0.014443, -0.021081, 0.090376, -39.802582, -16.040695, -87.306351, 13.728179, 100.772385
1759228313.443143, 5.404012, 7.812130, 0.666486, -0.012873, -0.141193, 0.077958, -39.730240, -16.430435, -87.742264, 13.728179, 100.772385
1759228313.463125, 5.730671, 8.112752, 0.605134, 0.016409, -0.217590, 0.128136, -39.810654, -16.185211, -87.747253, 13.728179, 100.772385
1759228313.483099, 5.733814, 8.314913, 0.591667, 0.034069, -0.187348, 0.159199, -39.719299, -16.286499, -87.252029, 13.728179, 100.772385
1759228313.503120, 5.055207, 7.983465, 0.590620, 0.032552, -0.089107, 0.143992, -39.124466, -16.513870, -87.439606, 13.728179, 100.772385
1759228313.522846, 4.912752, 8.053645, 0.627281, 0.114093, -0.025247, 0.162513, -39.268509, -16.398102, -87.641129, 13.728179, 100.772385
1759228313.543240, 4.877887, 8.582914, 0.529418, 0.250911, 0.101275, 0.219370, -39.658920, -16.288300, -87.302429, 13.728179, 100.772385
1759228313.563132, 4.641908, 8.941894, 0.178817, 0.341490, 0.270135, 0.201011, -39.719162, -16.303787, -87.115036, 13.728179, 100.772385
1759228313.583140, 4.059818, 8.927529, 0.049979, 0.367771, 0.242449, 0.192682, -39.422150, -16.134872, -87.578659, 13.728179, 100.772385
1759228313.603122, 3.891924, 9.036765, 0.282965, 0.406307, 0.227438, 0.199436, -39.776413, -15.807419, -87.136063, 13.728179, 100.772385
1759228313.623124, 3.827880, 9.008483, 0.107440, 0.463584, 0.445399, 0.212001, -40.238251, -16.006271, -87.309464, 13.728179, 100.772385
1759228313.643126, 3.848230, 8.986636, -0.208296, 0.506482, 0.686971, 0.238825, -40.559906, -15.612732, -86.588257, 13.728179, 100.772385
1759228313.663122, 3.790769, 9.167548, -0.443376, 0.501224, 0.798686, 0.220225, -41.140915, -15.343063, -86.689697, 13.728179, 100.772385
1759228313.682966, 3.896264, 9.465626, -0.745195, 0.544340, 0.836052, 0.197462, -41.571838, -15.108932, -86.879944, 13.728179, 100.772385
1759228313.702831, 3.966893, 9.369708, -1.195455, 0.759500, 0.972739, 0.180495, -42.286667, -14.824356, -87.215622, 13.728179, 100.772385
1759228313.723127, 4.158579, 9.336638, -1.273865, 0.983903, 1.059430, 0.195688, -42.709091, -14.349457, -85.889130, 13.728179, 100.772385
1759228313.743139, 4.486285, 9.557204, -0.928801, 1.158383, 1.033107, 0.218004, -43.353668, -13.667130, -86.365143, 13.728179, 100.772385
1759228313.763124, 4.780473, 9.578153, -0.703297, 1.335796, 1.212286, 0.187559, -44.641525, -13.011459, -85.945587, 13.728179, 100.772385
1759228313.783112, 5.041889, 8.985738, -0.938078, 1.522364, 1.418897, 0.152175, -45.218140, -12.183578, -86.730942, 13.728179, 100.772385
1759228313.803123, 5.481225, 8.206425, -2.074127, 1.844443, 1.260280, 0.123153, -46.216370, -11.112473, -86.476807, 13.728179, 100.772385
1759228313.823126, 5.762993, 7.968352, -3.595343, 2.325542, 0.630071, 0.012515, -46.870117, -9.642700, -86.863922, 13.728179, 100.772385
1759228313.843119, 5.959168, 8.767417, -5.134515, 2.823116, -0.127273, -0.130734, -47.168701, -8.316650, -87.427109, 13.728179, 100.772385
1759228313.863122, 6.642862, 10.787076, -5.977873, 3.099472, -1.043798, -0.302761, -46.627899, -6.672165, -88.239716, 13.728179, 100.772385
1759228313.883162, 6.048950, 11.175236, -4.612130, 2.867646, -1.582411, -0.528098, -45.804520, -4.958038, -89.878815, 13.728179, 100.772385
1759228313.903080, 4.061314, 10.419117, -1.243189, 1.812434, -2.182017, -0.898943, -45.031662, -4.070297, -91.180710, 13.728179, 100.772385
1759228313.922316, 4.249558, 9.699360, 3.352481, 0.999020, -2.142420, -1.033481, -44.731873, -3.346634, -91.363510, 13.728179, 100.772385
1759228313.943124, 3.865887, 8.520365, 5.023035, -0.469408, -0.701075, -1.026366, -44.825500, -3.568863, -91.458481, 13.728179, 100.772385
1759228313.963211, 5.316923, 9.064747, 1.628656, 0.307890, -0.092073, -1.077964, -44.909424, -3.869598, -91.072357, 13.728179, 100.772385
1759228313.983108, 4.622605, 10.078841, -2.176778, 1.371889, -0.424655, -1.383013, -45.376175, -2.604660, -91.987457, 13.728179, 100.772385
1759228314.003193, 2.800767, 11.084705, -3.361609, 1.687512, 0.546419, -1.643871, -46.175323, -1.685028, -92.522141, 13.728179, 100.772385
1759228314.022683, 2.558354, 11.438149, -2.892944, 1.666183, 1.327832, -1.678546, -47.850037, -0.817123, -92.520630, 13.728179, 100.772385
1759228314.042867, 4.433014, 9.301773, -1.903390, 1.665268, 1.814029, -1.635066, -49.415207, -0.060883, -92.945953, 13.728179, 100.772385
1759228314.063130, 5.739051, 7.953987, -0.073921, 1.368706, 1.756537, -1.700945, -51.232239, 0.732681, -93.157120, 13.728179, 100.772385
1759228314.083113, 6.439056, 6.971167, 0.156521, 1.320691, 1.646175, -1.702165, -52.645462, 1.176666, -93.282974, 13.728179, 100.772385
1759228314.103120, 6.202628, 6.450129, -0.963517, 1.351558, 1.428493, -1.583695, -54.531464, 1.748413, -93.955170, 13.728179, 100.772385
1759228314.123079, 5.257517, 6.063166, -1.980005, 1.209848, 1.393820, -1.349948, -56.165878, 2.649841, -94.060165, 13.728179, 100.772385
1759228314.143142, 4.762666, 5.605874, -2.150592, 0.827932, 1.216066, -1.192319, -56.461960, 2.960159, -95.409668, 13.728179, 100.772385
1759228314.163258, 5.071967, 5.214272, -2.396596, 0.556386, 1.185672, -1.061838, -57.974350, 2.892975, -95.360107, 13.728179, 100.772385
1759228314.183121, 4.844517, 5.040543, -2.249053, 0.338425, 1.191584, -0.883913, -58.918396, 2.802277, -95.534988, 13.728179, 100.772385
1759228314.203186, 4.339790, 5.404761, -2.349460, 0.114757, 1.167258, -0.628337, -59.840683, 2.842300, -95.910721, 13.728179, 100.772385
1759228314.223311, 3.751265, 6.371120, -2.313697, 0.005225, 1.044204, -0.392389, -60.549881, 3.061844, -95.697845, 13.728179, 100.772385
1759228314.243231, 3.706972, 6.705710, -2.039112, -0.086635, 0.886815, -0.330136, -61.307846, 2.607574, -95.897385, 13.728179, 100.772385
1759228314.263141, 3.802292, 6.158336, -2.468721, -0.239765, 0.961024, -0.293234, -61.836700, 2.546387, -95.186172, 13.728179, 100.772385
1759228314.283147, 3.764284, 5.486912, -2.720561, -0.529229, 1.046033, -0.141303, -62.582352, 1.995514, -95.521835, 13.728179, 100.772385
1759228314.303298, 4.020912, 5.186589, -3.157653, -0.840454, 0.953161, 0.157883, -62.728333, 1.622192, -94.799454, 13.728179, 100.772385
1759228314.323153, 4.265719, 5.852027, -4.137031, -0.986878, 0.978980, 0.489562, -63.319199, 1.434692, -94.124756, 13.728179, 100.772385
1759228314.343117, 2.810493, 7.529315, -5.344307, -0.917866, 1.096088, 0.478813, -63.363266, 0.911667, -93.869858, 13.728179, 100.772385
1759228314.363191, 1.540669, 10.346542, -7.349301, -0.636097, 1.320400, 0.224228, -64.253510, 0.571915, -94.340698, 13.728179, 100.772385
1759228314.383188, 1.475277, 13.834595, -9.251494, -0.270640, 1.895670, 0.155095, -64.616745, 0.500427, -94.060852, 13.728179, 100.772385
1759228314.403204, 0.928052, 17.428890, -9.195979, 0.263334, 1.540752, 0.052505, -65.515137, 0.624817, -94.588638, 13.728179, 100.772385
1759228314.423259, 0.810437, 14.825795, -6.850858, 0.766174, 0.704457, -0.238823, -66.121078, 0.943253, -94.996536, 13.728179, 100.772385
1759228314.443157, 0.680552, 9.111284, -4.938939, 1.299612, 0.971758, -0.235370, -66.980789, 0.958908, -95.533600, 13.728179, 100.772385
1759228314.463193, 5.156063, 6.706608, 3.781791, 0.407395, 0.712690, 0.393498, -67.216431, 1.386795, -95.257645, 13.728179, 100.772385
1759228314.483288, 13.316101, 8.571691, 3.974375, -0.624390, 1.258065, 1.527070, -67.020111, 1.308578, -95.863266, 13.728179, 100.772385
1759228314.503134, 6.094889, 11.292402, -12.103587, 0.191804, 1.836310, 0.534738, -67.347580, 1.262543, -95.970612, 13.728179, 100.772385
1759228314.523220, 9.082853, 19.056498, -10.274417, 1.622831, -0.416976, -0.366357, -67.565994, 1.904953, -96.973724, 13.728179, 100.772385
1759228314.543184, 4.452617, 3.097199, 9.148544, 0.059231, -1.423090, -0.356362, -67.197800, 1.648666, -96.409729, 13.728179, 100.772385
1759228314.563124, 2.988861, 0.447865, 4.085855, -0.177624, -0.139971, -0.156519, -67.163437, 1.672363, -96.398270, 13.728179, 100.772385
1759228314.583103, 2.977489, 0.636708, 2.305467, -0.298531, 0.022832, 0.240227, -66.645782, 1.632034, -96.019577, 13.728179, 100.772385
1759228314.602370, 4.995352, 2.926163, 2.813786, -0.609579, -0.187875, 0.885731, -66.870010, 1.467148, -95.819336, 13.728179, 100.772385
1759228314.623115, 8.264186, 7.043592, 4.238186, -1.410909, 0.642510, 1.615099, -66.257507, 1.027130, -95.672867, 13.728179, 100.772385
1759228314.643147, 9.427319, 12.189778, 1.277755, -2.111799, 2.392343, 1.566495, -66.622528, 0.593887, -94.853745, 13.728179, 100.772385
1759228314.663124, 1.819893, 15.650298, -12.288390, -0.527396, 0.487655, -0.031581, -67.300262, 0.586151, -94.472122, 13.728179, 100.772385
1759228314.683100, 6.117335, 9.983073, 0.587627, -0.088127, -0.468028, 0.016716, -66.716278, 0.459869, -94.854782, 13.728179, 100.772385
1759228314.702544, 6.053589, 6.943634, 0.952144, -0.253164, 0.869469, 0.311963, -66.681168, 0.102112, -94.386597, 13.728179, 100.772385
1759228314.723132, 4.913949, 5.694010, -0.361973, -0.172049, 1.580383, 0.239534, -67.533798, 0.052963, -94.212463, 13.728179, 100.772385
1759228314.742193, 4.521899, 6.073790, -0.332644, -0.154998, 1.043117, 0.277796, -68.157303, 0.103256, -95.192947, 13.728179, 100.772385
1759228314.763127, 3.809175, 8.931869, -0.500089, -0.238248, 0.929956, 0.346261, -68.453644, 0.213928, -95.154526, 13.728179, 100.772385
1759228314.783129, 4.122067, 9.645341, -0.795474, -0.205950, 1.341966, 0.372802, -68.781570, 0.039825, -96.023712, 13.728179, 100.772385
1759228314.803134, 4.380342, 9.488820, -0.652420, 0.047914, 1.617552, 0.170499, -69.507401, 0.038696, -95.930801, 13.728179, 100.772385
1759228314.823127, 4.501698, 8.649652, -0.645237, 0.287749, 1.775197, 0.063137, -70.354843, 0.330307, -96.063293, 13.728179, 100.772385
1759228314.842781, 4.202273, 7.043143, -0.723348, 0.262934, 1.908478, -0.000603, -70.897552, -0.159332, -96.763641, 13.728179, 100.772385
1759228314.863122, 4.724957, 6.727856, -0.382025, 0.044819, 1.948105, 0.016359, -72.086060, 0.102890, -97.767517, 13.728179, 100.772385
1759228314.883126, 6.227917, 7.864803, -0.136769, -0.155918, 1.658886, 0.121984, -72.798782, 0.126877, -97.868637, 13.728179, 100.772385
1759228314.902331, 6.731897, 8.407089, -0.177021, -0.271076, 1.261543, 0.155954, -73.053772, -0.059631, -98.140213, 13.728179, 100.772385
1759228314.922193, 6.166416, 8.124873, -0.542137, -0.277086, 1.050915, 0.114548, -73.502960, -0.402649, -98.389786, 13.728179, 100.772385
1759228314.943127, 5.480926, 8.195053, 0.777517, -0.463424, 0.734016, 0.121339, -74.182861, -0.484207, -98.623581, 13.728179, 100.772385
1759228314.962403, 4.439299, 7.725640, 2.051232, -0.760388, 0.460775, 0.109192, -74.228683, -0.481628, -98.165604, 13.728179, 100.772385
1759228314.983136, 4.638018, 7.323115, 2.389563, -0.968608, 0.481829, 0.170615, -74.526321, -0.767349, -98.071304, 13.728179, 100.772385
1759228315.003121, 5.067328, 6.957400, 1.610849, -0.923861, 0.678459, 0.276218, -74.820007, -1.658066, -98.209717, 13.728179, 100.772385
1759228315.023076, 5.645677, 7.323414, 0.954538, -0.781464, 0.512000, 0.422015, -74.774979, -1.772385, -98.139694, 13.728179, 100.772385
1759228315.042645, 5.584625, 7.916278, 0.001646, -0.697139, 0.365675, 0.466065, -74.932236, -1.888367, -97.852188, 13.728179, 100.772385
1759228315.062462, 5.141249, 8.934263, -0.942867, -0.714768, 0.251067, 0.572807, -74.725906, -1.875229, -97.699615, 13.728179, 100.772385
1759228315.083148, 4.632331, 10.803236, -0.711527, -0.720126, 0.263198, 0.517642, -74.745407, -2.075089, -97.485291, 13.728179, 100.772385
1759228315.103318, 3.491644, 11.431714, -1.086070, -0.576034, 0.149963, 0.367029, -74.709824, -2.482346, -97.581100, 13.728179, 100.772385
1759228315.123126, 3.131017, 10.060735, -2.500744, -0.173929, 0.100449, 0.311426, -74.634995, -2.527115, -97.336212, 13.728179, 100.772385
1759228315.143121, 4.840028, 10.154408, -2.641253, 0.242331, 0.227341, 0.405800, -74.685226, -2.659714, -97.573227, 13.728179, 100.772385
1759228315.162800, 4.884471, 12.847136, -1.939154, 0.782165, 0.015043, 0.206237, -74.282516, -2.014908, -97.590988, 13.728179, 100.772385
1759228315.183187, 3.635894, 15.730503, -0.702997, 1.218260, 0.182791, -0.204552, -75.017136, -1.425613, -98.197311, 13.728179, 100.772385
1759228315.203327, 3.452888, 13.785364, -1.482609, 1.603555, 0.274234, -0.573431, -74.709274, -1.456039, -98.715210, 13.728179, 100.772385
1759228315.223217, 5.636250, 10.944644, -3.282151, 2.196510, -0.558244, -0.699947, -74.926117, -0.838303, -99.024506, 13.728179, 100.772385
1759228315.243149, 7.339575, 8.677036, -1.923442, 2.757528, -1.299710, -0.821704, -74.902374, -0.361603, -99.961395, 13.728179, 100.772385
1759228315.263160, 8.593837, 8.436119, 1.005714, 2.864991, -1.178922, -0.698818, -74.513367, 0.370743, -101.069611, 13.728179, 100.772385
1759228315.283182, 10.106524, 8.974964, 2.680458, 2.591959, -0.806332, -0.532390, -74.533737, 1.052628, -102.002884, 13.728179, 100.772385
1759228315.303266, 9.211990, 9.033024, 4.046350, 1.915317, -0.741417, -0.582237, -74.166916, 1.242661, -102.341782, 13.728179, 100.772385
1759228315.323142, 7.854328, 8.823681, 4.029441, 1.212600, -1.206305, -0.699531, -73.879425, 1.731827, -102.915970, 13.728179, 100.772385
1759228315.343321, 7.083844, 9.259425, 2.058714, 0.980469, -2.283693, -0.821915, -73.924255, 1.595566, -102.624878, 13.728179, 100.772385
1759228315.363190, 6.176891, 9.613318, 0.455647, 1.155633, -3.013913, -0.776055, -72.960281, 1.791351, -102.842789, 13.728179, 100.772385
1759228315.383111, 5.436783, 9.392303, 0.244059, 1.292133, -2.703289, -0.712374, -72.182266, 1.909439, -101.751923, 13.728179, 100.772385
1759228315.403120, 3.496582, 8.804826, 0.141408, 1.593154, -0.851286, -0.988235, -72.276520, 2.054047, -102.428680, 13.728179, 100.772385
1759228315.423124, 2.972850, 8.992621, -0.458340, 2.078656, 0.588627, -1.147287, -72.831268, 2.578690, -102.754089, 13.728179, 100.772385
1759228315.443121, 3.127276, 9.529671, -0.977882, 2.515730, 0.634523, -1.209799, -73.532547, 2.796707, -105.115402, 13.728179, 100.772385
1759228315.463120, 4.398298, 8.872612, -0.444573, 2.649719, 0.919189, -1.147970, -73.959000, 3.167038, -106.158386, 13.728179, 100.772385
1759228315.483099, 5.247491, 7.744494, 0.550666, 2.488436, 1.076108, -1.038926, -75.088211, 3.181168, -108.213074, 13.728179, 100.772385
1759228315.503120, 5.623980, 5.792472, 0.828693, 2.052659, 0.923463, -0.977221, -75.400925, 3.255081, -109.406433, 13.728179, 100.772385
1759228315.522425, 5.434389, 3.674351, 0.991798, 1.701169, 0.813095, -1.035761, -75.963440, 3.007187, -110.919724, 13.728179, 100.772385
1759228315.543116, 5.505467, 2.364873, 0.877774, 0.423334, 0.952006, -0.843038, -76.469452, 2.947556, -111.129425, 13.728179, 100.772385
1759228315.562297, 5.034408, 2.287809, 0.203358, 0.054572, 1.058442, -0.639287, -76.928299, 2.426849, -112.174500, 13.728179, 100.772385
1759228315.583115, 4.262577, 3.060089, -0.320374, -0.483598, 1.370770, -0.215089, -77.318390, 2.614700, -112.144318, 13.728179, 100.772385
1759228315.602551, 4.152593, 4.366874, -1.066766, -0.656578, 1.786726, 0.205400, -77.289307, 2.228836, -112.735764, 13.728179, 100.772385
1759228315.622381, 4.465336, 5.515343, -1.960702, -0.544345, 2.178989, 0.575110, -77.174393, 2.468857, -112.872284, 13.728179, 100.772385
1759228315.642185, 4.325724, 6.145916, -2.568081, -0.504107, 2.721727, 0.670489, -76.782608, 2.872696, -113.917923, 13.728179, 100.772385
1759228315.662705, 4.287866, 7.468712, -3.721038, -0.487607, 3.056651, 0.722858, -76.428101, 3.019638, -115.323166, 13.728179, 100.772385
1759228315.683101, 3.083283, 10.718542, -6.905027, -0.120538, 3.165321, 0.631072, -75.793320, 3.218475, -116.476501, 13.728179, 100.772385
1759228315.703132, 2.335993, 18.653075, -15.097087, 1.206238, 1.403385, -0.188065, -76.209946, 3.047470, -117.400421, 13.728179, 100.772385
1759228315.723126, 7.100454, 20.202124, -8.227824, 1.145456, 0.468259, -0.635202, -76.043060, 3.132065, -118.444107, 13.728179, 100.772385
1759228315.743123, 5.501875, 10.663924, -6.468235, 1.526257, -0.881555, -1.368826, -76.530869, 2.437653, -118.666626, 13.728179, 100.772385
1759228315.763089, 2.614468, 3.263297, -3.731962, 1.960490, 0.366110, -1.950732, -77.029617, 2.100006, -120.100693, 13.728179, 100.772385
1759228315.783113, 4.524742, -0.214730, 7.093720, 0.313880, 0.681317, -1.566778, -77.998154, 1.153732, -120.671402, 13.728179, 100.772385
1759228315.803122, 9.863662, 2.351405, 2.014272, -0.374905, 1.007824, -0.424234, -77.728195, 0.817749, -121.096100, 13.728179, 100.772385
1759228315.823125, 23.305758, 15.095292, -12.738799, -0.616016, 3.487662, 1.879658, -76.595596, 1.566910, -122.223938, 13.728179, 100.772385
1759228315.843120, 5.098901, 10.729016, 4.098873, -0.695363, -1.615020, 1.092673, -76.143616, 1.807297, -122.016708, 13.728179, 100.772385
1759228315.863121, 4.180575, 5.771373, 6.221183, -0.881148, -0.391859, -0.274078, -76.188232, 2.043854, -121.139175, 13.728179, 100.772385
1759228315.882182, 4.885518, 5.029619, 4.494515, -1.354663, 0.683712, -0.198212, -76.093262, 2.315353, -121.206894, 13.728179, 100.772385
1759228315.903151, 3.458873, 5.141398, 0.608726, -1.283972, 0.827669, 0.361568, -75.697128, 2.120972, -120.902359, 13.728179, 100.772385
1759228315.923133, 2.279879, 8.947431, -0.599897, -0.793840, 0.267675, 0.410402, -75.435226, 2.194611, -120.073120, 13.728179, 100.772385
1759228315.943182, 5.359420, 11.983279, 0.293439, -0.407516, 0.543626, 0.429483, -75.119598, 2.515167, -120.423019, 13.728179, 100.772385
1759228315.962859, 3.368492, 13.262381, -1.775450, 0.171453, 0.432382, -0.037624, -75.469894, 2.548309, -120.559616, 13.728179, 100.772385
1759228315.983125, 3.741688, 8.763526, -0.890194, 0.223149, 0.522120, -0.214567, -74.907288, 2.355103, -120.704071, 13.728179, 100.772385
1759228316.003179, 4.172645, 6.393117, -0.072425, -0.029436, 1.372778, -0.215352, -74.926773, 2.433426, -121.102676, 13.728179, 100.772385
1759228316.023126, 5.040393, 6.367529, -0.264110, -0.009213, 1.823598, -0.102887, -74.901566, 2.474762, -121.729523, 13.728179, 100.772385
1759228316.043165, 6.861034, 8.034043, -1.613991, 0.141670, 1.721166, 0.133543, -74.498917, 2.712570, -122.988617, 13.728178, 100.772385
1759228316.063139, 6.546047, 9.329605, -1.990928, 0.072522, 1.232362, 0.198820, -74.300705, 2.572525, -123.792801, 13.728178, 100.772385
1759228316.083199, 5.097555, 7.995137, -1.079186, -0.126214, 0.831513, 0.094688, -74.234711, 2.449707, -123.127747, 13.728178, 100.772385
1759228316.103310, 4.652233, 7.222857, -0.635661, -0.097188, 1.075902, 0.186198, -73.677139, 2.778305, -123.610168, 13.728178, 100.772385
1759228316.123231, 4.749946, 7.467216, -0.779911, 0.042252, 1.415337, 0.291521, -73.217773, 2.865051, -124.551086, 13.728178, 100.772385
1759228316.143147, 4.452467, 8.024167, -0.683245, 0.121705, 1.383062, 0.295168, -72.790070, 3.008530, -124.991623, 13.728178, 100.772385
1759228316.163153, 4.181174, 8.717737, -0.106093, 0.026230, 1.335208, 0.282017, -72.578156, 2.930527, -125.056335, 13.728178, 100.772385
1759228316.183199, 4.013281, 8.573187, -0.239869, -0.169880, 1.272742, 0.208356, -72.132477, 3.194260, -125.773972, 13.728178, 100.772385
1759228316.203317, 4.645050, 8.205977, -0.624587, -0.243869, 1.169856, 0.140571, -71.825256, 3.095993, -126.097870, 13.728178, 100.772385
1759228316.223243, 5.280711, 8.076241, -0.448464, -0.304233, 1.036603, 0.120393, -71.222916, 3.313660, -125.872757, 13.728178, 100.772385
1759228316.243316, 5.874772, 8.055591, -0.626832, -0.415750, 0.926212, 0.173099, -70.891205, 3.206070, -126.360779, 13.728178, 100.772385
1759228316.263269, 5.304204, 8.305186, -1.096395, -0.435293, 0.779104, 0.237785, -70.748352, 3.630615, -126.092819, 13.728178, 100.772385
1759228316.283162, 4.712088, 8.434473, -1.232415, -0.355756, 0.583517, 0.262836, -70.146606, 3.444977, -126.439240, 13.728178, 100.772385
1759228316.303247, 4.138976, 8.630050, -1.144279, -0.256452, 0.440307, 0.253122, -69.641342, 3.677856, -126.336212, 13.728178, 100.772385
1759228316.323188, 4.017321, 8.966285, -0.845752, -0.109635, 0.273894, 0.230164, -69.426392, 4.023254, -126.534729, 13.728178, 100.772385
1759228316.343138, 4.080318, 9.020604, -0.940472, 0.151745, 0.488382, 0.098753, -69.203003, 3.576004, -126.510376, 13.728178, 100.772385
1759228316.363197, 4.561702, 8.318803, -1.853711, 0.521396, 0.760544, 0.050271, -68.474625, 3.994843, -126.896286, 13.728178, 100.772385
1759228316.382330, 5.382016, 9.708488, -1.452532, 1.047875, 0.719910, 0.166285, -68.229645, 3.738815, -126.999191, 13.728178, 100.772385
1759228316.403138, 4.904672, 12.670265, -0.941819, 1.578840, 0.757955, 0.031398, -67.953888, 3.350632, -128.075043, 13.728178, 100.772385
1759228316.423128, 3.760543, 14.536545, -1.468394, 1.970031, 1.028768, -0.322471, -67.618027, 3.014389, -129.750397, 13.728178, 100.772385
1759228316.443117, 4.280533, 12.711565, -2.333150, 2.292822, 0.828366, -0.401473, -66.914093, 2.339188, -131.355499, 13.728178, 100.772385
1759228316.463120, 7.337330, 9.983522, -2.117522, 2.442408, -0.108584, -0.279704, -67.174789, 2.026123, -132.287430, 13.728178, 100.772385
1759228316.482629, 9.377040, 8.075792, -0.984915, 2.454247, -1.134755, -0.167227, -67.110748, 1.430161, -133.028503, 13.728178, 100.772385
1759228316.503129, 10.550050, 6.860734, 0.427215, 2.089311, -1.874772, -0.147156, -67.748199, 1.059204, -133.877579, 13.728178, 100.772385
1759228316.523125, 9.256881, 5.459528, 1.247529, 1.425711, -2.099704, -0.376912, -68.138474, 0.347168, -133.675369, 13.728178, 100.772385
1759228316.543121, 8.588001, 6.304980, 2.150891, 0.819011, -1.804294, -0.448268, -68.615646, 0.192657, -134.094727, 13.728178, 100.772385
1759228316.563076, 8.629301, 8.672397, 2.628833, 0.582507, -1.342525, -0.392431, -69.519485, 0.391327, -133.852264, 13.728178, 100.772385
1759228316.583135, 7.767538, 9.712827, 1.156399, 0.821722, -1.347228, -0.420041, -69.605331, -0.172119, -134.236786, 13.728178, 100.772385
1759228316.603120, 5.782745, 8.696189, -0.366612, 1.313859, -1.085394, -0.386625, -70.077194, -0.196060, -134.395660, 13.728178, 100.772385
1759228316.623126, 4.462642, 8.050353, -0.805350, 1.475344, -0.556700, -0.342307, -70.140442, -1.310593, -134.348145, 13.728178, 100.772385
1759228316.643226, 3.514987, 8.126220, -0.772130, 1.347088, -0.104589, -0.313708, -70.517990, -1.369476, -135.013428, 13.728178, 100.772385
1759228316.663122, 2.526032, 7.433547, -0.580594, 1.099908, 0.305331, -0.347524, -70.307358, -1.767380, -135.510422, 13.728178, 100.772385
1759228316.682579, 3.169025, 6.573580, -0.812083, 0.793387, 0.490312, -0.156690, -69.887207, -2.133148, -135.885269, 13.728178, 100.772385
1759228316.703121, 4.464438, 5.787085, -0.071078, 0.426535, 0.861144, 0.103118, -69.761780, -1.981155, -136.828659, 13.728178, 100.772385
1759228316.723126, 5.326201, 5.399074, 0.367510, 0.232691, 1.438872, 0.104032, -69.031555, -1.577759, -137.110260, 13.728178, 100.772385
1759228316.743181, 5.862652, 5.274576, 0.057162, 0.195476, 2.036752, -0.094559, -68.282028, -2.193985, -137.618103, 13.728178, 100.772385
1759228316.763122, 6.240936, 4.485836, 0.613664, 0.049767, 2.217648, -0.236743, -67.390808, -2.089371, -138.207520, 13.728178, 100.772385
1759228316.783111, 7.460183, 4.860379, 0.114323, -0.171831, 2.498470, -0.221428, -66.302155, -2.004364, -138.768524, 13.728178, 100.772385
1759228316.802708, 7.501183, 5.976825, -2.506879, -0.158656, 2.298795, -0.364266, -65.284302, -2.331940, -139.309021, 13.728178, 100.772385
1759228316.823126, 5.522974, 8.238747, -4.603900, -0.407971, 1.892906, -0.366076, -64.639938, -1.846756, -139.371292, 13.728178, 100.772385
1759228316.843123, 5.297171, 9.475203, -3.069815, -0.662591, 2.068638, -0.277955, -63.951538, -1.751678, -139.596893, 13.728178, 100.772385
1759228316.863130, 5.481225, 8.956259, -1.469741, -0.450050, 2.130151, -0.323829, -62.940231, -1.306259, -140.053757, 13.728178, 100.772385
1759228316.883110, 5.537489, 7.658602, -1.336862, 0.126145, 1.316092, -0.291697, -62.229202, -1.227325, -140.061218, 13.728178, 100.772385
1759228316.902835, 6.015581, 6.580613, -2.896086, 0.750726, 0.996612, -0.240882, -61.550507, -1.653275, -140.265289, 13.728178, 100.772385
1759228316.923122, 7.836970, 5.524770, -4.266617, 0.862472, 1.157489, -0.205565, -61.115265, -1.765549, -140.260666, 13.728178, 100.772385
1759228316.943112, 9.818471, 4.823119, -2.478448, 0.274602, 0.914303, -0.227454, -61.139084, -1.778305, -140.758896, 13.728178, 100.772385
1759228316.963103, 10.840496, 5.572953, -0.258574, -0.249530, 0.927068, -0.106506, -60.644958, -1.739975, -140.949142, 13.728178, 100.772385
1759228316.983111, 9.961675, 8.458864, 0.185551, -0.591148, 1.243674, 0.042629, -60.059067, -1.819641, -140.313370, 13.728178, 100.772385
1759228317.003121, 6.538415, 11.166557, 1.670255, -0.803949, -0.103001, -0.023032, -59.720673, -1.322571, -140.363968, 13.728178, 100.772385
1759228317.023128, 1.977461, 11.864915, -0.205452, -0.504602, -1.278091, -0.060958, -60.144958, -0.902588, -139.731964, 13.728178, 100.772385
1759228317.043114, 2.050334, 9.395596, -0.808642, -0.300080, -0.230424, -0.150579, -60.115967, -0.895660, -140.321198, 13.728176, 100.772387
1759228317.063109, 3.575441, 6.894104, 0.146944, -0.314758, 1.365379, -0.325661, -59.760803, -0.782654, -140.600250, 13.728176, 100.772387
1759228317.083133, 7.122600, 6.843077, 1.504756, -0.394556, 1.746408, -0.238242, -59.245026, -0.360077, -139.630737, 13.728176, 100.772387
1759228317.103190, 7.690176, 6.265925, 0.455946, -0.451140, 1.762275, 0.037116, -58.569763, -0.285950, -139.662781, 13.728176, 100.772387
1759228317.123128, 6.457910, 5.835418, -0.018106, -0.347841, 1.002302, 0.092804, -57.970016, -0.126144, -139.555466, 13.728176, 100.772387
1759228317.143213, 5.478233, 7.629273, 0.295684, -0.245572, 0.221177, 0.063585, -57.849472, -0.124649, -139.251221, 13.728176, 100.772387
1759228317.163129, 5.527314, 8.360851, 0.429310, -0.249468, 0.147555, 0.028288, -57.681839, 0.110352, -139.415909, 13.728176, 100.772387
1759228317.183104, 6.314108, 8.582016, 0.205452, -0.282547, 0.458669, 0.025358, -57.810043, 0.187012, -139.193024, 13.728176, 100.772387
1759228317.202213, 6.599018, 8.027309, 0.114922, -0.200714, 0.689059, 0.039317, -57.212540, 0.056152, -138.906235, 13.728176, 100.772387
1759228317.223132, 6.578368, 8.100781, 0.187047, -0.139271, 0.553533, 0.017094, -56.561584, 0.334244, -138.932022, 13.728176, 100.772387
1759228317.243124, 5.984157, 8.539070, -0.922815, -0.142320, 0.148849, 0.011142, -56.838730, 0.413315, -139.066971, 13.728176, 100.772387
1759228317.263127, 5.422567, 8.426093, -1.452831, -0.099221, -0.471700, -0.047361, -56.918686, 0.326492, -139.050385, 13.728176, 100.772387
1759228317.283099, 5.670816, 7.812579, -0.351798, -0.141324, -0.622300, -0.042113, -57.227936, 0.369110, -138.943069, 13.728176, 100.772387
1759228317.302624, 5.831527, 7.541137, 1.119589, -0.150615, -0.371871, -0.017618, -57.328415, 0.576797, -138.640961, 13.728176, 100.772387
1759228317.323130, 6.008997, 7.741202, 1.938555, -0.116546, 0.019209, 0.026838, -57.162094, 0.527008, -138.770096, 13.728176, 100.772387
1759228317.343226, 5.145139, 7.727435, 1.830367, -0.165849, 0.271311, 0.053980, -57.151505, 0.618576, -138.786194, 13.728176, 100.772387
1759228317.363114, 4.581604, 8.548198, 0.636259, -0.173251, 0.232256, 0.043286, -57.419846, 0.684372, -137.968277, 13.728176, 100.772387
1759228317.383102, 4.415506, 8.721478, -0.279074, -0.108100, 0.263188, -0.021535, -56.981857, 0.606720, -139.109894, 13.728176, 100.772387
1759228317.402990, 5.346103, 8.553285, -0.025289, -0.058049, 0.286172, -0.068742, -57.082520, 0.505997, -138.610870, 13.728176, 100.772387
1759228317.423134, 6.071246, 8.015787, 0.300622, -0.037930, 0.278619, -0.077571, -57.101318, 0.625992, -138.744492, 13.728176, 100.772387
1759228317.443216, 6.520459, 7.625233, 0.274585, -0.014177, 0.209257, -0.049756, -56.798996, 0.355591, -138.894547, 13.728176, 100.772387
1759228317.463121, 6.567146, 7.286753, 0.117316, -0.004659, 0.068209, -0.000711, -56.708466, 0.826736, -138.357407, 13.728176, 100.772387
1759228317.483099, 6.131102, 7.578546, 0.064643, -0.036311, -0.092730, 0.022453, -56.349472, 0.535080, -139.142227, 13.728176, 100.772387
1759228317.503105, 5.654506, 7.987356, 0.405817, -0.045375, -0.194863, 0.025692, -56.781723, 0.815521, -138.871567, 13.728176, 100.772387
1759228317.523119, 5.380070, 8.148067, 0.827496, -0.054525, -0.135038, 0.015699, -56.827408, 0.718277, -139.221970, 13.728176, 100.772387
1759228317.543117, 5.399074, 8.228123, 0.938228, -0.083492, 0.002640, -0.003807, -56.290863, 0.747665, -138.331436, 13.728176, 100.772387
1759228317.562966, 5.454590, 7.963264, 0.553210, -0.093355, 0.081244, -0.012863, -56.948257, 0.963043, -138.708450, 13.728176, 100.772387
1759228317.583124, 5.561581, 7.979575, 0.296731, -0.057248, 0.069425, -0.004026, -56.683075, 0.811981, -138.415192, 13.728176, 100.772387
1759228317.603111, 5.754164, 7.940220, 0.484826, -0.023192, 0.064414, -0.000022, -56.589905, 0.895859, -138.243027, 13.728176, 100.772387
1759228317.623132, 5.840505, 7.891588, 0.594660, -0.032252, 0.126502, 0.002733, -56.921570, 0.998520, -138.152130, 13.728176, 100.772387
1759228317.643122, 5.905897, 7.890540, 0.425869, -0.049890, 0.122666, 0.011134, -56.417328, 0.941269, -138.209290, 13.728176, 100.772387
1759228317.663121, 5.941511, 7.880814, 0.278476, -0.052923, 0.059758, 0.015512, -56.407776, 1.113388, -138.223572, 13.728176, 100.772387
1759228317.683112, 5.777209, 7.883657, 0.292392, -0.037465, 0.016540, 0.018542, -56.342728, 0.685394, -138.258957, 13.728176, 100.772387
1759228317.703123, 5.635651, 7.835623, 0.383372, -0.022040, 0.021411, 0.025825, -56.592926, 1.047928, -138.437775, 13.728176, 100.772387
1759228317.723125, 5.640440, 8.035539, 0.417788, -0.032169, 0.014045, 0.029670, -56.162552, 0.976395, -138.319366, 13.728176, 100.772387
1759228317.743122, 5.724985, 8.222287, 0.384569, -0.057995, 0.011213, 0.014795, -56.435272, 0.924088, -138.404282, 13.728176, 100.772387
1759228317.763136, 5.837363, 8.104822, 0.327407, -0.060758, 0.041296, -0.012651, -56.329971, 0.996994, -137.824326, 13.728176, 100.772387
1759228317.783201, 6.048352, 7.778163, 0.187496, -0.034394, 0.048242, -0.006181, -56.486053, 0.823044, -138.082779, 13.728176, 100.772387
1759228317.803032, 6.063166, 7.662642, 0.144700, -0.010162, 0.004366, 0.013432, -56.373154, 0.764252, -138.185410, 13.728176, 100.772387
1759228317.823100, 5.859659, 7.578097, 0.222361, -0.004082, -0.039798, 0.025280, -56.844864, 0.773193, -138.156097, 13.728176, 100.772387
1759228317.843137, 5.814618, 8.037934, 0.446219, 0.008895, -0.006198, 0.006830, -56.330124, 0.542847, -138.132751, 13.728176, 100.772387
1759228317.863124, 5.866692, 8.121282, 0.680701, -0.015929, 0.063297, -0.043441, -56.389816, 0.938568, -138.880325, 13.728176, 100.772387
1759228317.882642, 5.768829, 7.656507, 0.485873, -0.043073, 0.067871, -0.054815, -56.297867, 1.331787, -138.523010, 13.728176, 100.772387
1759228317.902451, 5.745635, 7.398382, 0.162806, -0.029537, -0.030189, -0.027381, -56.557465, 1.080765, -138.298523, 13.728176, 100.772387
1759228317.922352, 5.933281, 7.494450, 0.377835, -0.022245, -0.041959, 0.000113, -56.471130, 1.094345, -138.459747, 13.728176, 100.772387
1759228317.943153, 5.957971, 7.701099, 0.794276, -0.084670, 0.017176, -0.003530, -56.208969, 0.960785, -138.248825, 13.728176, 100.772387
1759228317.963113, 5.766285, 7.913136, 0.626533, -0.138156, 0.067525, -0.005522, -56.649719, 0.980927, -138.572617, 13.728176, 100.772387
1759228317.983110, 5.696105, 7.993342, 0.360776, -0.115267, 0.085565, -0.022278, -56.447876, 1.336624, -138.095596, 13.728176, 100.772387
1759228318.002504, 5.834819, 7.813627, 0.195576, -0.073445, 0.094882, -0.021009, -56.540787, 1.359940, -138.076981, 13.728176, 100.772387
1759228318.022167, 5.814917, 7.674763, 0.032022, -0.050528, 0.056788, -0.014063, -56.517715, 1.346191, -138.152618, 13.728176, 100.772387
1759228318.043176, 5.771971, 7.795221, 0.215628, -0.045862, 0.069732, -0.010346, -56.792953, 1.156631, -138.843948, 13.728174, 100.772390
1759228318.063270, 5.718850, 8.006360, 0.524330, -0.052235, 0.144943, -0.027448, -55.966965, 1.074265, -138.220245, 13.728174, 100.772390
1759228318.083327, 5.608866, 8.076839, 0.501136, -0.063423, 0.181797, -0.069563, -56.218597, 1.272354, -138.065048, 13.728174, 100.772390
1759228318.103195, 5.748628, 7.843255, 0.282217, -0.063505, 0.166800, -0.078515, -55.824982, 1.277740, -138.044281, 13.728174, 100.772390
1759228318.122659, 5.988347, 7.634959, 0.383372, -0.064391, 0.108787, -0.063030, -55.956726, 1.203644, -137.894760, 13.728174, 100.772390
1759228318.143320, 6.186916, 7.527370, 0.719009, -0.063301, 0.057055, -0.057105, -55.967941, 1.008682, -137.704590, 13.728174, 100.772390
1759228318.163179, 6.206669, 7.408258, 0.739958, -0.088899, 0.015792, -0.036819, -56.209656, 0.998962, -137.637955, 13.728174, 100.772390
1759228318.183310, 6.277148, 7.646631, 0.862062, -0.160804, -0.077695, -0.025819, -55.882004, 1.214218, -137.828903, 13.728174, 100.772390
1759228318.203220, 6.225822, 7.829189, 0.995838, -0.164981, -0.096102, -0.027196, -56.153580, 1.245834, -137.950394, 13.728174, 100.772390
1759228318.223156, 5.769727, 8.187421, 0.377835, -0.045980, -0.120086, -0.037201, -56.421127, 1.330276, -137.895706, 13.728174, 100.772390
1759228318.243310, 5.240309, 8.423849, 0.108936, 0.071988, -0.200426, -0.093306, -56.343323, 1.218628, -138.129181, 13.728174, 100.772390
1759228318.263195, 4.979491, 8.335413, 0.677559, 0.131965, -0.246930, -0.142841, -56.392609, 1.459473, -138.008499, 13.728174, 100.772390
1759228318.283297, 5.185542, 8.262390, 0.998831, 0.167304, -0.212796, -0.155107, -56.729111, 1.203369, -137.795563, 13.728174, 100.772390
1759228318.303231, 4.960337, 8.218396, 0.878672, 0.257428, -0.055778, -0.131542, -57.086594, 1.223282, -138.336945, 13.728174, 100.772390
1759228318.323151, 4.124461, 8.205228, 1.050755, 0.386364, 0.097193, -0.146033, -57.160660, 0.999527, -138.165939, 13.728174, 100.772390
1759228318.342123, 4.100669, 8.132654, 1.409886, 0.440204, 0.270565, -0.109803, -56.611282, 1.086288, -138.173950, 13.728174, 100.772390
1759228318.363194, 4.887164, 8.452579, 1.567604, 0.431298, 0.553949, -0.078649, -56.971222, 1.035660, -138.751434, 13.728174, 100.772390
1759228318.383293, 5.396531, 8.786570, 1.625064, 0.350203, 0.733893, -0.085953, -56.247925, 0.797379, -139.049835, 13.728174, 100.772390
1759228318.403237, 5.319168, 8.695441, 1.225981, 0.280734, 0.683157, -0.127252, -56.100784, 0.134186, -138.952652, 13.728174, 100.772390
1759228318.423307, 5.403414, 8.355465, 0.713023, 0.245759, 0.479889, -0.137051, -55.998627, 0.102753, -138.985733, 13.728174, 100.772390
1759228318.442559, 5.450999, 8.059631, 0.510414, 0.191337, 0.494086, -0.110620, -55.636902, 0.394485, -139.326523, 13.728174, 100.772390
1759228318.463186, 5.413290, 8.030901, 0.141408, 0.125708, 0.564241, -0.076615, -55.569138, 0.172882, -139.127823, 13.728174, 100.772390
1759228318.483310, 5.414487, 8.092851, -0.247201, 0.106594, 0.377760, -0.101882, -55.310410, 0.259659, -138.792252, 13.728174, 100.772390
1759228318.503226, 5.285799, 8.133702, -0.188244, 0.025425, 0.203597, -0.140167, -55.219879, 0.131409, -139.804428, 13.728174, 100.772390
1759228318.523242, 5.710171, 7.995736, -0.229843, -0.056575, 0.118290, -0.121274, -55.270996, -0.010910, -139.286438, 13.728174, 100.772390
1759228318.542976, 6.135291, 8.236802, -0.677858, -0.109624, -0.210183, -0.075452, -55.506119, -0.124786, -139.058502, 13.728174, 100.772390
1759228318.563209, 5.801151, 8.410232, -0.916231, -0.150490, -0.456938, -0.111127, -55.616928, 0.322800, -139.308060, 13.728174, 100.772390
1759228318.583116, 5.334132, 8.154052, -0.407314, -0.232278, -0.443235, -0.139919, -55.845200, 0.265274, -139.066345, 13.728174, 100.772390
1759228318.603140, 4.883872, 7.991097, -0.374693, -0.440062, -0.352532, -0.152328, -55.904022, 0.369385, -138.868195, 13.728174, 100.772390
1759228318.623128, 4.370615, 8.125322, 0.011073, -0.543714, -0.373660, -0.146642, -55.903854, 0.533539, -138.525192, 13.728174, 100.772390
1759228318.643119, 4.091990, 8.774599, 0.543334, -0.636041, -0.269640, -0.149609, -56.083817, 1.069305, -138.707428, 13.728174, 100.772390
1759228318.663125, 3.903447, 9.268553, 0.586579, -0.633194, -0.166274, -0.179869, -55.984924, 1.162415, -138.157898, 13.728174, 100.772390
1759228318.683112, 3.679439, 9.643096, 0.723348, -0.500552, -0.018722, -0.244127, -56.391937, 1.473480, -138.499115, 13.728174, 100.772390
1759228318.703188, 4.261080, 8.402750, 1.126173, -0.605497, 0.067217, -0.225722, -56.160507, 1.949356, -137.080414, 13.728174, 100.772390
1759228318.723145, 5.186290, 7.676409, 0.309750, -0.640468, 0.213362, -0.086508, -56.429871, 2.137512, -136.633759, 13.728174, 100.772390
1759228318.743173, 5.979818, 6.941240, -0.843657, -0.393051, 0.328958, 0.100563, -56.152344, 2.058029, -136.634872, 13.728174, 100.772390
1759228318.763234, 5.209035, 7.776367, -0.575805, -0.350064, 0.027950, 0.219242, -55.471497, 2.744415, -136.888092, 13.728174, 100.772390
1759228318.783177, 4.313005, 8.557924, 0.166696, -0.629992, -0.314520, 0.248333, -55.598343, 2.604721, -136.574402, 13.728174, 100.772390
