SamplingTime, AccelerationX, AccelerationY, AccelerationZ, GyroX, GyroY, GyroZ, MagneticFieldX, MagneticFieldY, MagneticFieldZ, Latitude, Longitude
1759228208.742952, -4.380342, 10.112958, -2.240973, -0.093638, -1.253037, 0.954542, 64.123108, 15.777496, -278.520630, 13.727357, 100.772293
1759228208.762980, -4.894796, 9.428366, -2.563143, 0.325674, -0.954657, 0.710724, 63.875717, 15.522034, -278.923279, 13.727357, 100.772293
1759228208.782349, -4.222773, 8.584111, -1.601122, 0.673808, -0.239076, 0.463180, 64.127838, 14.980164, -279.921722, 13.727357, 100.772293
1759228208.803003, -3.353828, 8.277054, -0.939724, 0.777177, -0.128834, 0.216512, 64.025711, 14.821259, -280.282043, 13.727357, 100.772293
1759228208.823083, -1.999458, 8.104672, -0.377985, 0.892206, -0.303396, 0.121121, 63.644669, 14.251053, -281.109894, 13.727357, 100.772293
1759228208.843012, -0.815375, 7.905953, 0.626533, 0.863353, -0.235641, 0.114595, 63.916962, 13.375900, -280.921082, 13.727357, 100.772293
1759228208.863085, 0.284162, 8.714744, 0.914136, 0.501779, 0.504560, 0.107514, 64.086899, 13.231522, -280.839111, 13.727357, 100.772293
1759228208.882997, -0.450110, 8.808118, -0.576853, 0.385525, 0.401200, -0.094501, 64.111343, 13.044373, -280.647491, 13.727357, 100.772293
1759228208.902999, -0.270844, 8.637681, -1.143381, 0.515133, -0.015625, -0.061161, 64.214066, 12.845825, -281.544098, 13.727357, 100.772293
1759228208.922783, 0.020800, 9.111284, -1.272817, 0.667256, 0.235450, 0.157353, 64.559479, 12.470581, -280.570282, 13.727357, 100.772293
1759228208.942831, 0.550816, 10.427945, -0.980874, 0.695816, 0.795276, 0.367726, 65.015289, 12.347931, -280.567078, 13.727357, 100.772293
1759228208.962982, 1.474379, 11.658565, -0.692672, 0.639633, 0.999466, 0.522752, 65.329529, 11.229477, -279.719849, 13.727357, 100.772293
1759228208.983034, 2.031181, 11.958888, -0.277578, 0.483482, 0.658145, 0.831219, 66.207062, 10.779175, -279.963196, 13.727357, 100.772293
1759228209.002047, -0.375740, 12.086379, -0.672471, 0.317360, 0.014821, 1.100311, 66.370438, 9.977280, -279.744293, 13.727357, 100.772293
1759228209.023075, -2.791041, 12.156260, -0.559495, 0.344393, -0.235741, 1.247608, 66.597198, 9.306915, -279.950623, 13.727357, 100.772293
1759228209.043011, -4.559757, 12.386103, -0.219668, 0.412421, -0.357361, 1.185527, 66.128189, 8.352203, -280.418823, 13.727337, 100.772296
1759228209.063189, -5.571158, 12.251429, -0.172981, 0.465574, -0.452715, 0.918657, 66.538559, 7.552307, -281.307800, 13.727337, 100.772296
1759228209.083123, -6.352565, 11.802067, -0.013767, 0.318110, -0.464291, 0.480805, 66.420731, 7.039352, -281.380890, 13.727337, 100.772296
1759228209.102295, -5.807884, 12.649615, 0.725892, 0.005220, -0.521698, 0.118437, 66.165085, 7.140167, -281.681580, 13.727337, 100.772296
1759228209.123021, -4.819229, 13.622259, 2.038214, -0.220644, -0.830207, -0.353815, 65.607407, 7.519669, -282.380188, 13.727337, 100.772296
1759228209.143009, -3.864840, 13.003657, 3.355623, -0.576167, -1.316666, -0.834968, 64.599319, 8.444153, -282.980896, 13.727337, 100.772296
1759228209.162986, -2.648885, 11.509077, 3.704728, -1.186741, -1.736248, -1.209099, 63.553345, 10.150726, -283.830963, 13.727337, 100.772296
1759228209.182258, -1.198148, 11.590031, 2.384774, -1.752092, -1.786021, -1.468653, 62.872147, 12.025726, -284.415039, 13.727337, 100.772296
1759228209.202381, 1.420959, 12.324901, 0.506972, -2.016054, -1.036816, -1.489059, 61.495743, 13.707748, -284.147888, 13.727337, 100.772296
1759228209.223132, 1.258602, 12.442666, 0.538246, -2.000924, 0.005448, -1.533981, 61.502579, 15.971329, -283.869202, 13.727337, 100.772296
1759228209.243007, 1.252467, 13.517064, -0.101604, -1.926177, 0.893126, -1.819150, 61.368652, 17.728790, -282.565857, 13.727337, 100.772296
1759228209.263095, 0.301071, 13.061268, -0.911293, -1.445454, 1.686150, -2.087953, 61.024323, 19.787384, -280.937256, 13.727337, 100.772296
1759228209.283022, 1.615488, 11.925070, -1.342100, -0.964875, 2.539478, -1.968694, 60.917648, 21.313705, -278.093689, 13.727337, 100.772296
1759228209.302622, 1.206378, 10.940604, -1.322348, -0.503786, 2.487544, -1.852987, 61.194366, 22.553818, -277.053009, 13.727337, 100.772296
1759228209.323046, -0.393098, 10.205733, 0.109684, -0.477988, 1.484354, -1.963183, 60.593277, 23.856018, -275.817139, 13.727337, 100.772296
1759228209.343048, -2.371008, 9.841964, 1.148469, -0.891440, 1.282727, -2.143835, 59.567474, 25.472122, -273.893860, 13.727337, 100.772296
1759228209.362996, -4.056077, 10.245687, 1.275361, -1.163271, 1.244675, -2.363462, 58.455322, 27.212524, -273.173676, 13.727337, 100.772296
1759228209.383211, -4.346075, 9.159467, 0.518345, -1.038080, 0.994935, -2.362302, 57.443390, 28.478378, -272.256042, 13.727337, 100.772296
1759228209.402760, -4.911106, 8.262390, 3.052308, -1.255458, -0.924862, -2.105890, 55.420120, 29.574326, -271.119141, 13.727337, 100.772296
1759228209.423094, -4.406079, 8.097639, 0.717063, -1.433286, -2.091894, -1.842655, 54.056564, 30.908310, -271.247437, 13.727337, 100.772296
1759228209.443007, -2.843713, 7.946056, -0.389207, -1.397460, -1.867667, -1.811313, 52.281754, 31.747208, -270.894867, 13.727337, 100.772296
1759228209.463064, -1.156100, 7.738509, -0.388609, -1.262536, -1.681140, -1.741723, 50.636032, 32.563568, -270.211243, 13.727337, 100.772296
1759228209.482998, -0.089483, 6.832902, 0.065392, -1.080569, -1.339373, -1.558095, 49.309189, 33.490372, -269.697723, 13.727337, 100.772296
1759228209.502947, 0.079308, 5.475390, 0.445322, -1.010401, -1.337715, -1.285860, 47.911758, 34.043701, -269.919312, 13.727337, 100.772296
1759228209.522995, 0.276530, 4.497508, 0.021398, -0.600647, -1.133656, -0.737049, 47.349350, 34.327042, -269.826324, 13.727337, 100.772296
1759228209.543026, 0.561141, 3.527258, 0.271892, -0.261537, -1.116147, -0.183344, 46.408936, 34.448212, -268.985962, 13.727337, 100.772296
1759228209.563035, 0.890044, 2.786402, 0.429909, 0.047488, -0.935444, 0.372575, 46.614243, 34.731598, -269.187714, 13.727337, 100.772296
1759228209.583026, 1.162385, 1.877204, 1.047164, 0.446570, -0.285213, 0.996297, 46.999252, 34.246933, -269.923553, 13.727337, 100.772296
1759228209.603003, 0.869394, 0.979827, 1.243339, 0.924245, 0.590114, 1.587920, 48.239731, 33.720306, -270.086212, 13.727337, 100.772296
1759228209.623093, -0.025588, 1.041178, 4.163367, 1.001583, 1.801172, 1.563327, 49.720230, 32.932144, -271.091736, 13.727337, 100.772296
1759228209.643009, -9.095871, 4.013430, 12.949040, 1.642648, 3.433903, 0.983588, 50.932678, 32.654495, -270.287964, 13.727337, 100.772296
1759228209.663000, -4.133888, 16.584036, -9.991004, 1.435410, 2.734754, 1.301182, 52.727646, 31.358429, -270.664062, 13.727337, 100.772296
1759228209.683006, -2.900126, 22.243630, 8.769961, 1.121326, 0.651352, 1.375686, 54.005035, 30.921036, -270.292694, 13.727337, 100.772296
1759228209.702991, -9.166500, 22.202779, -0.582689, 0.298841, 0.776206, 0.911865, 54.877640, 30.242599, -270.959717, 13.727337, 100.772296
1759228209.722850, -5.635801, 8.691102, 1.821539, 0.315347, 0.683352, 0.764372, 55.187607, 29.970581, -270.162018, 13.727337, 100.772296
1759228209.742665, -2.766350, 5.394436, 2.302025, 0.718761, 0.541035, 0.973447, 55.633804, 29.372284, -269.880005, 13.727337, 100.772296
1759228209.762994, -1.255160, 6.018724, 1.035343, 1.225651, 1.039521, 1.317400, 56.862274, 28.694153, -271.145020, 13.727337, 100.772296
1759228209.783008, -1.124527, 8.476671, -0.905158, 1.559989, 1.706754, 1.464325, 58.008301, 27.633591, -270.920288, 13.727337, 100.772296
1759228209.802994, -1.970428, 11.354801, -0.243311, 1.337172, 2.045202, 1.589577, 59.678391, 26.522629, -271.106445, 13.727337, 100.772296
1759228209.822359, -2.210596, 13.050943, 0.956484, 0.704971, 2.111796, 1.656786, 60.706360, 25.235458, -269.858032, 13.727337, 100.772296
1759228209.842998, -2.446575, 12.133814, 0.886603, 0.255803, 1.551716, 1.323455, 61.971115, 24.457932, -269.241516, 13.727337, 100.772296
1759228209.862996, -2.649633, 10.309283, -0.029928, 0.179355, 0.576753, 1.174492, 62.681534, 23.651169, -269.016968, 13.727337, 100.772296
1759228209.883044, -1.817947, 9.777920, -0.340874, 0.067547, 0.193035, 1.339338, 63.366806, 22.897980, -268.830322, 13.727337, 100.772296
1759228209.903095, -1.175553, 9.356989, -0.468515, -0.220602, 0.281461, 1.693346, 64.419449, 21.982773, -268.756866, 13.727337, 100.772296
1759228209.922990, -0.782305, 8.962993, -0.491111, -0.539598, 0.349321, 1.935709, 65.164703, 20.773849, -267.927368, 13.727337, 100.772296
1759228209.942389, -1.455076, 8.794052, -0.831835, -0.632809, -0.085444, 1.934375, 66.152069, 19.437592, -267.745239, 13.727337, 100.772296
1759228209.963002, -3.104382, 10.272322, -1.293318, -0.359403, -0.668807, 1.744200, 66.617004, 18.168381, -268.188354, 13.727337, 100.772296
1759228209.983080, -4.448576, 10.998514, -1.881992, 0.241625, -1.234310, 1.520133, 66.952347, 17.413925, -268.869324, 13.727337, 100.772296
1759228210.003025, -5.576245, 10.096947, -1.616984, 0.605752, -1.340246, 1.141728, 67.354233, 16.587372, -270.119812, 13.727337, 100.772296
1759228210.022755, -4.619762, 8.805126, -0.113874, 0.544168, -0.699581, 0.974277, 67.396896, 15.282349, -270.884430, 13.727337, 100.772296
1759228210.043002, -4.182072, 8.018930, 0.515651, 0.361122, -0.362364, 0.647017, 67.625671, 14.722748, -270.713562, 13.727321, 100.772298
1759228210.063008, -3.736451, 6.767211, -0.015712, 0.432343, -0.149927, 0.229134, 67.961441, 14.708832, -270.933136, 13.727321, 100.772298
1759228210.082997, -3.243545, 7.405864, -0.786346, 0.682669, 0.142478, -0.007368, 67.555603, 14.604370, -271.964172, 13.727321, 100.772298
1759228210.103011, -1.280299, 7.867197, -1.578377, 0.850492, 0.642606, 0.309345, 67.792679, 14.008179, -270.906494, 13.727321, 100.772298
1759228210.122994, -1.270872, 8.329428, -1.002422, 1.040094, 0.749225, 0.272311, 67.913574, 13.548737, -271.055603, 13.727321, 100.772298
1759228210.143014, 0.107739, 9.305214, 0.360627, 1.023595, 0.786614, 0.226667, 68.213455, 13.001160, -270.918762, 13.727321, 100.772298
1759228210.162997, 1.193360, 9.289203, 2.365621, 0.480371, 0.546954, 0.414618, 68.314957, 13.064728, -270.068298, 13.727321, 100.772298
1759228210.183010, 0.746841, 9.584887, 0.280870, 0.217783, 0.455309, 0.548930, 68.765808, 12.703583, -270.602325, 13.727321, 100.772298
1759228210.203055, 0.088286, 9.858275, -2.213290, 0.461443, 0.351994, 0.674814, 69.039276, 11.853302, -270.070679, 13.727321, 100.772298
1759228210.223014, -1.115698, 10.684574, -1.534534, 0.499304, 0.100595, 0.904571, 69.316010, 11.101471, -270.357147, 13.727321, 100.772298
1759228210.243007, -3.044826, 11.657966, -0.970998, 0.368836, -0.263184, 0.965695, 69.485489, 10.358261, -270.476624, 13.727321, 100.772298
1759228210.262998, -3.611204, 11.545289, -1.392528, 0.359259, -0.615523, 1.008752, 69.625824, 9.595459, -270.422729, 13.727321, 100.772298
1759228210.283000, -4.063259, 11.250503, -1.501015, 0.442845, -1.066749, 0.845897, 69.611038, 8.723068, -271.317047, 13.727321, 100.772298
1759228210.303029, -4.532822, 12.303952, -1.336862, 0.384060, -1.330957, 0.443256, 69.525513, 8.569031, -272.090515, 13.727321, 100.772298
1759228210.322995, -3.383755, 13.115586, -0.940472, 0.015043, -1.277704, 0.103174, 68.840210, 8.114792, -273.176392, 13.727321, 100.772298
1759228210.343211, -1.505953, 15.351322, 0.906505, -0.518038, -1.552596, -0.211112, 68.056946, 8.421356, -274.467957, 13.727321, 100.772298
1759228210.362993, -0.155623, 16.485724, 2.349610, -0.785977, -1.922237, -0.565277, 67.514557, 9.273651, -275.269226, 13.727321, 100.772298
1759228210.383140, -0.083049, 14.776115, 3.811419, -1.180905, -1.358575, -0.801486, 66.416428, 9.736603, -275.869324, 13.727321, 100.772298
1759228210.403009, -0.633416, 11.724106, 4.697873, -2.000527, -0.507136, -0.912024, 66.491974, 11.297562, -275.998077, 13.727321, 100.772298
1759228210.423073, -0.912490, 11.285818, 3.103783, -2.451388, -0.117129, -1.079117, 66.483505, 12.548126, -275.423279, 13.727321, 100.772298
1759228210.443000, -1.263540, 10.914866, -0.593463, -2.560418, 0.443394, -1.273319, 65.464050, 13.920425, -273.632385, 13.727321, 100.772298
1759228210.463007, -1.331924, 10.599280, -2.423531, -2.123552, 0.842868, -1.457803, 64.999908, 15.689026, -272.903748, 13.727321, 100.772298
1759228210.482997, -1.891270, 11.214740, -3.515736, -1.297663, 0.970368, -1.426287, 64.585632, 16.975006, -271.449768, 13.727321, 100.772298
1759228210.503101, -1.974917, 12.679542, -3.276615, -0.580764, 1.703493, -2.082170, 64.585831, 18.454956, -270.133209, 13.727321, 100.772298
1759228210.523068, 0.401927, 11.684303, -2.354697, -0.374387, 2.441263, -2.110815, 64.329834, 19.464874, -268.300842, 13.727321, 100.772298
1759228210.543201, -0.349254, 11.115380, -0.549769, -0.102976, 2.263019, -1.984126, 63.907852, 20.603851, -267.335754, 13.727321, 100.772298
1759228210.562997, -1.595735, 10.460566, 0.591817, 0.007453, 0.974196, -2.128685, 62.772400, 21.983154, -266.535278, 13.727321, 100.772298
1759228210.582997, -3.326294, 9.669283, 0.100706, -0.175097, -0.416432, -2.089994, 61.776733, 22.914932, -266.480774, 13.727321, 100.772298
1759228210.603011, -6.553828, 10.401011, 0.498742, -0.851972, -0.837998, -2.320095, 60.745972, 24.330048, -266.162598, 13.727321, 100.772298
1759228210.622580, -4.890456, 10.558729, -0.541090, -0.871370, -0.545510, -2.161028, 59.357437, 25.479065, -265.884583, 13.727321, 100.772298
1759228210.642384, -2.266561, 9.762058, 0.464625, -0.405471, -1.116065, -1.922468, 58.206619, 26.421722, -266.493958, 13.727321, 100.772298
1759228210.662153, -0.963666, 8.612692, 1.195455, -0.678054, -2.524245, -1.990287, 56.739594, 27.644211, -267.530121, 13.727321, 100.772298
1759228210.682999, -0.407164, 7.922713, -1.429937, -1.009853, -3.137886, -2.021002, 54.770569, 28.279495, -268.111694, 13.727321, 100.772298
1759228210.703013, -0.508469, 7.514800, -0.795922, -0.950961, -2.170243, -1.971129, 53.261047, 29.117081, -268.248230, 13.727321, 100.772298
1759228210.722995, 0.600645, 7.027730, 0.457143, -0.678823, -1.602537, -1.918458, 51.803635, 30.167297, -267.880066, 13.727321, 100.772298
1759228210.743001, 1.354669, 6.128408, 0.651971, -0.546881, -1.616660, -1.804978, 50.303802, 30.899124, -267.978271, 13.727321, 100.772298
1759228210.763066, 0.795324, 5.219210, 0.620398, -0.502015, -1.661572, -1.546539, 48.895081, 31.540161, -268.869598, 13.727321, 100.772298
1759228210.783002, -0.188244, 4.415955, 0.341174, -0.307640, -1.360496, -1.161043, 47.450424, 31.855057, -268.628387, 13.727321, 100.772298
1759228210.803077, 0.075118, 3.794061, -0.232088, 0.073114, -1.208807, -0.641059, 47.387726, 32.187607, -269.187988, 13.727321, 100.772298
1759228210.822204, 1.070657, 2.860921, -0.457891, 0.582432, -1.008108, 0.001609, 46.597443, 32.087143, -269.124329, 13.727321, 100.772298
1759228210.843004, 1.742680, 2.085350, -0.158017, 0.944873, -0.467634, 0.791554, 47.290878, 32.118149, -270.251099, 13.727321, 100.772298
1759228210.863013, 1.306785, 1.685668, 0.196624, 1.300974, 0.537347, 1.534369, 48.526703, 31.268143, -270.497681, 13.727321, 100.772298
1759228210.883000, -1.183185, 2.010680, 5.969194, 1.493660, 1.616157, 1.685757, 50.113495, 30.268509, -271.102203, 13.727321, 100.772298
1759228210.903014, -12.285247, 7.982568, 5.804293, 1.971406, 3.819944, 0.904216, 51.567139, 29.428879, -271.505981, 13.727321, 100.772298
1759228210.922368, -6.600515, 21.322610, -7.816171, 2.206009, 1.946948, 1.142050, 52.592636, 28.739883, -271.413696, 13.727321, 100.772298
1759228210.943076, -5.598242, 29.784617, 7.586178, 1.391990, 1.995292, 1.040468, 53.406342, 27.391541, -272.075226, 13.727321, 100.772298
1759228210.963080, -6.936750, 13.898790, 3.582923, 0.173488, -1.150671, 0.819420, 53.834396, 27.177475, -272.832184, 13.727321, 100.772298
1759228210.983138, -2.133383, 6.354062, 0.381875, 0.211730, 0.015569, 0.770704, 54.227081, 26.789200, -273.012085, 13.727321, 100.772298
1759228211.003029, 0.028431, 5.931186, 2.074127, 0.972847, 0.518941, 1.064436, 55.031555, 26.242172, -273.274963, 13.727321, 100.772298
1759228211.022569, 0.994192, 8.136245, 1.835904, 1.409040, 0.918656, 1.458786, 55.916367, 24.898132, -273.238342, 13.727321, 100.772298
1759228211.043007, 1.239448, 10.062231, 0.897077, 1.369886, 1.152417, 1.974610, 57.521637, 23.292618, -273.375183, 13.727306, 100.772299
1759228211.063019, 0.088286, 12.304551, 0.501136, 1.134634, 1.653969, 2.199561, 59.178741, 22.386490, -273.687927, 13.727306, 100.772299
1759228211.082997, -0.867150, 13.196540, 0.017508, 0.653481, 2.010141, 1.925731, 60.507858, 21.158478, -272.651215, 13.727306, 100.772299
1759228211.103024, -1.165527, 12.022334, -0.143951, 0.281188, 1.562620, 1.567330, 61.655090, 20.260239, -271.783386, 13.727306, 100.772299
1759228211.122817, -1.431882, 10.875511, -0.160112, 0.058358, 0.708919, 1.557260, 63.156296, 19.159821, -271.211792, 13.727306, 100.772299
1759228211.142877, -1.882740, 9.685593, -0.374244, -0.142883, -0.197257, 1.581789, 63.476166, 18.115784, -271.311188, 13.727306, 100.772299
1759228211.163000, -1.583315, 7.970148, -0.223409, -0.315006, -0.363043, 1.723154, 63.790222, 17.368484, -271.451538, 13.727306, 100.772299
1759228211.183009, -1.908628, 6.832154, -0.228497, -0.508637, -0.207243, 1.791823, 64.626251, 16.309128, -271.413025, 13.727306, 100.772299
1759228211.202553, -3.192967, 7.520636, -0.474351, -0.724592, -0.516867, 1.491401, 64.794250, 15.766663, -271.885315, 13.727306, 100.772299
1759228211.222953, -4.394856, 8.868721, -1.309030, -0.650189, -1.564024, 1.119732, 64.820541, 15.303177, -272.491089, 13.727306, 100.772299
1759228211.243038, -5.605125, 9.822362, -1.645116, 0.044144, -2.271643, 0.765869, 64.001678, 14.815552, -273.962677, 13.727306, 100.772299
1759228211.263075, -5.956774, 9.276634, -1.837400, 0.690940, -1.569481, 0.521827, 64.238144, 13.968414, -274.916138, 13.727306, 100.772299
1759228211.283010, -5.702240, 8.475175, -1.548300, 0.733128, -0.641196, 0.182243, 63.828735, 13.878128, -276.459106, 13.727306, 100.772299
1759228211.303017, -4.386028, 7.063643, -2.107346, 0.601437, 2.254402, -0.377120, 63.946808, 13.725937, -275.066406, 13.727306, 100.772299
1759228211.323072, -2.304419, 7.792528, -2.728642, 1.269635, 3.233238, -0.420686, 64.966049, 13.521225, -273.794373, 13.727306, 100.772299
1759228211.343010, 0.280720, 8.865729, -0.705990, 1.907442, 2.846228, -0.115762, 66.004944, 13.544113, -271.982910, 13.727306, 100.772299
1759228211.363000, 2.282871, 9.632621, 3.703531, 1.000032, 1.538264, 0.121988, 66.380600, 12.987579, -270.614136, 13.727306, 100.772299
1759228211.383023, 2.951003, 9.568128, 5.269787, -0.380380, 0.127713, 0.321822, 66.660812, 12.935303, -271.024292, 13.727306, 100.772299
1759228211.403020, 0.443077, 9.963171, -0.368557, -0.288099, 0.316695, 0.547005, 66.751785, 12.874603, -270.423096, 13.727306, 100.772299
1759228211.423005, -3.029563, 10.266935, -3.366547, 0.008232, 0.552583, 0.670581, 66.995346, 11.808289, -269.987061, 13.727306, 100.772299
1759228211.442047, -4.967071, 10.033052, -3.621230, 0.060438, 0.383685, 0.669880, 67.184052, 11.837509, -270.132629, 13.727306, 100.772299
1759228211.463031, -4.868011, 10.431088, -2.647837, 0.253289, -0.443681, 0.895933, 66.980804, 10.765564, -270.200897, 13.727306, 100.772299
1759228211.483081, -4.175188, 10.771962, -1.289577, 0.348554, -1.098293, 0.812904, 67.301636, 10.461884, -270.837341, 13.727306, 100.772299
1759228211.503020, -2.449717, 11.777228, -0.898574, 0.464934, -1.180485, 0.592850, 66.733063, 9.837387, -271.231506, 13.727306, 100.772299
1759228211.523002, -1.127669, 12.925098, -1.762731, 0.551984, -0.936431, 0.286103, 66.588776, 9.365204, -272.286926, 13.727306, 100.772299
1759228211.542423, -0.127491, 12.481273, -1.734001, 0.501769, -0.795518, 0.056066, 66.528976, 9.145889, -273.348206, 13.727306, 100.772299
1759228211.563068, 0.281319, 12.977022, -0.077812, 0.235915, -0.965153, -0.056526, 66.747910, 9.040558, -274.070801, 13.727306, 100.772299
1759228211.583211, -0.531213, 14.462175, 0.949151, -0.086966, -1.386834, -0.218372, 65.519424, 9.167419, -274.369965, 13.727306, 100.772299
1759228211.603059, -1.279701, 15.414319, 1.866280, -0.387796, -1.007769, -0.406829, 65.407227, 9.387146, -275.264130, 13.727306, 100.772299
1759228211.623027, -1.367239, 14.582334, 4.287566, -0.996926, -0.377297, -0.620711, 65.170929, 9.907944, -275.651489, 13.727306, 100.772299
1759228211.642435, -2.008436, 12.785785, 4.983680, -1.536267, -0.128373, -0.879753, 64.396210, 10.929749, -275.472809, 13.727306, 100.772299
1759228211.663003, -2.582296, 11.516110, 3.055600, -2.032403, -0.332017, -1.229085, 63.916275, 12.428909, -275.390015, 13.727306, 100.772299
1759228211.682623, -2.403479, 10.757597, 0.791882, -2.399712, -0.870778, -1.428818, 63.612869, 13.849609, -274.925964, 13.727306, 100.772299
1759228211.702057, -1.872864, 11.576115, -0.277877, -2.383729, -0.485227, -1.712332, 62.811478, 15.648376, -274.327026, 13.727306, 100.772299
1759228211.723001, -1.700781, 13.151948, -0.444124, -1.994448, 0.865755, -1.896581, 62.044922, 17.110641, -273.072845, 13.727306, 100.772299
1759228211.742599, -0.629226, 12.349442, -1.179294, -1.371790, 1.741132, -1.860819, 61.216537, 19.363785, -271.541992, 13.727306, 100.772299
1759228211.763004, 0.500837, 13.315353, -1.632397, -0.799904, 2.093788, -2.077077, 60.482117, 20.547043, -269.757385, 13.727306, 100.772299
1759228211.782310, 2.958186, 11.599757, -1.249025, -0.473193, 1.402535, -1.672570, 59.908310, 21.227829, -268.841217, 13.727306, 100.772299
1759228211.803057, 1.495179, 10.508001, -1.311723, -0.238175, 0.686723, -1.908502, 59.184113, 22.749298, -267.533844, 13.727306, 100.772299
1759228211.822940, -0.016011, 9.498995, -0.792032, -0.324370, 0.736526, -2.119621, 57.970444, 23.539185, -266.967682, 13.727306, 100.772299
1759228211.843052, -3.180847, 9.110985, 0.049081, -0.536232, 1.276432, -2.559912, 56.337204, 24.919189, -266.109802, 13.727306, 100.772299
1759228211.863022, -4.496610, 9.456049, 2.300379, -0.849399, 0.198290, -2.638767, 55.214874, 26.050751, -265.052948, 13.727306, 100.772299
1759228211.882672, -4.617517, 9.286510, 1.742530, -0.954195, -1.664989, -2.479318, 53.537170, 27.227783, -264.513916, 13.727306, 100.772299
1759228211.903026, -4.871153, 9.167847, 1.162983, -1.130999, -2.336932, -2.262028, 51.246796, 28.194412, -264.792786, 13.727306, 100.772299
1759228211.922340, -2.407519, 8.366837, 0.487519, -1.183715, -2.234060, -1.866852, 50.064987, 29.017029, -264.375244, 13.727306, 100.772299
1759228211.942959, -0.268001, 7.005434, -1.666963, -1.047791, -2.133377, -1.583580, 48.284409, 29.533691, -264.064789, 13.727306, 100.772299
1759228211.963006, 0.596605, 6.378153, -0.230741, -1.169408, -2.272724, -1.353308, 47.291077, 29.721146, -263.309998, 13.727306, 100.772299
1759228211.983210, 0.687734, 5.479729, -0.283863, -1.031861, -1.925256, -1.102858, 46.631592, 30.061523, -262.372131, 13.727306, 100.772299
1759228212.003031, 1.368735, 3.922301, -0.070330, -0.760668, -1.775314, -0.749055, 45.937485, 30.162460, -262.188995, 13.727306, 100.772299
1759228212.023091, 1.792210, 2.681805, 0.159214, -0.350775, -1.470220, -0.251537, 45.331787, 29.975922, -261.972015, 13.727306, 100.772299
1759228212.043102, 1.741333, 1.905785, 0.305410, 0.199557, -0.947373, 0.276936, 45.497513, 30.172195, -261.907776, 13.727293, 100.772301
1759228212.063076, 1.829918, 1.316512, 0.177321, 0.770618, -0.412863, 0.821307, 45.793182, 30.161209, -263.122803, 13.727293, 100.772301
1759228212.083027, 1.946037, 1.008109, 0.518943, 1.333536, 0.481402, 1.470580, 46.724396, 29.840179, -263.645935, 13.727293, 100.772301
1759228212.103119, 1.293168, 0.768838, 0.789488, 2.014003, 1.672416, 2.008593, 48.075745, 29.186966, -264.179077, 13.727293, 100.772301
1759228212.123062, -4.694431, 1.654543, 7.291990, 1.917910, 4.496298, 1.133614, 49.901306, 27.948990, -264.186035, 13.727293, 100.772301
1759228212.143071, -21.400272, 11.270106, -0.590171, 2.753512, 2.996003, 0.397110, 50.367142, 28.037766, -265.498566, 13.727293, 100.772301
1759228212.163085, -4.641758, 32.047137, 7.751976, 1.691172, 2.018590, 1.171093, 51.361816, 27.424011, -264.930420, 13.727293, 100.772301
1759228212.183019, -10.047267, 17.988236, 3.180248, 0.231872, -1.377946, 0.623724, 51.399734, 27.305038, -265.187561, 13.727293, 100.772301
1759228212.203092, -2.334197, 5.204545, 2.608782, -0.443749, -1.297157, 0.516947, 51.325272, 26.710938, -265.650299, 13.727293, 100.772301
1759228212.223218, -0.320224, 1.333570, 2.790741, 0.391914, -0.381047, 0.681058, 51.976990, 26.419250, -266.115723, 13.727293, 100.772301
1759228212.243015, 2.087594, 4.272453, 1.620575, 0.933562, 0.034727, 1.149267, 52.742294, 26.192169, -266.928192, 13.727293, 100.772301
1759228212.263056, 1.612944, 8.790611, 0.420781, 1.321861, 0.860482, 1.526803, 53.622086, 25.173584, -267.127686, 13.727293, 100.772301
1759228212.283085, 1.210419, 14.239814, -0.217573, 1.413442, 1.897723, 1.735176, 54.504288, 24.101425, -266.041565, 13.727293, 100.772301
1759228212.303073, -0.564283, 15.697733, 0.839317, 1.007560, 2.437748, 1.625340, 55.656067, 23.401794, -265.805298, 13.727293, 100.772301
1759228212.323027, -1.188422, 12.456882, 1.909226, 0.377606, 2.175306, 1.394875, 56.610687, 22.411972, -265.202026, 13.727293, 100.772301
1759228212.343016, -1.534983, 10.333674, 1.019182, 0.030623, 1.165629, 1.261810, 57.435913, 21.967499, -264.445312, 13.727293, 100.772301
1759228212.363036, -1.319055, 9.287108, -0.453252, 0.024151, 0.728489, 1.171555, 57.667999, 21.282166, -264.732086, 13.727293, 100.772301
1759228212.383226, -1.482011, 8.916755, -0.963367, -0.187115, 0.126622, 1.260927, 58.642349, 20.580276, -264.173462, 13.727293, 100.772301
1759228212.403007, -1.399411, 9.260323, -1.125125, -0.441066, -0.307791, 1.537446, 59.371719, 20.194061, -263.959045, 13.727293, 100.772301
1759228212.423220, -2.321627, 9.573964, -1.329530, -0.673800, -0.340474, 1.742204, 59.880371, 19.177109, -263.855103, 13.727293, 100.772301
1759228212.443017, -3.601777, 10.401609, -1.495777, -0.737650, -0.437892, 1.722918, 60.059387, 18.342224, -263.964661, 13.727293, 100.772301
1759228212.463052, -5.283853, 10.724527, -1.805827, -0.385561, -0.888485, 1.572655, 61.033966, 17.415848, -264.644196, 13.727293, 100.772301
1759228212.483023, -6.191405, 10.090513, -1.435174, 0.119561, -1.081649, 1.146364, 60.944443, 17.018463, -265.049316, 13.727293, 100.772301
1759228212.503049, -6.516718, 8.747964, -1.172710, 0.425626, -0.999806, 0.842241, 61.376663, 16.484253, -265.553162, 13.727293, 100.772301
1759228212.523009, -5.876718, 7.703194, -0.972196, 0.678420, -0.737598, 0.514544, 61.246170, 15.840103, -265.282593, 13.727293, 100.772301
1759228212.542062, -4.258537, 7.287651, -0.767641, 0.846798, -0.269525, 0.050096, 61.179993, 15.891312, -266.333069, 13.727293, 100.772301
1759228212.563011, -2.111836, 8.063821, -1.356465, 0.965565, 0.874297, -0.113809, 61.396667, 15.486069, -266.410889, 13.727293, 100.772301
1759228212.583023, -1.316512, 8.590545, -1.883638, 1.328344, 1.528466, -0.095929, 62.005859, 15.418091, -265.498077, 13.727293, 100.772301
1759228212.602145, 0.626832, 9.336638, 0.874333, 1.689049, 1.750183, -0.226176, 62.355164, 15.477386, -265.588989, 13.727293, 100.772301
1759228212.623050, 2.821567, 9.240421, 4.768053, 1.110419, 1.463766, -0.141049, 62.156113, 15.238815, -265.261932, 13.727293, 100.772301
1759228212.642176, 3.570503, 8.618827, 3.398719, 0.106721, -0.013438, 0.156180, 62.347778, 14.772369, -265.353638, 13.727293, 100.772301
1759228212.663015, 1.484555, 8.643816, -1.837849, -0.057864, -0.427065, 0.573282, 62.689529, 14.725525, -264.509399, 13.727293, 100.772301
1759228212.683089, -1.635389, 9.152135, -3.689465, 0.236817, 0.549015, 0.717211, 62.922104, 13.703690, -264.650635, 13.727293, 100.772301
1759228212.703037, -2.523339, 9.648633, -1.335815, 0.297759, 0.599231, 0.761658, 62.939804, 13.617798, -263.918213, 13.727293, 100.772301
1759228212.723047, -2.772186, 10.026168, -0.817171, 0.166024, 0.182569, 0.830797, 63.195801, 12.826736, -264.659424, 13.727293, 100.772301
1759228212.742436, -2.286762, 10.336816, -0.915782, 0.179791, -0.212490, 0.862572, 63.648331, 12.682220, -264.143463, 13.727293, 100.772301
1759228212.763021, -1.814356, 11.176133, -0.795324, 0.287868, -0.555175, 0.926385, 63.665802, 11.842361, -264.834167, 13.727293, 100.772301
1759228212.783244, -2.004695, 12.130821, -1.567005, 0.459548, -0.736427, 0.918043, 64.141052, 11.428329, -265.900452, 13.727293, 100.772301
1759228212.803057, -3.024775, 12.364256, -3.123984, 0.607751, -0.766585, 0.702006, 63.883469, 10.617691, -265.710754, 13.727293, 100.772301
1759228212.823245, -1.344943, 12.198906, -2.229600, 0.526740, -0.555858, 0.579387, 64.178024, 10.266159, -265.805603, 13.727293, 100.772301
1759228212.842605, -0.700005, 13.217639, -0.259921, 0.349440, -0.686543, 0.386223, 63.899429, 9.820480, -266.274048, 13.727293, 100.772301
1759228212.863096, -0.874183, 14.151079, 1.036989, 0.237685, -1.392242, 0.072600, 64.077225, 9.811890, -267.083252, 13.727293, 100.772301
1759228212.883065, -1.289577, 14.437934, 2.364873, -0.008617, -1.465018, -0.145331, 64.356705, 9.819046, -267.933105, 13.727293, 100.772301
1759228212.903041, -2.634669, 13.661913, 4.313005, -0.746035, -1.189692, -0.402495, 63.733307, 10.359970, -267.805817, 13.727293, 100.772301
1759228212.923064, -3.365050, 12.460024, 3.914071, -1.400110, -0.869191, -0.822974, 63.339172, 10.978989, -267.111877, 13.727293, 100.772301
1759228212.942822, -2.551022, 12.513594, 2.555661, -2.015545, -0.501159, -1.147615, 62.931030, 11.943344, -267.501221, 13.727293, 100.772301
1759228212.963081, -1.965340, 12.062287, 0.666187, -2.501529, -0.868552, -1.443677, 62.652084, 12.681229, -266.576508, 13.727293, 100.772301
1759228212.983225, -1.235857, 12.761843, -1.070657, -2.531014, -1.336237, -1.533624, 62.188889, 13.812881, -266.344910, 13.727293, 100.772301
1759228213.003056, -1.240645, 13.934852, -1.000926, -2.094809, -0.213793, -1.636830, 61.820419, 14.358673, -265.017914, 13.727293, 100.772301
1759228213.023024, -1.475127, 13.094637, -0.782455, -1.420861, 1.966787, -1.765299, 61.523590, 15.592743, -263.778320, 13.727293, 100.772301
1759228213.042997, 0.085593, 11.989264, -0.604835, -0.908490, 3.205993, -2.039444, 60.690964, 16.711258, -261.176666, 13.727487, 100.772336
1759228213.063037, 3.423409, 10.652551, -0.531363, -0.254245, 2.472621, -1.902896, 60.895081, 17.171860, -259.247925, 13.727487, 100.772336
1759228213.083090, 2.859874, 9.974543, -0.728286, -0.013695, 0.619530, -1.822031, 60.347855, 17.812653, -258.034576, 13.727487, 100.772336
1759228213.103126, -0.771531, 10.105626, -1.416470, 0.006990, -0.206392, -2.118114, 60.140244, 18.321426, -257.944305, 13.727487, 100.772336
1759228213.123049, -5.686678, 9.531766, -1.537676, -0.270335, 0.721146, -2.754615, 59.310425, 19.372009, -258.323792, 13.727487, 100.772336
1759228213.142155, -8.634239, 10.579827, 0.369904, -0.558906, 1.101719, -2.970197, 58.195267, 20.063110, -257.418823, 13.727487, 100.772336
1759228213.163095, -5.206042, 11.650933, 2.494608, -1.078608, -1.565394, -2.404694, 57.543411, 21.311005, -257.337067, 13.727487, 100.772336
1759228213.182443, -3.506308, 10.379463, 1.125275, -1.184447, -3.355406, -2.215540, 56.966217, 22.075851, -258.014893, 13.727487, 100.772336
1759228213.203034, -4.090793, 9.223812, 0.554707, -1.262467, -2.925451, -2.204591, 55.972000, 22.841873, -259.533630, 13.727487, 100.772336
1759228213.223042, -2.309208, 8.195053, -0.538695, -1.192289, -2.435689, -2.237520, 55.291702, 23.529373, -259.967468, 13.727487, 100.772336
1759228213.243053, 0.378733, 8.000823, -0.968754, -1.086876, -2.599846, -2.127641, 54.223465, 24.309387, -260.923492, 13.727487, 100.772336
1759228213.263031, 1.728464, 7.853879, -0.437690, -1.207327, -2.299786, -1.911130, 53.702408, 24.820099, -261.417633, 13.727487, 100.772336
1759228213.282576, 1.384597, 6.729502, 0.336086, -1.236400, -1.756623, -1.778429, 52.527908, 25.782791, -262.062012, 13.727487, 100.772336
1759228213.302363, 1.357363, 5.332486, 0.629525, -0.891520, -1.315897, -1.560805, 51.547440, 26.900604, -262.624146, 13.727487, 100.772336
1759228213.323031, 1.511639, 4.253449, 0.933888, -0.500618, -1.024559, -1.164053, 50.808609, 26.733810, -262.650757, 13.727487, 100.772336
1759228213.343050, 1.275511, 3.683030, 1.713500, -0.250462, -0.710916, -0.734599, 50.127457, 27.399460, -262.876373, 13.727487, 100.772336
1759228213.362296, 1.067215, 2.998887, 1.775001, 0.012065, -0.387342, -0.367956, 50.025345, 27.200394, -263.013977, 13.727487, 100.772336
1759228213.383025, 0.558597, 1.974169, 1.756596, 0.357027, -0.032170, -0.016534, 49.837418, 27.651917, -263.295319, 13.727487, 100.772336
1759228213.403043, -0.249147, 1.589002, 1.623568, 0.783851, 0.377850, 0.320697, 49.979660, 27.105499, -263.484161, 13.727487, 100.772336
1759228213.423045, -1.631648, 2.005593, 2.067094, 1.123439, 0.789373, 0.611458, 50.442688, 27.160477, -263.480316, 13.727487, 100.772336
1759228213.443039, -3.798551, 2.668487, 2.456301, 1.352291, 1.351561, 0.874067, 51.055649, 27.042358, -263.859894, 13.727487, 100.772336
1759228213.463048, -6.150106, 3.676147, 2.729540, 1.415382, 1.584916, 1.202991, 51.824341, 26.337189, -264.749268, 13.727487, 100.772336
1759228213.483028, -7.606379, 4.728099, 1.480814, 1.613946, 1.072809, 1.570141, 52.698959, 25.796219, -264.452209, 13.727487, 100.772336
1759228213.503047, -9.119514, 5.556194, 2.177077, 1.329864, 1.679373, 1.124853, 53.633911, 25.088425, -265.004333, 13.727487, 100.772336
1759228213.522249, -27.700913, 10.773459, 12.463615, 1.308450, 0.234901, 0.095500, 54.263702, 24.823074, -264.958374, 13.727487, 100.772336
1759228213.543056, -3.301006, 28.891131, 0.917129, 0.198895, -1.766358, 1.558520, 54.294800, 24.707870, -265.785645, 13.727487, 100.772336
1759228213.562640, -3.132065, 21.171027, 7.201759, -0.493855, -2.039784, 0.762943, 54.712585, 23.652985, -266.881592, 13.727487, 100.772336
1759228213.583051, -3.849128, 7.299921, -2.167800, 0.128047, -2.038073, 0.356382, 54.810104, 23.345718, -268.180756, 13.727487, 100.772336
1759228213.603046, 1.449689, 0.861913, 2.622249, 0.620522, -0.112313, 0.470517, 54.847565, 23.359589, -269.184540, 13.727487, 100.772336
1759228213.623037, 2.561048, -0.883311, 0.437540, 1.363279, 1.085165, 0.891758, 55.245987, 22.847992, -269.532166, 13.727487, 100.772336
1759228213.643094, 1.867926, 4.329315, 1.140687, 1.818013, 2.273639, 1.112111, 56.031540, 22.047333, -269.082550, 13.727487, 100.772336
1759228213.662752, 0.178368, 12.979266, 0.978630, 1.967271, 2.981504, 1.419139, 57.158325, 20.636063, -269.232605, 13.727487, 100.772336
1759228213.683032, 0.217124, 19.893272, 1.514033, 1.506501, 2.415085, 1.693203, 58.961060, 19.978088, -268.542023, 13.727487, 100.772336
1759228213.703053, -3.554192, 17.267581, 1.815254, 0.885494, 1.643816, 1.374236, 59.795761, 18.808563, -267.580383, 13.727487, 100.772336
1759228213.723030, -4.135235, 12.515689, 2.509273, 0.510356, 1.164505, 1.139714, 60.642593, 17.595139, -267.356506, 13.727487, 100.772336
1759228213.743047, -3.549254, 9.643545, 1.888875, 0.274479, 0.892906, 1.029375, 61.139465, 17.311508, -267.238770, 13.727487, 100.772336
1759228213.762967, -2.273893, 8.275708, 0.546477, 0.147733, 0.632962, 1.234204, 61.791168, 16.427307, -266.622101, 13.727487, 100.772336
1759228213.783232, -1.074099, 8.258948, -0.222511, 0.052180, 0.493850, 1.477498, 62.588028, 15.892593, -266.616272, 13.727487, 100.772336
1759228213.803130, -0.767641, 8.724770, -0.576853, -0.057759, 0.386574, 1.502926, 63.116440, 14.637711, -266.060547, 13.727487, 100.772336
1759228213.823248, -0.586280, 9.262418, -1.095347, -0.037840, 0.272640, 1.428732, 63.727097, 14.055939, -265.665253, 13.727487, 100.772336
1759228213.843108, -0.538246, 9.383475, -1.631200, 0.094994, 0.046790, 1.425755, 64.110657, 12.847610, -265.135956, 13.727487, 100.772336
1759228213.863111, -1.569399, 9.584887, -2.185756, 0.282146, -0.454723, 1.326681, 64.576675, 11.651184, -266.295593, 13.727487, 100.772336
1759228213.883034, -2.888006, 10.219051, -2.018013, 0.480882, -0.567194, 1.243284, 65.084076, 11.023880, -266.267151, 13.727487, 100.772336
1759228213.903056, -4.441094, 10.190171, -1.499518, 0.787341, 0.049149, 1.234904, 65.343658, 10.173340, -266.914368, 13.727487, 100.772336
1759228213.923055, -4.662408, 8.845977, -0.655413, 0.905082, 0.771222, 1.192693, 65.803894, 9.085419, -266.541016, 13.727487, 100.772336
1759228213.943070, -3.967342, 8.266281, 0.418087, 0.786077, 1.078184, 0.752963, 66.056473, 8.352905, -266.400848, 13.727487, 100.772336
1759228213.963045, -2.715623, 8.646659, 0.896928, 0.669205, 0.959276, 0.459058, 65.864792, 7.913956, -266.120483, 13.727487, 100.772336
1759228213.983043, -1.490391, 9.267206, 1.337611, 0.481408, 0.485220, 0.285302, 66.142868, 7.742386, -265.461365, 13.727487, 100.772336
1759228214.003023, -0.149937, 9.414450, 1.419911, 0.096080, 0.001239, 0.255071, 66.251709, 7.106140, -265.862427, 13.727487, 100.772336
1759228214.023033, 0.376937, 9.036016, 0.890793, -0.231874, -0.211005, 0.340972, 66.646347, 7.104553, -265.617859, 13.727475, 100.772335
1759228214.043034, 0.011672, 9.110985, 0.128239, -0.424637, -0.196576, 0.323905, 66.441238, 6.752060, -265.446411, 13.727475, 100.772335
1759228214.063035, -0.161010, 9.333646, -0.458939, -0.540591, -0.028345, 0.270716, 66.771515, 6.726517, -265.456238, 13.727475, 100.772335
1759228214.083056, -0.358083, 9.246407, -0.957082, -0.591984, 0.342409, 0.264982, 66.717209, 6.393967, -265.444458, 13.727475, 100.772335
1759228214.103042, -0.510863, 9.460538, -1.581669, -0.561865, 0.719015, 0.241157, 66.535202, 6.083054, -264.851959, 13.727475, 100.772335
1759228214.123044, -0.709133, 9.687987, -1.896357, -0.445894, 0.760440, 0.232924, 67.091446, 5.753494, -264.528503, 13.727475, 100.772335
1759228214.143060, -0.839916, 9.764602, -1.819743, -0.233416, 0.571456, 0.235830, 66.854385, 5.891556, -264.127197, 13.727475, 100.772335
1759228214.163092, -0.963816, 9.715371, -1.484255, -0.052111, 0.275362, 0.235497, 66.826736, 5.711609, -263.856750, 13.727475, 100.772335
1759228214.183065, -0.876278, 9.777022, -1.300052, 0.137366, 0.008421, 0.255831, 67.170319, 5.290421, -263.903198, 13.727475, 100.772335
1759228214.203048, -0.822558, 9.815628, -1.036091, 0.413279, -0.160950, 0.268414, 67.386185, 5.131134, -263.835724, 13.727475, 100.772335
1759228214.223036, -0.762404, 9.664345, -0.707636, 0.731257, -0.275183, 0.283062, 67.272156, 4.903625, -263.963989, 13.727475, 100.772335
1759228214.243116, -0.781408, 10.006566, -0.257526, 0.936664, -0.332857, 0.323093, 67.281082, 4.677261, -264.327454, 13.727475, 100.772335
1759228214.263040, -1.169568, 10.147375, 0.235380, 0.793297, -0.427646, 0.385254, 66.980240, 4.517120, -265.135864, 13.727475, 100.772335
1759228214.283092, -1.926435, 9.750536, 0.449362, 0.341845, -0.629131, 0.311597, 67.379257, 4.042511, -265.323425, 13.727475, 100.772335
1759228214.303046, -2.099864, 9.172486, 0.147393, -0.127448, -0.935879, 0.124079, 66.751694, 3.899628, -265.841309, 13.727475, 100.772335
1759228214.323037, -1.664569, 9.709984, -0.558448, -0.195287, -1.152293, -0.073510, 66.986465, 4.123749, -267.210297, 13.727475, 100.772335
1759228214.343056, -0.253486, 10.440216, -0.923414, -0.111180, -1.099092, -0.359913, 66.655472, 4.807983, -267.574036, 13.727475, 100.772335
1759228214.362042, 1.138892, 10.438270, -1.077690, -0.038589, -0.668438, -0.353969, 66.308929, 4.295425, -268.285706, 13.727475, 100.772335
1759228214.383041, 1.730559, 9.144653, -1.061529, 0.017641, -0.042592, -0.269923, 66.396561, 4.737625, -268.464050, 13.727475, 100.772335
1759228214.403047, 2.327314, 8.421604, -1.007211, 0.114630, 0.387732, -0.143046, 66.328262, 5.068863, -268.088593, 13.727475, 100.772335
1759228214.423055, 2.473959, 8.958205, -0.648679, 0.113416, 0.396565, -0.076689, 66.512222, 5.056061, -268.078156, 13.727475, 100.772335
1759228214.443118, 2.488773, 9.904663, -0.641496, 0.039266, 0.326758, -0.058454, 66.193268, 4.962158, -268.747223, 13.727475, 100.772335
1759228214.462091, 2.496703, 9.993248, -0.551564, 0.124501, 0.379066, 0.019429, 66.459442, 5.099472, -268.606506, 13.727475, 100.772335
1759228214.483040, 1.467646, 9.931448, -0.184653, 0.077492, 0.259300, 0.141922, 66.632446, 4.842957, -268.071716, 13.727475, 100.772335
1759228214.503052, 0.227748, 9.993098, 0.036063, -0.049440, -0.077143, 0.254477, 66.173309, 5.078857, -267.635254, 13.727475, 100.772335
1759228214.523039, -0.908899, 9.952247, -0.131083, -0.135684, -0.648147, 0.312617, 66.571411, 4.567657, -268.606384, 13.727475, 100.772335
1759228214.543057, -1.647809, 9.748890, -0.491859, -0.218563, -1.148885, 0.272083, 66.595108, 4.310516, -268.799866, 13.727475, 100.772335
1759228214.562344, -1.978359, 9.333346, -1.007809, -0.260522, -1.327952, 0.159369, 66.435806, 4.196609, -269.567596, 13.727475, 100.772335
1759228214.583060, -1.617283, 9.408614, -1.499668, -0.134750, -0.988683, 0.066470, 65.943024, 3.912567, -270.348938, 13.727475, 100.772335
1759228214.603062, -0.759560, 9.563788, -1.569399, 0.079580, -0.252777, -0.020983, 65.871643, 4.290421, -270.042053, 13.727475, 100.772335
1759228214.623048, 0.859818, 9.755025, -1.232116, 0.159610, 0.390439, -0.080146, 65.941101, 4.168900, -270.521667, 13.727475, 100.772335
1759228214.643108, 1.652149, 9.933992, -0.868347, 0.203677, 0.639947, 0.022984, 66.214264, 4.203262, -270.602448, 13.727475, 100.772335
1759228214.662543, 1.820042, 9.784055, -0.473004, 0.217932, 0.326281, 0.059554, 66.081345, 4.166306, -270.109955, 13.727475, 100.772335
1759228214.683111, 1.575385, 9.615413, -0.183156, 0.126518, -0.261953, 0.167772, 66.347672, 4.185120, -270.757568, 13.727475, 100.772335
1759228214.703160, 0.812981, 9.762058, -0.255581, -0.017933, -0.513793, 0.240002, 65.791122, 3.933777, -270.806519, 13.727475, 100.772335
1759228214.723131, 0.031424, 9.993847, -0.504728, -0.114649, -0.410801, 0.222728, 66.007263, 3.640778, -271.401978, 13.727475, 100.772335
1759228214.743041, -0.619200, 10.051008, -0.757316, -0.164965, -0.229799, 0.142023, 65.669281, 3.630234, -271.114655, 13.727475, 100.772335
1759228214.762648, -1.002871, 9.970354, -0.917129, -0.128524, -0.118792, 0.019881, 65.661087, 3.238464, -271.316406, 13.727475, 100.772335
1759228214.782353, -0.890793, 9.938032, -1.022474, -0.049064, -0.049409, -0.100873, 65.882233, 3.529800, -270.993805, 13.727475, 100.772335
1759228214.802354, -0.297629, 9.716269, -0.983418, 0.031972, 0.024405, -0.197235, 65.917435, 4.238052, -271.451477, 13.727475, 100.772335
1759228214.822971, 0.532261, 9.487623, -0.905308, 0.075639, 0.112128, -0.222982, 65.475403, 4.038300, -271.426697, 13.727475, 100.772335
1759228214.843075, 1.023671, 9.415348, -0.787842, 0.086397, 0.234692, -0.181316, 65.309219, 3.782852, -270.802307, 13.727475, 100.772335
1759228214.862830, 1.316512, 9.621848, -0.706289, 0.093788, 0.254286, -0.114100, 65.473999, 4.106277, -271.168427, 13.727475, 100.772335
1759228214.882945, 1.402404, 9.871443, -0.594660, 0.126379, 0.207130, -0.040486, 65.660477, 4.085800, -271.116577, 13.727475, 100.772335
1759228214.903132, 1.251719, 9.858874, -0.357484, 0.072024, 0.099967, 0.016217, 65.713058, 3.938019, -271.015564, 13.727475, 100.772335
1759228214.923043, 0.900519, 9.822811, -0.200664, -0.015294, -0.000921, 0.062973, 65.900497, 3.786179, -270.357056, 13.727475, 100.772335
1759228214.943055, 0.341473, 9.708787, -0.305410, -0.085497, -0.047570, 0.055988, 65.386978, 3.968872, -270.757324, 13.727475, 100.772335
1759228214.963018, -0.036063, 9.757868, -0.523283, -0.146565, -0.016613, 0.018985, 65.607880, 3.945312, -270.470825, 13.727475, 100.772335
1759228214.983048, -0.101754, 9.836578, -0.851288, -0.146278, 0.081297, -0.012601, 65.974106, 4.107239, -270.650330, 13.727475, 100.772335
1759228215.003067, 0.069731, 9.763405, -1.120935, -0.086579, 0.165037, -0.042635, 66.006287, 3.980225, -271.040802, 13.727475, 100.772335
1759228215.023117, 0.254534, 9.555408, -1.203984, 0.006131, 0.149450, -0.063907, 65.645355, 4.163544, -270.861389, 13.727475, 100.772335
1759228215.043116, 0.559944, 9.445874, -1.126622, 0.066690, 0.109111, -0.069057, 65.757248, 4.367874, -270.255524, 13.727463, 100.772335
1759228215.063037, 0.791433, 9.462783, -0.891242, 0.088109, 0.081787, -0.054843, 65.711395, 4.094299, -270.532959, 13.727463, 100.772335
1759228215.083044, 0.871938, 9.614815, -0.630423, 0.087551, 0.071391, -0.032039, 65.501678, 4.033249, -270.812653, 13.727463, 100.772335
1759228215.103053, 0.809390, 9.660155, -0.391003, 0.029765, 0.082647, -0.005583, 65.508163, 4.249054, -270.195679, 13.727463, 100.772335
1759228215.123047, 0.664092, 9.656414, -0.301669, -0.034521, 0.117805, 0.017502, 65.475861, 3.940506, -270.668915, 13.727463, 100.772335
1759228215.143062, 0.520140, 9.725846, -0.387561, -0.081442, 0.115569, 0.046450, 65.991226, 3.880798, -270.629822, 13.727463, 100.772335
1759228215.163055, 0.399532, 9.797971, -0.577452, -0.097279, 0.089525, 0.069407, 65.679199, 4.035049, -270.760162, 13.727463, 100.772335
1759228215.183144, 0.250194, 9.788095, -0.786795, -0.079073, 0.063919, 0.089184, 65.616776, 3.864227, -269.950714, 13.727463, 100.772335
1759228215.203058, 0.079607, 9.765200, -0.923563, -0.035896, 0.022237, 0.096736, 65.984604, 4.028198, -270.464478, 13.727463, 100.772335
1759228215.223068, -0.087987, 9.851392, -0.986112, 0.022450, -0.034698, 0.094261, 65.692062, 3.892609, -270.191162, 13.727463, 100.772335
1759228215.243051, -0.184653, 9.923068, -0.936432, 0.068633, -0.063238, 0.069104, 65.798203, 3.590851, -269.701050, 13.727463, 100.772335
1759228215.263179, -0.168642, 9.859322, -0.782006, 0.071993, -0.053307, 0.050390, 65.479294, 3.768768, -270.284698, 13.727463, 100.772335
1759228215.283115, -0.067935, 9.835530, -0.661997, 0.054579, -0.053188, 0.023761, 65.762878, 3.537140, -270.522888, 13.727463, 100.772335
1759228215.303068, 0.117765, 9.827749, -0.591667, 0.010996, -0.062808, 0.010778, 65.642670, 3.751740, -270.440186, 13.727463, 100.772335
1759228215.323114, 0.263961, 9.836727, -0.612467, -0.031973, -0.062046, -0.005925, 65.989227, 3.622040, -270.691772, 13.727463, 100.772335
1759228215.343170, 0.370802, 9.927856, -0.712275, -0.050735, -0.029635, -0.024702, 65.701660, 3.899704, -270.276398, 13.727463, 100.772335
1759228215.363078, 0.531064, 9.897181, -0.830788, -0.045778, 0.050446, -0.035975, 65.975006, 3.882614, -270.099884, 13.727463, 100.772335
1759228215.383130, 0.624438, 9.837176, -0.854880, -0.033086, 0.143428, -0.034670, 65.844376, 3.848480, -270.505157, 13.727463, 100.772335
1759228215.403068, 0.652420, 9.690681, -0.775572, -0.013654, 0.174658, -0.021624, 66.347763, 3.816467, -270.294678, 13.727463, 100.772335
1759228215.423245, 0.508169, 9.713276, -0.583437, -0.013631, 0.121389, -0.007446, 65.979065, 3.593063, -270.058411, 13.727463, 100.772335
1759228215.443116, 0.290896, 9.788693, -0.436493, -0.028826, 0.061165, 0.003463, 65.877014, 4.083832, -270.097412, 13.727463, 100.772335
1759228215.463116, 0.112827, 9.667786, -0.346860, -0.063850, 0.035558, 0.012274, 65.938568, 3.495682, -269.473480, 13.727463, 100.772335
1759228215.483054, -0.009128, 9.727641, -0.433051, -0.068480, 0.033870, 0.011752, 65.970764, 3.720367, -270.235443, 13.727463, 100.772335
1759228215.503058, -0.003292, 9.705495, -0.607978, -0.059142, 0.016869, 0.012671, 65.455383, 3.772797, -269.511414, 13.727463, 100.772335
1759228215.523063, 0.048632, 9.563788, -0.782904, -0.027852, -0.013965, 0.013491, 66.190201, 4.010193, -269.957825, 13.727463, 100.772335
1759228215.543059, 0.140659, 9.680954, -0.908600, 0.019734, -0.048860, 0.016278, 66.447464, 4.171234, -269.657227, 13.727463, 100.772335
1759228215.563048, 0.242114, 9.824756, -0.837372, 0.061763, -0.075221, 0.019063, 65.903275, 3.914948, -269.996948, 13.727463, 100.772335
1759228215.582824, 0.316035, 9.695769, -0.607828, 0.062904, -0.069839, 0.016932, 65.832184, 3.861038, -270.352875, 13.727463, 100.772335
1759228215.603042, 0.362422, 9.624541, -0.389956, 0.026081, -0.046128, 0.012337, 66.057953, 3.811874, -270.765747, 13.727463, 100.772335
1759228215.623058, 0.410007, 9.676615, -0.303166, -0.033797, -0.038231, 0.012013, 65.958267, 3.902542, -270.340820, 13.727463, 100.772335
1759228215.643090, 0.456395, 9.749189, -0.425719, -0.066479, -0.031154, 0.016225, 65.752335, 3.872772, -270.667145, 13.727463, 100.772335
1759228215.663178, 0.494253, 9.744251, -0.620398, -0.078241, -0.009769, 0.026722, 65.457932, 4.085556, -270.302917, 13.727463, 100.772335
1759228215.683112, 0.474202, 9.670779, -0.788889, -0.058659, -0.002349, 0.029160, 65.812729, 3.762955, -270.442291, 13.727463, 100.772335
1759228215.703117, 0.354940, 9.639206, -0.827346, -0.030886, -0.017398, 0.016501, 65.602325, 3.936417, -270.335388, 13.727463, 100.772335
1759228215.723050, 0.268001, 9.675867, -0.654665, -0.019935, -0.020951, 0.006298, 65.835495, 4.049713, -270.054749, 13.727463, 100.772335
1759228215.743049, 0.306159, 9.901520, -0.540192, -0.028815, 0.009343, -0.017541, 65.770447, 3.762924, -270.398376, 13.727463, 100.772335
1759228215.762350, 0.330400, 10.004022, -0.491410, -0.048237, 0.037530, -0.024669, 65.767487, 3.862473, -270.579590, 13.727463, 100.772335
1759228215.783058, 0.352696, 9.878476, -0.423026, -0.078083, 0.026516, -0.033937, 65.975143, 3.760712, -270.041077, 13.727463, 100.772335
1759228215.803064, 0.280421, 9.726444, -0.486921, -0.100310, 0.037271, -0.056409, 65.874771, 3.879700, -270.458801, 13.727463, 100.772335
1759228215.823051, 0.272640, 9.863512, -0.525827, -0.116109, 0.079189, -0.080204, 66.035004, 4.061966, -270.170959, 13.727463, 100.772335
1759228215.843073, 0.310348, 10.017489, -0.547075, -0.115266, 0.126902, -0.092697, 65.857254, 4.286301, -269.502930, 13.727463, 100.772335
1759228215.863061, 0.341174, 10.023325, -0.518943, -0.101146, 0.162114, -0.087629, 65.831711, 3.864868, -269.956512, 13.727463, 100.772335
1759228215.883074, 0.259621, 9.850344, -0.489614, -0.107026, 0.183737, -0.083175, 65.767197, 4.206482, -270.231659, 13.727463, 100.772335
1759228215.902757, 0.203657, 9.631424, -0.563535, -0.103383, 0.213851, -0.084813, 65.827698, 4.137207, -269.840881, 13.727463, 100.772335
1759228215.923086, 0.195427, 9.636362, -0.602740, -0.071920, 0.217297, -0.086075, 65.993256, 4.214615, -269.338196, 13.727463, 100.772335
1759228215.943122, 0.309151, 9.706243, -0.552163, -0.026517, 0.182323, -0.076403, 65.753784, 4.429352, -269.582397, 13.727463, 100.772335
1759228215.962757, 0.392649, 9.712229, -0.471807, 0.000130, 0.159519, -0.052326, 66.180695, 3.841293, -269.180908, 13.727463, 100.772335
1759228215.983051, 0.384419, 9.742605, -0.406116, 0.018250, 0.152033, -0.031282, 66.188416, 4.408493, -268.827576, 13.727463, 100.772335
1759228216.003068, 0.362722, 9.753080, -0.320673, 0.025396, 0.148490, -0.018271, 66.286942, 4.851166, -268.791901, 13.727463, 100.772335
1759228216.022387, 0.342969, 9.706393, -0.251242, 0.005337, 0.122731, -0.002309, 66.212891, 4.254776, -269.181885, 13.727463, 100.772335
1759228216.043124, 0.324564, 9.709236, -0.283713, -0.013391, 0.094240, 0.005708, 65.989883, 4.286942, -268.630646, 13.727463, 100.772335
1759228216.063047, 0.305111, 9.725247, -0.355838, -0.026083, 0.063399, 0.019420, 66.170319, 4.208237, -268.719116, 13.727463, 100.772335
1759228216.083097, 0.292242, 9.721805, -0.440533, -0.029421, 0.041194, 0.019168, 66.178040, 4.145874, -268.978119, 13.727463, 100.772335
1759228216.103078, 0.276680, 9.743503, -0.492308, -0.021741, 0.057081, 0.015186, 66.072266, 4.228470, -268.894012, 13.727463, 100.772335
1759228216.123058, 0.275034, 9.769690, -0.508319, -0.012914, 0.081303, 0.013179, 65.964478, 4.331299, -268.801453, 13.727463, 100.772335
1759228216.143182, 0.258275, 9.739912, -0.472107, -0.003150, 0.075767, 0.006867, 66.208023, 4.515656, -268.767212, 13.727463, 100.772335
1759228216.163070, 0.253486, 9.736919, -0.418237, 0.003578, 0.070176, 0.001310, 65.903519, 4.339798, -268.787109, 13.727463, 100.772335
1759228216.183067, 0.235829, 9.754426, -0.362422, -0.001425, 0.069497, -0.009720, 66.006149, 4.306641, -268.516968, 13.727463, 100.772335
1759228216.203064, 0.254833, 9.767894, -0.331597, -0.017325, 0.068794, -0.015996, 66.406479, 4.737244, -268.811157, 13.727463, 100.772335
1759228216.223285, 0.330250, 9.708188, -0.330699, -0.019050, 0.063705, -0.019896, 66.259140, 4.353989, -268.405762, 13.727463, 100.772335
1759228216.243123, 0.363619, 9.619902, -0.333991, -0.028611, 0.061801, -0.017682, 66.316360, 4.420135, -268.418243, 13.727463, 100.772335
1759228216.263100, 0.338480, 9.625738, -0.385317, -0.027065, 0.068838, -0.020933, 66.260544, 4.157593, -268.796570, 13.727463, 100.772335
1759228216.283124, 0.292242, 9.726893, -0.430956, -0.029467, 0.073821, -0.022078, 66.012100, 4.181488, -268.027252, 13.727463, 100.772335
1759228216.303151, 0.238373, 9.767894, -0.442927, -0.016410, 0.059659, -0.021997, 66.233078, 4.552704, -268.408936, 13.727463, 100.772335
1759228216.323125, 0.247501, 9.718663, -0.413748, -0.000873, 0.032351, -0.017002, 66.003128, 4.673309, -268.073364, 13.727463, 100.772335
1759228216.343075, 0.246453, 9.746047, -0.374693, -0.001696, 0.012206, -0.013624, 66.182205, 4.506302, -268.693237, 13.727463, 100.772335
1759228216.363075, 0.240019, 9.901820, -0.352845, 0.000453, 0.008111, -0.009789, 65.873352, 4.337860, -268.359436, 13.727463, 100.772335
1759228216.382194, 0.293589, 9.979631, -0.330699, -0.008573, 0.010086, -0.006051, 65.805893, 4.291138, -268.662781, 13.727463, 100.772335
1759228216.403134, 0.376339, 9.852439, -0.356137, -0.023744, 0.010513, 0.001785, 66.200424, 4.545395, -268.511749, 13.727463, 100.772335
1759228216.423127, 0.389956, 9.773430, -0.446668, -0.025666, 0.002453, 0.011709, 65.891602, 4.421585, -268.561218, 13.727463, 100.772335
1759228216.443127, 0.346261, 9.735722, -0.476446, -0.021427, -0.014247, 0.025290, 65.717911, 4.932114, -268.103027, 13.727463, 100.772335
1759228216.463089, 0.247201, 9.760262, -0.462979, -0.008195, -0.032714, 0.022610, 65.938553, 4.375168, -268.753601, 13.727463, 100.772335
1759228216.482365, 0.224905, 9.796175, -0.411952, -0.003952, -0.017065, 0.013980, 66.016357, 4.442810, -269.057495, 13.727463, 100.772335
1759228216.503123, 0.284162, 9.787496, -0.385317, -0.007162, 0.021218, 0.005488, 66.167023, 4.478622, -268.078094, 13.727463, 100.772335
1759228216.523130, 0.364966, 9.788245, -0.399532, -0.013280, 0.049175, -0.000004, 66.175308, 4.448654, -268.621948, 13.727463, 100.772335
1759228216.543074, 0.381277, 9.786150, -0.395193, -0.012877, 0.034602, 0.005406, 65.885071, 4.552765, -268.124786, 13.727463, 100.772335
1759228216.563056, 0.335637, 9.766996, -0.347907, -0.019719, 0.001557, 0.014673, 65.895035, 4.672256, -268.482300, 13.727463, 100.772335
1759228216.582748, 0.245406, 9.853038, -0.345064, -0.021455, 0.011961, 0.016772, 65.675598, 4.178116, -268.315155, 13.727463, 100.772335
1759228216.603061, 0.197522, 9.883564, -0.323217, -0.020084, 0.030130, 0.011733, 66.113876, 4.497284, -268.238892, 13.727463, 100.772335
1759228216.623092, 0.178817, 9.714623, -0.279523, -0.024369, 0.021122, 0.012251, 65.873901, 4.317673, -268.320831, 13.727463, 100.772335
1759228216.643112, 0.177769, 9.756222, -0.327257, -0.016266, 0.017947, 0.004707, 65.773254, 4.665161, -268.147308, 13.727463, 100.772335
1759228216.663262, 0.246004, 9.912893, -0.326360, 0.001615, 0.025293, 0.004075, 66.014557, 4.632553, -268.567810, 13.727463, 100.772335
1759228216.682723, 0.347010, 9.817424, -0.306159, 0.030725, 0.033351, 0.007270, 66.477921, 4.683380, -268.312866, 13.727463, 100.772335
1759228216.703120, 0.383671, 9.635016, -0.239121, 0.058166, 0.030849, 0.004254, 66.085403, 4.776901, -268.351440, 13.727463, 100.772335
1759228216.723127, 0.256928, 9.236680, -0.162806, 0.039192, 0.028196, -0.047557, 66.203873, 4.572403, -269.004761, 13.727463, 100.772335
1759228216.743076, 0.005237, 9.050531, -0.112079, -0.002132, 0.105097, -0.164954, 66.296951, 4.587570, -268.660370, 13.727463, 100.772335
1759228216.763055, -0.277278, 9.348160, -0.153678, -0.019758, 0.222449, -0.327331, 66.281998, 4.580658, -268.002747, 13.727463, 100.772335
1759228216.783112, -0.468216, 9.923966, -0.172981, -0.008819, 0.388614, -0.482109, 66.050476, 4.708862, -268.024658, 13.727463, 100.772335
1759228216.803078, -0.639252, 10.171915, -0.134075, 0.000234, 0.556545, -0.607465, 66.374252, 5.464050, -267.361877, 13.727463, 100.772335
1759228216.823070, -1.019032, 10.106075, -0.039055, -0.074719, 0.616951, -0.740189, 66.041229, 5.863571, -266.720734, 13.727463, 100.772335
1759228216.842354, -0.954688, 10.260202, -0.262614, 0.020416, 0.655397, -0.822245, 66.354446, 6.230270, -267.153625, 13.727463, 100.772335
1759228216.863067, -0.595258, 10.913220, -0.391452, 0.264952, 0.756726, -0.887942, 66.374161, 6.596436, -266.725037, 13.727463, 100.772335
1759228216.883032, 0.163105, 10.998962, 0.110732, 0.456982, 0.967754, -0.987710, 65.662155, 6.967148, -265.772003, 13.727463, 100.772335
1759228216.903077, 1.491288, 10.580875, 1.114651, 0.372927, 1.271054, -0.973131, 66.055038, 7.810684, -265.570587, 13.727463, 100.772335
1759228216.923137, 2.216582, 9.914838, 2.390161, -0.024679, 1.637549, -0.767752, 66.004730, 8.700546, -264.108093, 13.727463, 100.772335
1759228216.943075, 2.175731, 9.474155, 3.089119, -0.597899, 1.780141, -0.539241, 66.150452, 8.832520, -263.323914, 13.727463, 100.772335
1759228216.963074, 1.820790, 9.436895, 2.755427, -1.083438, 1.130794, -0.245063, 66.207016, 9.409256, -261.853516, 13.727463, 100.772335
1759228216.983067, 1.038635, 9.665542, 1.704522, -1.416412, 0.346334, 0.077999, 66.941025, 9.204926, -261.453217, 13.727463, 100.772335
1759228217.003053, -0.596755, 10.243293, -0.039355, -1.418140, 0.331491, 0.125390, 66.400894, 9.122513, -261.000854, 13.727463, 100.772335
1759228217.023069, -2.319233, 9.749937, -1.775151, -1.176411, 0.008951, -0.003320, 66.944031, 9.163666, -260.148376, 13.727463, 100.772335
1759228217.042526, -2.828151, 9.484929, -2.857779, -0.795184, -0.691980, -0.185042, 66.472794, 9.104919, -260.115051, 13.727462, 100.772333
1759228217.062366, -2.822764, 9.848399, -2.592172, -0.453234, -0.923661, -0.192788, 66.819168, 8.977036, -261.010925, 13.727462, 100.772333
1759228217.083077, -2.792088, 10.247033, -1.792359, -0.079115, 0.103914, -0.078619, 66.321396, 9.444168, -260.951874, 13.727462, 100.772333
1759228217.102178, -2.708740, 9.044845, -0.634015, 0.259330, 2.039590, -0.043304, 66.702789, 9.516052, -259.525208, 13.727462, 100.772333
1759228217.123158, -1.259051, 8.526800, 0.274286, 0.450099, 3.250860, -0.178981, 66.779083, 9.227768, -258.529419, 13.727462, 100.772333
1759228217.143119, -0.885705, 9.541343, 1.152359, 0.814529, 3.217331, -0.274712, 66.460693, 9.324814, -256.186798, 13.727462, 100.772333
1759228217.163079, -0.939425, 10.648511, 5.274426, 0.172685, 1.937912, -0.271532, 66.194397, 9.580994, -255.005356, 13.727462, 100.772333
1759228217.183103, -1.830367, 10.181642, 8.562563, -1.181891, -0.370244, -0.381075, 66.253555, 9.666794, -253.958237, 13.727462, 100.772333
1759228217.203085, -1.612046, 9.208100, 3.918859, -1.468519, -1.652084, -0.234168, 66.260376, 9.710724, -253.998367, 13.727462, 100.772333
1759228217.223266, -2.151639, 9.036166, 0.487819, -1.170370, -1.600464, -0.197798, 66.772964, 9.521164, -255.336090, 13.727462, 100.772333
1759228217.243095, -1.836502, 9.212589, -0.666336, -0.969612, -0.394506, -0.137048, 66.508209, 9.714462, -255.628494, 13.727462, 100.772333
1759228217.263060, -1.914613, 9.646687, -0.622193, -0.727044, 1.071891, -0.172440, 66.705811, 9.301834, -255.191818, 13.727462, 100.772333
1759228217.283066, -1.857302, 9.462184, -0.415394, -0.393036, 1.804342, -0.204417, 67.056412, 9.639709, -254.134552, 13.727462, 100.772333
1759228217.302606, -1.716792, 8.829666, 1.119289, -0.423095, 1.859703, -0.132205, 66.894485, 9.279922, -253.059036, 13.727462, 100.772333
1759228217.323071, -1.880496, 8.439860, 2.087145, -0.498040, 1.519250, -0.089752, 66.802582, 9.117386, -251.888916, 13.727462, 100.772333
1759228217.343093, -1.755848, 8.446743, 1.966238, -0.399206, 1.017635, 0.007185, 66.525055, 9.149750, -249.871033, 13.727462, 100.772333
1759228217.363063, -1.406893, 8.263737, 1.872415, -0.287640, 0.741819, 0.113048, 66.564911, 8.972443, -250.021881, 13.727462, 100.772333
1759228217.383102, -1.256357, 8.290372, 1.911471, -0.284016, 0.636734, 0.280986, 66.486740, 8.720108, -249.199600, 13.727462, 100.772333
1759228217.403061, -1.535581, 8.327033, 2.072780, -0.335090, 0.504207, 0.425455, 66.576111, 8.593170, -248.661087, 13.727462, 100.772333
1759228217.423104, -2.348861, 8.030452, 1.839046, -0.199795, 0.092775, 0.586534, 66.678940, 7.920593, -247.521378, 13.727462, 100.772333
1759228217.443146, -3.267786, 8.081777, 1.719785, 0.205893, -0.171079, 0.485840, 67.367325, 7.303421, -248.287445, 13.727462, 100.772333
1759228217.463063, -1.325340, 8.483405, 2.491316, 0.443867, 0.034332, 0.480310, 67.580338, 6.904816, -247.918457, 13.727462, 100.772333
1759228217.483073, -1.102081, 9.033772, 2.709787, 0.559819, 0.389631, 0.526234, 67.959549, 6.613800, -247.812088, 13.727462, 100.772333
1759228217.503003, -1.051653, 11.798327, 2.317138, 0.500153, 0.684568, 0.578015, 67.997452, 6.265793, -247.515091, 13.727462, 100.772333
1759228217.523124, -1.947683, 15.907525, 0.952892, 0.405765, 0.869365, 0.518299, 68.252274, 5.713058, -247.179169, 13.727462, 100.772333
1759228217.543072, -0.750732, 16.447118, 3.343952, 0.372437, 1.408530, 0.361067, 68.514236, 5.741180, -246.246933, 13.727462, 100.772333
1759228217.563080, -6.000468, 11.018266, 3.097049, -0.250560, 1.808376, -0.061713, 67.924240, 5.226318, -245.271637, 13.727462, 100.772333
1759228217.583124, -5.267842, 7.707384, -1.055394, -0.035508, 0.440971, -0.364128, 68.140137, 5.015427, -244.423431, 13.727462, 100.772333
1759228217.603076, 0.478541, 6.102371, -0.099958, 0.084077, 0.628325, -0.195951, 68.257736, 5.371307, -244.115311, 13.727462, 100.772333
1759228217.623072, 2.738967, 7.634660, -0.319776, 0.348341, 0.944132, -0.021566, 68.682648, 5.655579, -243.986450, 13.727462, 100.772333
1759228217.643075, 1.937508, 8.862437, -1.182287, 0.430315, 0.820036, 0.135991, 68.043655, 5.658554, -243.096634, 13.727462, 100.772333
1759228217.663083, 1.623269, 9.556007, -1.764976, 0.366549, 0.748972, 0.331823, 68.128754, 5.204926, -242.601562, 13.727462, 100.772333
1759228217.683072, 1.957858, 10.265140, -2.302474, 0.625588, 0.711812, 0.529177, 68.381454, 4.967377, -241.804245, 13.727462, 100.772333
1759228217.703095, 2.347215, 10.286089, -1.614889, 1.215471, 0.780865, 0.561506, 68.393127, 4.705490, -241.655396, 13.727462, 100.772333
1759228217.722988, 1.443554, 10.587010, 0.346860, 1.254520, 1.122919, 0.364813, 68.168335, 4.887009, -241.515747, 13.727462, 100.772333
1759228217.742653, 0.217274, 9.710283, 1.117793, 0.761623, 1.351964, 0.437831, 67.806427, 4.692917, -240.083267, 13.727462, 100.772333
1759228217.762645, -0.499640, 9.140164, 0.862511, 0.427826, 1.042402, 0.387042, 67.939529, 5.042923, -239.576538, 13.727462, 100.772333
1759228217.782256, -0.567875, 9.403826, 0.286107, 0.343446, 0.732682, 0.281436, 67.915588, 4.642883, -239.580750, 13.727462, 100.772333
1759228217.803091, 0.177620, 9.713126, -0.028132, 0.182565, 0.833666, 0.209203, 67.528412, 4.334061, -238.502441, 13.727462, 100.772333
1759228217.822301, 0.161758, 9.762357, -0.755969, -0.028732, 0.957996, 0.166062, 67.606659, 4.323914, -237.319626, 13.727462, 100.772333
1759228217.843157, -0.112228, 9.981576, -1.705420, -0.119552, 0.792398, 0.155330, 67.216415, 3.702744, -237.099854, 13.727462, 100.772333
1759228217.863162, -0.560393, 10.226084, -2.479794, -0.011970, 0.656044, 0.166004, 67.236481, 3.842575, -236.250458, 13.727462, 100.772333
1759228217.883083, -1.052551, 10.145878, -2.688240, 0.208590, 0.726911, 0.183216, 67.107574, 3.599976, -236.141342, 13.727462, 100.772333
1759228217.903094, -1.021277, 9.822212, -2.305317, 0.428042, 0.895800, 0.196552, 66.815582, 3.464325, -235.411240, 13.727462, 100.772333
1759228217.923102, -0.649278, 9.575011, -1.643171, 0.614952, 1.152171, 0.197320, 66.616196, 3.628510, -234.890350, 13.727462, 100.772333
1759228217.942309, -0.344017, 9.463830, -0.961122, 0.641639, 1.307749, 0.182401, 65.958847, 3.899170, -233.961304, 13.727462, 100.772333
1759228217.963088, -0.028730, 9.526379, -0.661997, 0.563138, 1.416368, 0.212783, 65.296127, 3.849136, -233.366547, 13.727462, 100.772333
1759228217.982856, -0.050578, 9.772982, -0.484527, 0.433363, 1.519359, 0.263779, 64.801437, 4.171371, -232.446503, 13.727462, 100.772333
1759228218.003065, -0.497844, 9.854833, -0.610222, 0.284588, 1.419891, 0.248905, 63.926224, 4.224930, -231.440811, 13.727462, 100.772333
1759228218.023091, -0.739958, 9.764901, -0.796521, 0.221831, 1.278998, 0.285156, 63.580048, 3.976868, -230.984451, 13.727462, 100.772333
1759228218.043082, -1.148020, 9.686042, -0.934936, 0.245344, 1.055413, 0.269347, 62.938004, 3.847260, -230.556015, 13.727459, 100.772343
1759228218.063080, -1.205780, 9.674071, -1.048511, 0.327513, 0.805392, 0.264618, 62.812775, 3.881973, -229.714325, 13.727459, 100.772343
1759228218.083076, -1.259500, 9.701455, -0.988207, 0.459501, 0.772490, 0.229176, 62.355072, 4.087418, -228.836594, 13.727459, 100.772343
1759228218.103131, -0.776170, 9.392453, -0.870741, 0.569245, 0.981396, 0.294633, 62.128220, 4.014847, -228.597229, 13.727459, 100.772343
1759228218.122890, -0.634763, 9.147197, -0.495300, 0.580489, 1.271333, 0.279094, 61.478806, 3.982025, -228.361923, 13.727459, 100.772343
1759228218.143185, -0.017208, 9.162011, -0.259023, 0.478709, 1.538615, 0.290679, 60.641251, 4.278824, -227.003937, 13.727459, 100.772343
1759228218.163071, 0.030825, 9.704298, 0.021847, 0.265569, 1.725661, 0.385595, 59.852005, 4.089142, -226.357376, 13.727459, 100.772343
1759228218.183148, -1.156998, 10.385748, 0.062848, -0.282624, 1.283190, 0.522100, 59.091034, 3.958115, -225.827454, 13.727459, 100.772343
1759228218.202188, -2.417246, 9.980230, -0.796671, -0.686461, 0.385015, 0.475350, 59.288956, 3.255203, -225.540894, 13.727459, 100.772343
1759228218.223221, -3.425953, 9.732280, -1.572841, -0.495557, -0.265538, 0.281756, 59.288483, 2.484451, -225.005722, 13.727459, 100.772343
1759228218.243146, -4.056825, 9.611523, -1.590049, -0.174093, -0.657251, 0.033160, 60.316330, 2.085373, -225.423264, 13.727459, 100.772343
1759228218.263075, -4.103811, 9.235034, -1.011401, -0.146498, -0.717132, -0.089301, 61.449097, 1.933548, -226.017242, 13.727459, 100.772343
1759228218.283148, -4.248511, 9.033622, -0.880617, -0.318266, -0.110207, -0.535924, 61.869400, 1.816574, -226.293945, 13.727459, 100.772343
1759228218.302438, -3.764284, 9.683049, -0.865055, -0.608544, 0.754559, -1.092458, 61.775253, 2.175262, -226.775131, 13.727459, 100.772343
1759228218.323008, -2.736423, 10.959009, -1.150564, -0.639497, 1.625721, -1.455203, 60.669052, 2.418182, -226.164139, 13.727459, 100.772343
1759228218.343180, -0.604536, 11.987319, -1.277905, -0.101598, 2.956962, -1.533236, 59.407944, 3.275665, -225.551346, 13.727459, 100.772343
1759228218.363089, 0.271443, 14.398579, -0.466121, 0.040944, 2.857715, -1.393181, 57.038818, 4.220352, -223.787125, 13.727459, 100.772343
1759228218.383163, 0.933140, 15.355661, 0.288501, -0.064818, 2.335777, -1.135123, 56.123718, 4.532410, -224.069519, 13.727459, 100.772343
1759228218.402571, 1.716343, 14.220959, 0.535852, 0.158214, 2.145531, -1.092136, 54.787949, 5.444626, -222.843094, 13.727459, 100.772343
1759228218.423094, 2.041356, 11.944373, 6.554726, -0.744384, 1.500341, -1.320503, 53.528961, 6.336838, -223.223770, 13.727459, 100.772343
1759228218.443084, 0.446519, 10.459070, 12.440721, -2.800347, 0.459824, -1.460058, 52.857254, 4.696472, -222.376495, 13.727459, 100.772343
1759228218.463073, 2.176928, 10.911125, 4.165013, -2.987414, 0.135213, -1.181870, 53.032822, 2.904572, -222.187027, 13.727459, 100.772343
1759228218.483084, 3.342306, 11.780969, 1.133804, -2.685566, 0.429263, -0.717829, 52.617371, 1.245819, -221.723740, 13.727459, 100.772343
1759228218.502738, 3.503465, 12.235418, -0.166846, -2.315255, 1.014126, -0.364453, 52.449219, 0.757065, -221.788788, 13.727459, 100.772343
1759228218.523086, 3.385850, 11.147553, -0.666336, -1.930724, 1.535351, -0.305085, 51.375748, -1.430618, -221.074631, 13.727459, 100.772343
1759228218.543276, 3.195960, 9.916933, -0.946757, -1.554575, 1.562845, -0.276629, 50.343491, -2.941315, -220.872818, 13.727459, 100.772343
1759228218.563139, 2.767398, 8.983344, -0.664990, -1.423107, 1.045888, -0.098988, 49.408585, -3.709442, -220.678696, 13.727459, 100.772343
1759228218.583269, 1.472883, 8.112752, -0.568773, -1.307493, 0.418224, 0.016910, 49.496582, -4.959030, -220.763580, 13.727459, 100.772343
1759228218.602900, -1.185579, 8.172009, -1.278055, -0.880093, 0.167796, 0.088942, 49.198547, -5.390076, -220.912415, 13.727459, 100.772343
1759228218.623155, -3.396923, 7.895030, -1.531840, -0.361373, 0.031707, -0.006553, 48.947906, -5.524979, -221.152679, 13.727459, 100.772343
1759228218.643088, -4.930709, 7.931092, -0.803404, -0.036665, 0.448396, -0.268356, 49.028076, -5.240540, -221.776321, 13.727459, 100.772343
1759228218.663225, -5.082740, 7.860164, 0.690877, -0.099376, 1.096515, -0.489462, 48.491272, -5.094345, -220.698196, 13.727459, 100.772343
1759228218.683084, -3.794361, 7.934534, 1.351377, -0.031150, 1.093217, -0.530272, 47.194656, -4.753464, -220.515442, 13.727459, 100.772343
1759228218.703088, -1.967585, 7.984812, 1.309928, 0.338729, -0.085649, -0.407361, 47.212814, -4.566360, -220.914154, 13.727459, 100.772343
1759228218.723089, -0.288801, 7.521534, 0.760309, 0.552652, -1.083989, -0.172295, 48.165009, -3.929245, -221.409866, 13.727459, 100.772343
1759228218.743186, 1.095946, 7.030274, 0.527024, 0.660128, -1.176101, 0.032623, 49.095795, -3.403778, -221.610611, 13.727459, 100.772343
1759228218.763145, 0.959925, 6.996306, -0.985813, 1.064860, -0.566869, 0.128388, 49.201324, -2.539352, -221.551666, 13.727459, 100.772343
1759228218.783112, 1.965340, 6.107160, -0.831686, 1.440108, 0.114312, 0.397687, 49.014450, -1.565521, -222.008759, 13.727459, 100.772343
1759228218.803110, 1.187823, 6.584055, 1.766622, 1.386034, 0.446707, 0.583786, 48.778763, -0.557663, -221.611572, 13.727459, 100.772343
1759228218.823290, 0.530016, 7.173776, 3.268983, 1.190220, 0.664237, 0.738672, 48.521545, 0.382111, -221.695038, 13.727459, 100.772343
1759228218.843113, 0.040103, 8.536077, 4.732888, 0.855669, 0.641708, 0.925375, 48.259491, 0.434982, -221.613495, 13.727459, 100.772343
1759228218.863285, -0.905906, 10.722432, 5.620089, 0.657140, 0.566203, 0.969390, 47.577850, 1.050262, -221.172714, 13.727459, 100.772343
1759228218.883124, -3.481917, 12.663980, 7.131279, 0.416611, 0.789463, 0.728800, 47.238419, 1.160904, -221.261429, 13.727459, 100.772343
1759228218.903240, -7.112425, 13.411570, 7.175422, 0.039482, 1.435097, 0.195198, 46.952515, 1.068695, -220.754929, 13.727459, 100.772343
1759228218.923090, -9.646388, 12.235867, 6.771550, -0.586544, 1.503983, -0.380698, 45.784958, 0.605209, -220.234665, 13.727459, 100.772343
1759228218.943258, -8.733000, 9.986514, 5.121197, -0.816469, 0.303989, -0.659896, 45.742447, 0.387711, -219.913055, 13.727459, 100.772343
1759228218.963102, -4.811298, 9.504083, 2.818873, -0.699195, -0.238967, -0.561255, 46.066788, 0.123367, -219.761063, 13.727459, 100.772343
1759228218.983217, -0.968006, 10.389788, 0.127042, -0.272649, -0.142002, -0.302313, 45.903366, 0.244156, -220.484329, 13.727459, 100.772343
1759228219.003101, 0.929998, 13.738827, -0.543185, 0.026307, -0.430609, -0.138509, 46.532822, 0.251801, -220.430786, 13.727459, 100.772343
1759228219.022305, 1.252018, 16.307506, 0.238223, -0.135600, -0.062557, -0.199986, 46.092911, 0.578156, -220.411331, 13.727459, 100.772343
1759228219.043159, -1.085621, 12.033258, 2.607286, -0.585563, 0.654942, -0.467702, 45.971985, -0.061478, -220.773666, 13.727462, 100.772350
1759228219.063095, -1.803881, 7.492953, 1.189469, -0.801363, 0.801698, -0.553923, 45.321457, -0.468185, -220.761353, 13.727462, 100.772350
1759228219.083166, 2.370709, 5.867739, -1.669357, 0.238382, 0.840668, -0.412727, 44.865814, 0.040314, -220.630142, 13.727462, 100.772350
1759228219.102315, 6.920290, 6.821081, -0.926257, 1.024167, 0.632040, 0.330553, 44.195557, 0.746078, -220.573059, 13.727462, 100.772350
1759228219.123089, 6.229114, 7.969998, -0.421828, 0.669061, 1.174021, 0.886872, 43.720978, 0.922882, -220.369675, 13.727462, 100.772350
1759228219.143133, 4.165163, 9.787945, -0.869095, 0.236045, 1.877019, 1.171238, 42.313522, 1.061905, -220.598526, 13.727462, 100.772350
1759228219.163159, 1.929427, 11.583447, -1.713799, 0.368113, 2.068877, 1.096888, 40.699951, 0.886414, -219.333984, 13.727462, 100.772350
1759228219.183112, 0.279074, 12.212523, -1.675792, 0.715200, 1.273760, 1.089677, 40.113022, 1.368332, -219.744781, 13.727462, 100.772350
1759228219.203152, -1.427543, 10.572795, -1.238850, 0.894341, 0.171774, 0.986793, 39.823181, 1.720215, -219.610229, 13.727462, 100.772350
1759228219.223149, -2.644396, 9.178471, -0.532261, 0.865139, -0.170656, 0.791160, 40.552887, 2.074509, -219.887207, 13.727462, 100.772350
1759228219.243088, -3.671808, 9.021651, 0.600346, 0.663280, 0.563843, 0.525467, 40.122421, 2.880798, -220.263916, 13.727462, 100.772350
1759228219.263117, -2.469918, 9.604789, 0.223409, 0.379410, 1.535700, 0.218014, 38.898544, 2.870956, -219.643661, 13.727462, 100.772350
1759228219.283121, -0.441730, 10.023475, -0.591069, 0.249140, 1.599066, -0.008154, 37.890427, 3.186951, -219.719330, 13.727462, 100.772350
1759228219.303138, 0.881964, 9.923367, -1.117943, 0.174342, 1.086907, 0.041374, 36.808746, 3.191895, -219.500717, 13.727462, 100.772350
1759228219.322914, 0.913238, 9.911995, -1.468244, 0.173088, 0.710593, 0.176163, 36.160858, 3.222519, -219.524429, 13.727462, 100.772350
1759228219.343102, 0.592266, 9.941922, -1.770213, 0.270784, 0.658193, 0.204172, 35.924377, 3.413849, -219.194763, 13.727462, 100.772350
1759228219.363092, 0.887201, 9.617508, -1.398363, 0.388551, 1.054034, 0.294022, 34.841797, 4.005096, -219.488846, 13.727462, 100.772350
1759228219.383250, 0.660949, 9.671827, -0.874931, 0.358392, 1.468910, 0.317120, 34.251572, 4.537155, -219.428528, 13.727462, 100.772350
1759228219.403119, 0.574608, 9.584588, -0.532411, 0.213072, 1.739713, 0.391148, 33.101562, 4.445374, -219.537506, 13.727462, 100.772350
1759228219.423116, 0.040701, 9.608979, -0.534206, 0.052124, 1.705388, 0.428941, 31.707840, 4.504959, -219.821930, 13.727462, 100.772350
1759228219.443163, -0.495749, 9.656563, -0.676063, -0.070751, 1.435646, 0.424396, 30.893295, 4.074432, -219.371613, 13.727462, 100.772350
1759228219.463294, -0.997784, 9.991901, -1.070807, -0.100225, 1.120905, 0.378199, 29.694794, 4.260956, -219.717041, 13.727462, 100.772350
1759228219.483142, -1.239748, 10.101735, -1.448043, -0.022214, 0.935126, 0.351249, 29.153320, 4.001785, -219.539581, 13.727462, 100.772350
1759228219.503280, -1.457171, 10.044125, -1.688960, 0.078239, 0.853807, 0.329495, 28.860779, 4.551804, -220.042740, 13.727462, 100.772350
1759228219.523103, -1.405995, 9.513061, -1.684171, 0.164926, 0.836792, 0.327156, 28.137543, 4.452896, -219.771088, 13.727462, 100.772350
1759228219.543097, -1.274613, 9.303119, -1.427692, 0.292266, 0.878444, 0.350219, 27.042480, 4.908447, -220.353790, 13.727462, 100.772350
1759228219.563088, -1.009904, 9.702203, -0.820613, 0.369790, 1.150680, 0.347928, 26.527924, 5.256546, -220.074585, 13.727462, 100.772350
1759228219.583154, -0.417639, 9.803807, -0.312892, 0.249702, 1.385293, 0.305962, 25.802109, 5.341858, -221.016937, 13.727462, 100.772350
1759228219.603093, -0.025438, 9.592818, -0.294786, 0.044500, 1.369341, 0.335587, 25.012863, 5.376740, -220.919052, 13.727462, 100.772350
1759228219.623217, -0.124349, 9.877429, -0.541688, -0.110710, 1.088731, 0.404406, 23.839890, 5.332260, -222.034027, 13.727462, 100.772350
1759228219.643167, -0.832733, 10.201394, -0.911592, -0.172683, 0.567845, 0.447918, 23.863953, 5.487610, -221.770264, 13.727462, 100.772350
1759228219.663160, -1.556979, 10.179996, -1.108665, -0.153373, 0.056524, 0.350392, 23.685669, 5.575439, -221.856293, 13.727462, 100.772350
1759228219.683094, -1.943792, 10.034398, -1.013047, -0.099319, -0.305215, 0.170862, 23.724747, 5.742615, -222.256119, 13.727462, 100.772350
1759228219.703288, -2.209100, 10.092907, -0.905756, -0.038329, -0.297053, -0.043006, 24.103256, 5.284378, -221.858612, 13.727462, 100.772350
1759228219.723153, -2.289455, 10.119991, -0.688483, -0.050774, 0.001642, -0.253908, 24.125381, 5.557404, -222.357086, 13.727462, 100.772350
1759228219.743223, -1.911321, 10.086921, -0.627879, -0.112329, 0.516489, -0.540918, 23.584030, 5.275040, -222.782715, 13.727462, 100.772350
1759228219.763099, -0.740407, 10.420763, -0.801758, -0.178376, 1.118058, -0.696846, 22.834473, 5.049683, -222.615402, 13.727462, 100.772350
1759228219.782376, 0.375590, 10.494534, -1.012448, -0.163049, 1.565537, -0.616883, 21.271439, 4.863632, -222.753815, 13.727462, 100.772350
1759228219.803086, 1.027262, 10.260800, -0.710629, -0.044748, 1.757536, -0.613553, 20.208252, 4.772339, -223.762924, 13.727462, 100.772350
1759228219.823092, 1.572392, 9.829844, -0.062549, -0.020304, 1.930984, -0.703771, 18.497620, 4.517014, -224.568100, 13.727462, 100.772350
1759228219.843102, 2.226757, 9.854684, 0.589722, -0.125796, 2.057587, -0.722395, 17.092392, 4.325378, -225.173874, 13.727462, 100.772350
1759228219.863089, 2.716521, 10.025869, 1.294665, -0.301340, 1.986511, -0.653408, 15.533997, 3.916931, -225.538986, 13.727462, 100.772350
1759228219.883125, 2.372803, 10.564265, 2.354099, -0.506437, 1.408466, -0.557486, 14.781937, 3.437469, -226.569580, 13.727462, 100.772350
1759228219.903132, 1.931073, 10.640431, 2.945467, -0.827146, 0.404724, -0.525939, 14.681961, 2.852173, -226.574829, 13.727462, 100.772350
1759228219.923165, 1.778443, 10.404153, 2.441188, -1.246368, 0.073806, -0.498446, 14.887863, 1.891357, -226.345200, 13.727462, 100.772350
1759228219.943203, 1.706168, 10.280403, 1.389834, -1.538329, 0.275742, -0.435985, 14.458023, 0.536224, -226.177231, 13.727462, 100.772350
1759228219.963098, 1.692102, 10.126126, 0.305111, -1.584489, 0.560582, -0.428004, 14.036316, -0.760605, -226.769821, 13.727462, 100.772350
1759228219.983289, 2.029535, 9.914239, -0.382773, -1.392672, 0.995145, -0.341485, 13.373398, -1.532455, -227.694641, 13.727462, 100.772350
1759228220.003130, 2.078017, 9.738864, -0.475249, -1.146145, 1.466126, -0.290893, 12.680634, -2.396088, -228.599640, 13.727462, 100.772350
1759228220.023132, 2.068291, 9.850643, -0.447865, -0.927914, 1.757659, -0.247660, 11.095306, -2.994247, -229.304886, 13.727462, 100.772350
1759228220.043170, 1.684321, 9.816376, -0.510115, -0.724501, 1.705800, -0.150366, 10.469528, -3.608963, -230.132645, 13.727460, 100.772348
1759228220.063175, 0.864905, 9.640253, -0.786645, -0.533599, 1.295291, -0.005145, 9.873398, -3.737167, -230.448380, 13.727460, 100.772348
1759228220.083128, 0.096666, 9.779715, -1.057339, -0.209712, 0.971178, 0.017404, 9.112091, -3.683258, -230.837051, 13.727460, 100.772348
1759228220.103159, -0.386364, 9.394997, -0.908899, 0.124828, 0.733121, 0.126733, 8.456253, -3.104645, -231.342926, 13.727460, 100.772348
1759228220.122270, -1.378911, 9.090784, -1.019631, 0.378497, 0.723378, 0.138255, 7.924728, -3.047653, -232.296356, 13.727460, 100.772348
1759228220.143294, -1.357063, 8.877101, -1.063026, 0.744649, 0.772006, 0.146565, 7.731674, -2.759262, -231.898880, 13.727460, 100.772348
1759228220.163170, -1.334468, 9.195680, -0.951246, 0.909613, 0.700173, 0.149793, 7.481934, -1.902817, -232.303558, 13.727460, 100.772348
1759228220.183174, -0.941819, 9.168296, -0.566827, 0.952899, 0.721981, 0.180889, 7.384293, -1.208176, -232.949814, 13.727460, 100.772348
1759228220.203179, -0.370802, 8.818144, 0.040851, 0.874958, 0.674251, 0.267054, 6.989120, -0.770752, -233.664856, 13.727460, 100.772348
1759228220.222473, -0.309899, 8.633790, 0.252439, 0.859105, 0.628313, 0.294330, 6.508041, -0.257645, -233.515182, 13.727460, 100.772348
1759228220.243161, -0.136170, 9.111583, 0.321272, 1.018627, 0.451994, 0.531750, 6.033981, 0.819199, -233.944321, 13.727460, 100.772348
1759228220.263300, -0.235081, 10.840646, 0.521188, 1.396014, 0.020902, 0.530114, 5.847748, 1.614334, -234.435394, 13.727460, 100.772348
1759228220.283123, -0.413748, 12.536638, 2.031181, 1.675082, -0.629825, 0.067126, 5.918701, 2.580490, -234.016602, 13.727460, 100.772348
1759228220.303114, -2.653823, 12.144588, 9.168296, 0.193829, 0.190843, -0.218324, 6.001266, 2.745483, -234.089340, 13.727460, 100.772348
1759228220.322573, -0.253935, 9.906758, 2.687791, -0.606884, 0.946100, -0.070171, 5.873505, 2.521698, -234.785141, 13.727460, 100.772348
1759228220.343108, 1.121833, 7.313388, 0.289848, -0.603477, 0.915472, -0.046799, 5.012054, 2.107956, -235.347351, 13.727460, 100.772348
1759228220.362365, 1.514632, 7.727286, -0.399083, -0.016872, 0.729279, 0.024700, 5.022308, 2.401230, -235.605484, 13.727460, 100.772348
1759228220.383121, 2.135478, 8.976161, -0.112378, 0.238519, 0.775381, 0.318061, 4.502182, 2.185669, -235.529770, 13.727460, 100.772348
1759228220.403119, 1.837101, 9.496900, 0.917129, 0.173554, 0.776077, 0.534135, 4.181473, 2.976486, -236.038879, 13.727460, 100.772348
1759228220.422836, 3.751115, 10.508301, 5.805939, -0.829442, 1.032496, 0.762683, 3.716919, 2.891479, -236.628632, 13.727460, 100.772348
1759228220.443124, 2.283470, 11.877784, 4.460398, -1.824627, 0.477867, 0.667160, 3.492325, 2.355621, -236.828049, 13.727460, 100.772348
1759228220.463126, -1.102081, 12.930335, 0.095469, -1.826643, -0.425170, 0.698186, 3.811340, 2.184082, -236.523743, 13.727460, 100.772348
1759228220.482682, -4.175338, 10.117447, -4.571878, -0.862589, -1.689087, 0.306332, 4.672531, 1.851883, -235.174606, 13.727460, 100.772348
1759228220.503119, -5.850980, 8.332420, -8.197447, 0.348192, -2.990594, 0.044306, 5.726166, 2.055481, -233.498901, 13.727460, 100.772348
1759228220.522936, -5.623830, 8.974216, -5.551256, 0.845277, -1.728232, 0.130186, 7.067230, 2.400909, -232.191254, 13.727460, 100.772348
1759228220.543106, -5.176563, 9.414899, -2.232593, 1.097820, 0.970697, -0.136992, 6.608917, 2.827271, -232.948547, 13.727460, 100.772348
1759228220.563127, -3.391836, 9.472060, -0.198419, 0.867140, 2.095461, -0.638733, 5.689011, 3.464325, -233.915131, 13.727460, 100.772348
1759228220.583110, -1.079635, 9.893290, 0.002245, 1.067344, 2.432318, -0.801719, 4.467911, 3.159241, -235.789261, 13.727460, 100.772348
1759228220.603112, 0.725293, 10.947337, -0.026635, 1.753355, 2.035965, -0.685326, 3.224899, 3.714264, -237.162888, 13.727460, 100.772348
1759228220.623128, 2.210297, 11.288511, 1.968932, 1.638143, 0.647815, -0.425675, 2.969330, 4.104919, -238.557602, 13.727460, 100.772348
1759228220.643120, 4.018368, 10.224438, 6.342091, 0.253860, -0.572073, -0.009829, 3.284729, 4.367630, -238.061432, 13.727460, 100.772348
1759228220.663013, 4.026299, 9.374197, 4.748450, -0.768411, -0.552717, 0.291113, 3.684753, 4.102646, -238.094925, 13.727460, 100.772348
1759228220.683113, 2.413056, 9.581146, 1.409137, -0.995473, -0.183093, 0.408822, 3.553848, 3.746658, -237.236969, 13.727460, 100.772348
1759228220.703123, 0.856526, 10.021081, -0.429460, -0.951380, -0.039391, 0.484391, 3.547668, 3.774414, -236.961472, 13.727460, 100.772348
1759228220.723110, -0.389956, 10.029909, -1.142483, -0.814565, -0.011901, 0.444869, 3.430893, 3.421295, -236.633621, 13.727460, 100.772348
1759228220.743181, -1.001824, 9.887454, -1.659032, -0.562968, -0.078449, 0.378671, 3.950134, 3.371780, -236.845825, 13.727460, 100.772348
1759228220.763169, -1.544260, 9.867403, -1.983446, -0.229104, -0.298839, 0.241266, 3.911530, 3.251785, -236.805466, 13.727460, 100.772348
1759228220.783193, -2.135778, 9.815778, -2.148497, 0.135669, -0.479377, 0.078739, 4.654053, 3.762070, -236.393311, 13.727460, 100.772348
1759228220.803108, -2.066645, 9.870545, -1.884237, 0.401951, -0.312372, -0.015983, 4.699158, 3.699402, -236.479950, 13.727460, 100.772348
1759228220.823315, -1.663821, 9.775974, -1.216404, 0.504621, 0.051658, -0.136180, 4.584900, 3.835449, -236.100693, 13.727460, 100.772348
1759228220.842351, -0.916081, 9.787796, -0.588824, 0.536305, 0.251544, -0.199574, 4.467636, 4.036316, -236.168564, 13.727460, 100.772348
1759228220.863168, -0.303315, 9.858874, -0.183605, 0.545699, 0.178293, -0.210728, 4.471497, 4.340683, -236.645081, 13.727460, 100.772348
1759228220.883179, 0.226402, 9.815628, 0.155473, 0.502179, -0.040925, -0.176465, 4.260132, 4.121796, -236.989944, 13.727460, 100.772348
1759228220.903176, 0.658705, 9.724349, 0.410456, 0.403418, -0.238082, -0.109553, 4.208496, 4.179855, -236.357269, 13.727460, 100.772348
1759228220.923208, 0.977433, 9.766098, 0.607978, 0.219090, -0.296458, -0.037640, 4.557175, 4.473618, -236.554871, 13.727460, 100.772348
1759228220.942461, 1.022025, 9.827001, 0.661697, -0.045556, -0.220899, 0.022295, 4.839676, 4.489502, -236.605453, 13.727460, 100.772348
1759228220.963185, 0.661249, 9.838822, 0.301669, -0.236139, -0.128871, 0.044693, 4.591507, 4.556946, -236.805908, 13.727460, 100.772348
1759228220.983141, 0.371401, 9.785551, -0.390255, -0.279573, -0.122198, 0.060163, 4.530731, 3.909637, -236.600632, 13.727460, 100.772348
1759228221.003126, 0.098611, 9.643395, -1.224335, -0.199209, -0.156692, 0.059333, 4.896545, 4.467377, -236.272797, 13.727460, 100.772348
1759228221.023159, -0.036811, 9.668086, -1.448791, -0.063450, -0.160127, 0.046265, 4.822861, 4.194595, -236.318573, 13.727460, 100.772348
1759228221.042643, -0.061351, 9.680506, -1.473481, 0.073862, -0.131952, 0.023707, 5.197861, 4.393600, -236.523438, 13.727456, 100.772346
1759228221.063152, 0.084545, 9.768941, -1.196203, 0.198790, -0.100135, 0.008567, 4.912354, 4.328583, -236.442642, 13.727456, 100.772346
1759228221.083116, 0.243610, 9.700407, -0.812532, 0.264892, -0.082017, 0.006434, 4.800598, 4.516418, -236.444809, 13.727456, 100.772346
1759228221.103121, 0.260669, 9.661202, -0.442628, 0.250332, -0.065350, 0.003189, 5.012085, 4.593002, -236.424744, 13.727456, 100.772346
1759228221.122851, 0.326060, 9.673173, -0.259921, 0.179380, -0.053420, 0.003761, 5.364655, 4.529861, -236.406616, 13.727456, 100.772346
1759228221.142852, 0.423325, 9.759813, -0.257526, 0.112235, -0.075315, 0.013285, 5.242889, 4.805450, -236.565674, 13.727456, 100.772346
1759228221.163133, 0.493355, 9.767445, -0.378733, 0.056091, -0.128653, 0.023585, 5.340347, 4.706009, -236.168732, 13.727456, 100.772346
1759228221.183117, 0.546626, 9.732729, -0.608426, 0.042921, -0.129498, 0.033011, 5.373978, 4.827774, -236.200974, 13.727456, 100.772346
1759228221.203141, 0.534655, 9.688137, -0.750283, 0.040457, -0.087485, 0.047020, 4.981949, 4.932205, -236.074188, 13.727456, 100.772346
1759228221.223140, 0.372149, 9.705645, -0.828244, 0.042897, -0.040948, 0.046853, 5.292374, 4.554230, -235.812027, 13.727456, 100.772346
1759228221.243072, 0.328006, 9.755773, -0.859369, 0.058041, -0.005847, 0.040113, 5.897400, 4.986038, -236.100174, 13.727456, 100.772346
1759228221.263153, 0.301520, 9.723152, -0.798317, 0.077557, 0.014291, 0.031840, 5.582260, 5.191910, -235.638031, 13.727456, 100.772346
1759228221.283170, 0.239121, 9.688885, -0.732775, 0.084384, 0.015576, 0.024147, 5.384705, 4.925476, -235.956482, 13.727456, 100.772346
1759228221.303208, 0.272041, 9.725098, -0.732177, 0.082773, 0.012999, 0.013624, 5.475433, 4.725143, -235.849457, 13.727456, 100.772346
1759228221.323153, 0.301071, 9.730185, -0.740108, 0.084446, 0.022653, 0.019132, 5.683441, 4.968094, -236.033600, 13.727456, 100.772346
1759228221.343148, 0.204555, 9.690681, -0.734421, 0.071690, 0.016271, 0.015319, 5.607712, 4.926620, -236.079727, 13.727456, 100.772346
1759228221.363142, 0.291793, 9.708937, -0.812383, 0.063250, 0.014695, 0.014000, 5.469543, 5.393295, -235.404999, 13.727456, 100.772346
1759228221.383329, 0.411653, 9.721656, -0.889446, 0.074894, 0.021434, 0.023332, 5.173355, 4.895462, -235.672958, 13.727456, 100.772346
1759228221.403192, 0.342371, 9.695619, -0.921917, 0.099417, 0.011500, 0.037459, 5.615341, 5.270996, -236.044815, 13.727456, 100.772346
1759228221.423141, 0.204255, 9.691279, -0.888249, 0.116877, 0.041660, 0.045688, 5.248779, 5.205551, -235.706848, 13.727456, 100.772346
1759228221.443192, 0.203358, 9.652673, -0.823605, 0.121137, 0.051370, 0.052596, 5.224319, 5.371307, -235.554596, 13.727456, 100.772346
1759228221.463231, 0.223708, 9.758018, -0.808791, 0.100856, -0.002527, 0.061794, 5.327988, 5.875565, -235.502945, 13.727456, 100.772346
1759228221.483184, 0.191686, 9.741109, -0.866851, 0.083237, 0.008877, 0.060968, 5.269241, 5.792389, -235.815674, 13.727456, 100.772346
1759228221.503188, 0.161160, 9.763405, -0.891242, 0.099171, 0.040599, 0.054159, 5.207794, 5.992737, -235.821716, 13.727456, 100.772346
1759228221.523121, 0.003292, 9.913940, -0.740706, 0.095228, 0.031115, 0.046546, 5.492966, 6.068726, -235.855988, 13.727456, 100.772346
1759228221.543171, -0.126144, 9.938780, -0.634314, 0.054356, 0.013275, 0.022929, 5.122894, 5.951599, -235.346756, 13.727456, 100.772346
1759228221.563178, -0.040253, 9.732130, -0.645387, 0.016425, 0.026812, 0.002258, 5.241653, 5.719940, -235.447281, 13.727456, 100.772346
1759228221.583303, -0.010175, 9.594314, -0.750582, -0.015369, 0.075304, -0.014970, 5.425415, 5.658905, -235.562408, 13.727456, 100.772346
1759228221.603139, 0.043694, 9.703400, -0.914585, -0.056266, 0.095358, -0.037254, 5.243225, 6.009598, -235.685135, 13.727456, 100.772346
1759228221.623251, 0.182259, 9.820716, -1.114950, -0.072571, 0.097597, -0.042188, 5.218399, 5.807983, -235.850952, 13.727456, 100.772346
1759228221.643186, 0.265607, 9.598803, -1.222240, -0.041489, 0.111858, -0.043905, 5.293533, 5.699722, -235.790665, 13.727456, 100.772346
1759228221.663130, 0.265457, 9.605387, -1.200243, 0.013259, 0.086924, -0.052715, 5.269516, 6.009064, -235.907761, 13.727456, 100.772346
1759228221.682848, 0.231190, 9.777620, -1.139640, 0.019090, 0.058690, -0.051329, 5.308502, 5.602707, -235.524384, 13.727456, 100.772346
1759228221.702611, 0.140510, 9.733477, -1.117943, -0.003968, 0.090853, -0.056683, 5.114471, 5.725449, -235.333755, 13.727456, 100.772346
1759228221.723122, 0.097713, 9.463830, -1.189918, -0.011227, 0.101964, -0.068881, 5.361359, 5.883820, -235.989639, 13.727456, 100.772346
1759228221.743204, 0.151882, 9.390657, -1.237802, 0.015193, 0.082393, -0.074968, 5.437424, 5.449173, -235.356766, 13.727456, 100.772346
1759228221.763181, 0.188543, 9.441983, -1.207725, 0.033902, 0.056620, -0.075248, 5.029602, 5.536606, -236.084824, 13.727456, 100.772346
1759228221.783332, 0.139163, 9.639505, -1.090409, 0.006989, 0.036914, -0.073153, 5.522324, 5.305283, -235.202271, 13.727456, 100.772346
1759228221.803138, 0.159364, 9.642348, -1.014244, 0.009642, 0.056294, -0.075673, 5.047623, 5.343231, -235.111481, 13.727456, 100.772346
1759228221.823282, 0.267253, 9.618705, -0.895282, 0.010216, 0.048691, -0.115446, 5.087067, 5.416138, -235.544617, 13.727456, 100.772346
1759228221.843147, 0.296731, 9.747842, -0.852186, -0.059308, 0.054269, -0.124480, 4.867279, 5.286636, -236.099258, 13.727456, 100.772346
1759228221.863177, 0.242114, 9.885359, -0.982521, -0.104697, 0.016207, -0.123081, 5.150742, 5.142288, -235.581177, 13.727456, 100.772346
1759228221.883128, 0.131232, 9.966164, -1.080533, -0.079661, -0.220466, -0.081469, 5.318344, 5.176758, -235.598190, 13.727456, 100.772346
1759228221.903168, 0.034417, 9.629180, -1.144279, -0.015441, -0.381282, -0.083714, 5.286316, 5.238800, -235.151993, 13.727456, 100.772346
1759228221.923177, 0.128688, 9.400683, -1.167921, 0.042247, -0.437510, -0.068667, 5.463974, 4.871674, -235.213501, 13.727456, 100.772346
1759228221.942424, 0.265158, 9.687538, -1.016488, 0.049300, -0.368250, -0.074627, 6.056351, 5.154083, -234.781876, 13.727456, 100.772346
1759228221.963110, 0.224007, 9.744700, -0.849044, -0.057436, -0.116199, -0.018313, 5.888580, 4.881714, -235.213547, 13.727456, 100.772346
1759228221.983140, -0.122254, 10.006715, -0.713322, -0.078499, -0.192881, 0.022172, 5.864975, 4.800537, -235.036407, 13.727456, 100.772346
1759228222.003111, -0.350152, 10.170269, -0.752677, -0.111606, -0.608609, 0.065469, 5.981827, 5.192795, -235.162659, 13.727456, 100.772346
1759228222.023151, -1.240645, 10.242993, -1.009755, -0.046183, -0.878570, -0.018708, 6.423218, 4.943314, -234.413437, 13.727456, 100.772346
1759228222.042375, -2.037765, 9.309105, -1.630451, 0.114083, -0.938063, -0.158982, 6.872467, 4.765289, -233.804352, 13.727437, 100.772359
1759228222.063118, -2.620154, 8.899996, -2.554912, 0.360063, -0.397764, -0.263111, 7.536743, 4.457825, -233.383224, 13.727437, 100.772359
1759228222.082819, -2.035371, 9.687090, -2.732981, 0.484301, 0.643298, -0.423950, 7.044220, 4.822845, -233.752258, 13.727437, 100.772359
1759228222.102581, -1.724873, 9.842563, -2.595315, 0.662914, 1.613238, -0.524866, 6.615158, 4.770157, -234.376816, 13.727437, 100.772359
1759228222.123123, -1.202488, 9.782109, -1.429937, 0.770652, 1.600773, -0.486047, 5.618546, 4.760330, -235.432465, 13.727437, 100.772359
1759228222.142548, -0.335338, 9.667038, 0.318878, 0.606119, 0.836003, -0.391515, 5.184814, 5.071075, -236.156677, 13.727437, 100.772359
1759228222.163122, 0.189890, 9.655366, 1.429039, 0.232007, -0.145570, -0.138104, 4.914749, 5.240585, -236.246216, 13.727437, 100.772359
1759228222.183128, -0.243161, 9.543886, 0.285509, 0.177499, -0.294783, -0.007369, 5.326645, 4.930435, -236.071442, 13.727437, 100.772359
1759228222.202785, -0.505326, 9.696068, -1.624167, 0.285412, 0.274177, -0.013610, 5.246796, 5.316803, -236.935989, 13.727437, 100.772359
1759228222.222920, -0.832284, 9.694422, -1.619229, 0.301888, 0.481496, 0.018343, 5.134857, 5.757294, -236.900391, 13.727437, 100.772359
1759228222.242799, -1.046715, 9.506627, -0.925509, 0.295285, 0.442907, 0.033046, 4.888535, 6.182922, -237.256302, 13.727437, 100.772359
1759228222.263119, -0.847547, 9.554511, -0.221015, 0.157684, 0.314555, 0.106523, 4.609131, 5.898499, -237.266159, 13.727437, 100.772359
1759228222.282767, -0.922815, 9.446921, -0.283114, 0.067339, 0.300005, 0.144338, 4.723251, 6.032333, -237.580261, 13.727437, 100.772359
1759228222.303155, -0.916979, 9.369409, -0.890793, 0.060365, 0.110814, 0.191197, 4.695053, 6.283859, -237.745651, 13.727437, 100.772359
1759228222.322968, -0.796970, 8.999056, -1.378162, 0.088463, 0.089383, 0.203185, 4.974365, 6.608505, -238.138489, 13.727437, 100.772359
1759228222.342986, -0.672920, 9.149591, -1.186626, 0.047963, 0.139728, 0.235708, 5.081787, 6.571060, -237.390610, 13.727437, 100.772359
1759228222.363130, -0.689231, 9.829245, -1.454777, 0.058812, 0.189614, 0.274695, 5.241989, 6.744232, -237.618713, 13.727437, 100.772359
1759228222.383126, -0.613514, 10.028862, -1.843086, 0.103356, 0.224966, 0.338196, 5.224121, 6.885315, -237.790314, 13.727437, 100.772359
1759228222.403139, -0.569221, 10.049811, -2.104653, 0.166342, 0.218623, 0.437129, 5.099945, 7.241364, -238.198837, 13.727437, 100.772359
1759228222.423126, -0.839766, 9.679608, -2.401684, 0.232966, 0.130436, 0.522238, 5.472961, 7.698486, -238.331985, 13.727437, 100.772359
1759228222.443114, -1.331924, 9.131934, -2.695572, 0.344077, -0.019586, 0.533547, 5.692474, 8.206146, -238.303101, 13.727437, 100.772359
1759228222.463130, -1.646463, 9.751284, -2.377293, 0.403599, -0.090049, 0.492826, 5.887222, 8.630661, -238.770370, 13.727437, 100.772359
1759228222.483126, -1.448342, 11.439346, -2.289455, 0.321809, 0.038564, 0.372008, 5.780212, 8.843262, -238.659637, 13.727437, 100.772359
1759228222.503148, -1.575385, 12.610559, -2.193388, 0.073386, -0.227036, 0.240271, 5.982056, 8.867386, -238.529602, 13.727437, 100.772359
1759228222.523124, -2.454206, 13.628394, -1.211616, -0.052155, -0.338993, 0.070400, 5.939499, 8.637939, -239.056778, 13.727437, 100.772359
1759228222.543128, -3.399617, 14.132374, -0.993294, 0.001003, -0.492393, -0.094638, 6.230103, 8.691254, -238.798141, 13.727437, 100.772359
1759228222.563132, -3.377470, 14.751574, -0.131831, -0.001304, -0.744524, -0.189565, 7.073761, 8.620621, -238.620377, 13.727437, 100.772359
1759228222.583140, -2.634819, 14.050223, 1.127370, -0.420214, -0.529840, -0.341644, 7.399872, 8.371933, -238.186615, 13.727437, 100.772359
1759228222.603141, -1.641525, 12.942605, 2.028038, -1.047388, -0.556686, -0.470587, 7.480118, 7.732864, -238.180542, 13.727437, 100.772359
1759228222.623136, -1.469890, 12.159552, 2.079514, -1.588576, -0.895365, -0.632793, 8.202698, 6.819946, -237.644791, 13.727437, 100.772359
1759228222.643129, -2.278233, 11.504887, 1.777994, -1.973984, -1.041178, -0.919106, 8.852600, 5.107132, -237.059250, 13.727437, 100.772359
1759228222.662776, -3.167978, 11.295694, 1.184232, -2.158205, -0.840579, -1.247047, 9.160690, 3.843582, -236.808960, 13.727437, 100.772359
1759228222.683200, -2.913893, 13.011139, 1.112406, -2.229388, -0.251078, -1.443675, 9.111755, 2.184296, -236.723785, 13.727437, 100.772359
1759228222.703141, -2.006491, 14.507366, 0.528520, -2.109026, 0.011294, -1.410266, 9.316589, 0.851242, -237.101822, 13.727437, 100.772359
1759228222.723208, -0.372448, 14.424915, -1.167921, -2.136660, 0.614273, -1.186035, 9.348557, -0.392059, -237.506500, 13.727437, 100.772359
1759228222.743153, 1.004218, 13.203424, -3.644723, -1.773390, 0.966545, -1.042267, 8.671402, -1.815933, -237.836227, 13.727437, 100.772359
1759228222.763167, 3.088071, 11.800870, -3.718345, -1.261565, 1.581348, -0.828090, 8.128906, -2.605362, -238.612183, 13.727437, 100.772359
1759228222.783131, 2.755427, 11.002554, -2.596362, -0.556963, 1.063588, -0.959869, 7.530334, -3.169571, -240.253723, 13.727437, 100.772359
1759228222.803159, 1.085172, 10.413580, -0.420033, -0.150976, 0.260097, -1.316140, 7.596481, -3.917618, -240.575150, 13.727437, 100.772359
1759228222.823157, -4.961534, 10.879552, 3.064877, -0.623513, 1.432623, -2.047244, 7.112106, -4.782501, -241.533997, 13.727437, 100.772359
1759228222.843198, -4.543447, 10.834810, 0.780061, -1.244575, 3.387486, -2.817657, 6.146301, -6.557175, -243.454453, 13.727437, 100.772359
1759228222.863148, -0.864008, 8.766070, 0.053121, -1.295595, 3.355454, -1.999225, 4.924255, -8.050476, -245.796371, 13.727437, 100.772359
1759228222.883200, -5.650166, 8.566902, -1.803133, -0.986958, -0.596580, -1.536753, 4.885757, -9.016647, -245.759262, 13.727437, 100.772359
1759228222.903204, -7.211934, 8.188319, 1.126472, -0.717918, -2.136999, -2.321557, 5.985107, -9.964432, -244.933212, 13.727437, 100.772359
1759228222.923170, -3.906439, 8.479664, 1.071256, -1.537167, -2.830493, -2.205561, 7.129364, -11.568268, -244.016907, 13.727437, 100.772359
1759228222.943141, -3.821595, 8.907627, 0.039504, -1.738394, -3.242638, -2.154265, 7.884216, -13.471100, -242.267975, 13.727437, 100.772359
1759228222.962871, -2.266860, 8.589797, 0.009278, -1.590937, -3.011977, -2.045704, 9.297791, -14.538620, -241.304413, 13.727437, 100.772359
1759228222.983232, 1.738190, 7.215974, 0.215927, -1.454577, -3.059114, -1.657705, 10.606522, -15.997971, -239.757034, 13.727437, 100.772359
1759228223.003158, 3.149423, 4.718672, -0.865953, -1.239150, -2.628777, -1.234725, 11.978622, -16.860275, -239.550934, 13.727437, 100.772359
1759228223.023132, 2.616414, 2.790143, -0.382025, -0.915654, -2.013489, -0.859604, 13.096634, -17.362534, -238.340225, 13.727437, 100.772359
1759228223.042693, 1.980903, 2.114379, 0.052224, -0.454210, -1.468306, -0.500986, 13.356033, -17.608780, -238.410446, 13.727419, 100.772369
1759228223.063001, 1.662623, 2.430115, 0.205452, 0.059616, -0.927589, -0.202078, 13.996567, -17.360443, -237.570358, 13.727419, 100.772369
1759228223.083142, 1.628506, 2.432060, 1.025167, 0.558549, -0.463756, 0.145102, 13.925964, -17.733963, -237.145523, 13.727419, 100.772369
1759228223.103177, 0.591667, 2.765901, 1.916708, 0.906493, 0.020831, 0.416993, 13.837967, -17.282013, -237.458466, 13.727419, 100.772369
1759228223.123158, -1.364246, 3.128473, 2.130989, 1.315825, 0.917292, 0.631430, 13.314621, -15.968704, -237.484436, 13.727419, 100.772369
1759228223.143148, -2.374599, 3.850325, 2.684199, 1.680196, 1.909100, 0.972627, 12.225708, -15.012924, -237.895798, 13.727419, 100.772369
1759228223.163218, -4.742465, 5.522974, 5.374983, 1.638501, 2.617969, 1.257708, 10.728104, -13.632751, -238.591599, 13.727419, 100.772369
1759228223.183330, -11.028740, 10.310480, 5.158756, 1.729928, 2.237859, 0.617619, 10.059708, -12.712540, -238.672119, 13.727419, 100.772369
1759228223.203178, -4.214393, 20.592379, 2.461838, 1.518818, 1.707709, 0.846304, 8.659470, -11.552460, -239.362503, 13.727419, 100.772369
1759228223.223341, -5.020192, 27.108199, 2.356792, 1.090965, 0.574962, 1.408986, 8.224487, -10.491653, -239.890594, 13.727419, 100.772369
1759228223.243207, -3.960159, 12.426056, 3.761740, 0.107600, 0.116610, 0.786510, 8.357620, -10.124130, -239.462234, 13.727419, 100.772369
1759228223.263174, -1.695993, 4.693533, 2.375796, 0.391073, 0.532111, 0.593995, 7.640488, -10.029007, -239.623444, 13.727419, 100.772369
1759228223.283138, -0.122404, 3.022231, 1.307982, 0.993693, 0.916277, 0.716839, 7.366974, -9.373779, -239.713974, 13.727419, 100.772369
1759228223.303245, 0.898275, 5.271284, 0.890643, 1.393885, 1.670610, 1.066606, 6.634659, -8.166550, -240.675339, 13.727419, 100.772369
1759228223.323132, 0.643891, 9.684995, -0.972944, 1.777178, 2.341513, 1.444347, 5.316559, -6.691971, -241.568130, 13.727419, 100.772369
1759228223.343152, -1.382951, 14.582933, -0.462081, 1.705936, 2.619716, 1.746843, 4.320068, -5.380096, -242.759979, 13.727419, 100.772369
1759228223.363158, -3.753210, 16.720506, 1.392228, 1.114179, 2.802356, 1.419290, 3.389648, -3.780746, -244.476929, 13.727419, 100.772369
1759228223.383163, -3.648165, 13.648446, 1.507150, 0.373814, 2.018914, 1.426362, 3.169662, -3.184158, -245.931046, 13.727419, 100.772369
1759228223.403150, -4.028394, 10.764929, 1.784279, -0.080891, 0.703872, 1.440531, 2.600586, -1.940109, -246.454071, 13.727419, 100.772369
1759228223.423168, -2.913145, 8.934562, 0.674417, -0.289981, -0.230006, 1.371374, 2.952759, -1.705826, -246.053986, 13.727419, 100.772369
1759228223.443145, -1.787122, 8.265981, -0.506074, -0.433469, -0.797431, 1.385082, 2.927429, -0.837448, -245.602417, 13.727419, 100.772369
1759228223.463217, -1.477372, 9.348310, -0.883760, -0.625783, -1.362106, 1.430663, 3.453506, -0.094772, -245.292480, 13.727419, 100.772369
1759228223.483138, -2.365022, 10.141240, -1.354220, -0.748747, -1.579499, 1.414668, 4.034897, 0.761810, -244.377213, 13.727419, 100.772369
1759228223.503165, -3.056049, 9.977087, -1.892766, -0.162769, -1.016724, 1.332386, 4.016983, 1.722992, -243.618179, 13.727419, 100.772369
1759228223.523161, -4.138527, 8.888025, -1.906682, 0.411656, -0.641859, 1.158946, 4.411072, 2.247925, -242.992218, 13.727419, 100.772369
1759228223.543156, -5.009418, 8.251915, -2.284966, 0.787219, -0.897547, 0.744938, 4.375916, 2.522903, -242.758423, 13.727419, 100.772369
1759228223.562613, -4.472818, 7.591116, -2.947711, 1.322213, -0.764802, 0.425684, 4.805573, 3.427704, -241.950317, 13.727419, 100.772369
1759228223.583164, -3.565116, 7.294534, -1.306636, 1.625374, 0.296931, 0.115088, 4.506454, 4.257019, -242.823425, 13.727419, 100.772369
1759228223.603155, -1.604414, 6.958747, 0.841412, 1.337215, 1.801809, 0.038354, 4.303192, 4.554581, -243.937851, 13.727419, 100.772369
1759228223.622370, -1.156549, 7.483526, 2.217629, 0.972436, 1.987248, -0.009911, 3.613739, 4.996552, -245.277466, 13.727419, 100.772369
1759228223.643132, -0.139313, 8.712201, 2.969558, 0.442731, -0.524341, 0.138826, 3.833832, 4.878006, -245.779663, 13.727419, 100.772369
1759228223.663135, -0.438139, 9.096620, 1.016339, 0.079407, -0.634024, 0.301160, 3.870255, 5.413788, -244.679169, 13.727419, 100.772369
1759228223.683145, -1.328632, 9.242666, -2.151041, 0.165803, 0.459740, 0.280930, 3.968948, 5.374222, -245.071060, 13.727419, 100.772369
1759228223.703159, -1.681478, 8.689755, -2.729091, 0.324117, 0.482418, 0.389295, 3.604126, 6.030075, -245.184006, 13.727419, 100.772369
1759228223.723146, -0.873584, 8.479065, 0.098162, 0.165438, 0.148907, 0.522700, 4.108856, 6.354248, -245.335144, 13.727419, 100.772369
1759228223.743163, -1.410185, 9.528623, 0.070030, 0.104241, -0.152401, 0.622183, 3.854218, 6.695618, -245.259689, 13.727419, 100.772369
1759228223.762231, -1.287482, 11.069891, -0.853234, 0.156409, -0.345517, 0.705256, 4.156540, 7.081512, -245.486176, 13.727419, 100.772369
1759228223.782734, -1.548001, 12.711864, -1.483058, 0.453777, -0.541013, 0.891246, 4.483566, 7.647018, -245.528976, 13.727419, 100.772369
1759228223.803172, -2.226907, 13.967174, -1.607258, 0.524552, -0.580258, 0.744359, 4.536301, 8.612671, -244.612000, 13.727419, 100.772369
1759228223.823170, -3.632453, 12.902802, -2.545036, 0.425403, -0.638829, 0.483670, 4.913681, 8.911682, -244.575958, 13.727419, 100.772369
1759228223.843150, -3.355474, 13.387179, -2.150143, 0.388139, -0.435676, 0.320733, 4.944031, 9.590103, -244.131927, 13.727419, 100.772369
1759228223.862336, -2.122460, 15.624410, -1.067964, 0.507913, -0.671157, -0.077492, 5.237061, 10.093201, -243.657532, 13.727419, 100.772369
1759228223.882623, -0.730980, 16.237176, 1.336413, 0.409251, -1.166613, -0.302800, 5.372894, 9.803452, -243.445099, 13.727419, 100.772369
1759228223.903140, -0.840963, 13.885322, 4.758027, -0.551541, -0.834913, -0.385563, 4.995041, 9.764893, -242.430405, 13.727419, 100.772369
1759228223.923164, -2.294992, 11.471967, 5.511153, -1.363425, -0.770996, -0.618176, 5.091095, 9.166550, -241.570541, 13.727419, 100.772369
1759228223.943145, -2.725649, 10.291326, 2.139967, -1.577593, -0.994268, -0.930037, 5.096008, 8.259537, -240.594604, 13.727419, 100.772369
1759228223.962592, -2.949656, 9.902568, 0.221314, -1.609178, -0.797368, -1.248734, 5.394943, 7.420227, -240.463806, 13.727419, 100.772369
1759228223.983159, -1.978508, 10.701034, -0.599897, -1.516604, -0.235557, -1.398326, 5.436386, 5.747650, -239.453705, 13.727419, 100.772369
1759228224.003157, -1.116297, 12.668020, -0.678607, -1.573565, 0.549944, -1.564929, 4.867477, 4.825607, -239.211258, 13.727419, 100.772369
1759228224.023152, -1.386093, 13.499108, -0.128838, -1.855497, 1.123881, -1.733925, 4.398224, 3.208588, -239.401688, 13.727419, 100.772369
1759228224.043153, -1.133954, 12.800749, -0.710030, -1.759975, 0.924909, -1.602434, 3.516159, 1.345566, -239.867661, 13.727490, 100.772391
1759228224.062706, -0.399532, 10.751312, -2.261024, -1.127697, 0.533310, -1.337668, 2.875870, 0.077454, -239.913681, 13.727490, 100.772391
1759228224.082531, 0.469264, 10.551845, -3.098396, -0.282888, 0.567073, -1.372932, 2.773956, -0.849152, -240.235764, 13.727490, 100.772391
1759228224.103158, -0.716016, 10.859799, -2.721309, 0.193973, 1.346970, -1.834775, 2.541702, -2.135818, -240.099121, 13.727490, 100.772391
1759228224.123218, -2.144756, 10.814459, 1.355417, -0.440029, 1.843009, -2.116672, 2.111755, -3.406815, -241.876999, 13.727490, 100.772391
1759228224.143182, -4.349067, 10.765977, 3.861099, -1.392103, 0.519320, -2.426981, 1.479477, -4.995804, -242.106842, 13.727490, 100.772391
1759228224.162906, -2.801665, 10.609306, 1.609502, -1.363834, -0.414197, -2.186381, 1.832718, -7.088364, -241.782028, 13.727490, 100.772391
1759228224.183150, -1.936311, 8.949675, -0.543633, -0.992676, -1.142295, -2.067933, 2.157333, -9.000946, -241.119659, 13.727490, 100.772391
1759228224.203226, -1.690007, 8.147019, 0.700753, -1.199767, -2.631136, -1.969885, 3.383820, -10.095840, -240.160919, 13.727490, 100.772391
1759228224.223171, -3.648913, 8.071452, 0.218621, -1.365947, -2.585139, -2.188763, 5.084045, -12.112213, -238.737411, 13.727490, 100.772391
1759228224.243179, -2.769343, 8.213907, -0.470610, -1.252077, -1.551704, -2.078226, 6.142654, -13.842117, -237.339828, 13.727490, 100.772391
1759228224.263075, 0.108188, 7.989301, 0.321571, -1.112058, -1.954016, -1.727417, 7.153275, -15.460388, -236.778137, 13.727490, 100.772391
1759228224.283161, 1.782333, 7.007828, 0.131382, -1.031451, -1.904399, -1.346550, 8.582199, -16.597488, -236.405792, 13.727490, 100.772391
1759228224.303030, 1.656039, 4.857835, -0.811185, -0.810566, -1.503183, -0.944037, 9.414352, -17.528412, -235.903702, 13.727490, 100.772391
1759228224.323212, 0.779013, 2.598607, -0.162207, -0.450829, -1.233157, -0.437935, 10.483734, -17.599396, -234.933426, 13.727490, 100.772391
1759228224.343170, 0.131681, 1.881992, 0.065691, 0.000435, -0.999041, 0.039574, 11.221512, -17.827774, -234.397049, 13.727490, 100.772391
1759228224.362558, 0.248997, 1.801487, -0.052373, 0.488189, -0.680846, 0.500922, 11.339294, -17.495422, -234.243378, 13.727490, 100.772391
1759228224.383174, 1.015142, 1.689558, -0.082151, 0.950127, 0.012722, 1.040681, 11.461533, -16.678711, -234.549438, 13.727490, 100.772391
1759228224.403161, 1.222390, 1.451784, -0.434997, 1.542850, 1.041585, 1.602015, 10.370758, -15.162689, -234.344635, 13.727490, 100.772391
1759228224.423175, 0.605733, 1.314267, -0.115071, 1.958479, 2.280255, 1.659890, 8.858032, -13.952042, -234.320831, 13.727490, 100.772391
1759228224.443180, -9.999383, 2.049437, 15.728259, 1.734502, 4.505750, 0.092037, 6.844086, -12.579178, -235.582489, 13.727490, 100.772391
1759228224.463171, -11.606641, 19.449148, -9.666739, 2.175391, 2.249815, 0.568847, 6.104156, -11.889893, -237.051270, 13.727490, 100.772391
1759228224.483195, 0.317980, 31.898098, 6.042965, 1.215050, 1.588554, 1.196043, 4.824341, -10.571518, -237.941483, 13.727490, 100.772391
1759228224.503284, -9.520693, 21.312884, 1.953369, -0.329562, -0.618800, 0.688964, 4.798157, -10.158524, -237.998322, 13.727490, 100.772391
1759228224.523224, -3.881749, 3.648464, 1.291073, -0.108146, 0.318571, 0.435807, 4.714279, -10.000443, -237.776459, 13.727490, 100.772391
1759228224.543227, -1.774403, 1.989282, 2.511218, 0.645465, 0.215024, 0.635666, 4.256683, -9.277634, -237.403763, 13.727490, 100.772391
1759228224.563218, 0.372598, 5.605574, 0.881066, 1.216990, 0.688729, 1.061499, 4.393463, -8.293625, -238.127441, 13.727490, 100.772391
1759228224.582427, 0.089483, 8.047959, 0.133327, 1.523108, 1.771469, 1.391800, 3.373672, -6.890884, -238.621780, 13.727490, 100.772391
1759228224.603175, -1.560571, 14.762049, 1.218948, 1.172046, 2.340502, 1.493807, 2.262390, -5.666138, -239.876694, 13.727490, 100.772391
1759228224.623349, -1.797297, 13.892505, 1.319355, 0.543670, 2.228671, 1.457875, 1.343658, -4.390778, -241.520508, 13.727490, 100.772391
1759228224.643184, -2.121412, 10.981156, 0.997784, 0.172174, 1.493914, 1.288072, 0.257828, -3.327011, -242.278442, 13.727490, 100.772391
1759228224.663264, -1.691653, 9.700108, 0.232537, 0.067385, 0.792979, 1.182744, 0.383331, -2.589203, -242.906097, 13.727490, 100.772391
1759228224.683173, -0.785897, 9.146748, -0.290447, -0.079805, 0.308085, 1.329049, 0.239029, -1.645767, -242.903549, 13.727490, 100.772391
1759228224.703355, -0.200365, 8.450335, -0.499191, -0.341866, -0.137561, 1.596707, 0.079422, -0.915161, -242.840637, 13.727490, 100.772391
1759228224.723189, -1.402703, 9.091532, -0.675763, -0.721395, -0.877885, 1.798051, 0.202072, 0.493683, -242.514420, 13.727490, 100.772391
1759228224.743178, -4.177433, 11.201572, -1.122581, -0.877087, -1.084225, 1.788442, 1.022461, 0.940979, -241.283829, 13.727490, 100.772391
1759228224.763352, -6.906973, 12.152070, -1.596334, -0.273734, -0.426712, 1.587725, 1.084122, 1.970474, -241.291443, 13.727490, 100.772391
1759228224.782764, -6.862381, 10.011803, -1.378611, 0.211483, -0.540217, 1.255531, 1.211380, 2.795242, -240.802338, 13.727490, 100.772391
1759228224.802388, -5.356128, 8.707412, -1.011999, 0.418478, -0.518224, 0.908495, 1.643890, 3.599945, -239.868408, 13.727490, 100.772391
1759228224.822940, -4.106804, 8.120533, -0.448763, 0.478825, -0.443296, 0.587669, 1.985611, 4.113358, -239.754578, 13.727490, 100.772391
1759228224.843221, -2.556858, 7.462577, 0.044891, 0.516057, -0.063395, 0.400902, 2.149933, 4.425583, -240.065872, 13.727490, 100.772391
1759228224.863351, -1.794155, 7.394043, 0.020650, 0.587664, 0.196285, 0.183988, 1.869720, 4.962616, -240.306595, 13.727490, 100.772391
1759228224.882944, -1.210568, 7.780407, -0.021249, 0.627023, 0.383777, 0.151615, 2.267975, 5.229370, -240.213455, 13.727490, 100.772391
1759228224.903360, -0.828693, 7.816171, -1.045817, 0.851058, 0.276461, 0.173879, 2.131058, 5.539505, -241.193497, 13.727490, 100.772391
1759228224.923174, -0.113575, 8.834155, 0.390853, 0.893920, 0.974865, 0.111040, 1.382538, 6.208008, -241.395889, 13.727490, 100.772391
1759228224.943280, -0.469264, 9.025093, 0.741754, 0.610610, 1.233305, 0.142190, 1.387939, 6.276047, -242.390198, 13.727490, 100.772391
1759228224.963172, -0.513407, 9.086893, 0.198719, 0.447925, 0.649859, 0.119377, 0.941605, 6.053040, -242.929550, 13.727490, 100.772391
1759228224.983188, -0.484826, 9.462035, -0.901417, 0.424519, 0.147821, 0.260436, 1.243988, 6.432083, -243.532578, 13.727490, 100.772391
1759228225.003237, -0.684891, 10.417620, -1.900547, 0.425853, 0.295308, 0.493704, 1.282867, 6.863266, -243.547485, 13.727490, 100.772391
1759228225.023183, -1.205929, 11.984625, -2.230049, 0.442856, 0.217829, 0.806147, 1.348801, 7.828720, -243.143585, 13.727474, 100.772394
1759228225.043235, -2.818424, 11.719019, -1.338359, 0.397099, -0.157872, 1.009678, 1.643356, 8.308304, -243.555664, 13.727474, 100.772394
1759228225.063166, -3.387795, 11.088595, -0.688183, 0.347280, -0.587645, 1.106171, 2.082886, 9.185074, -243.074753, 13.727474, 100.772394
1759228225.083180, -3.421314, 11.392509, -0.387112, 0.344395, -0.906497, 1.083369, 2.370605, 10.142151, -241.809464, 13.727474, 100.772394
1759228225.103218, -4.029441, 12.240955, -1.439364, 0.318280, -1.155565, 0.800243, 2.857727, 10.553909, -241.656433, 13.727474, 100.772394
1759228225.123228, -3.026121, 13.202077, -1.394922, 0.117779, -1.054078, 0.456566, 3.540710, 10.706787, -241.365433, 13.727474, 100.772394
1759228225.143265, -1.183334, 15.546150, -0.559046, -0.076761, -1.076833, 0.145072, 4.204590, 10.895218, -240.785446, 13.727474, 100.772394
1759228225.163176, 0.811335, 16.725294, 1.371878, -0.079707, -1.580639, -0.283053, 4.693787, 10.682556, -239.749176, 13.727474, 100.772394
1759228225.183183, 2.159570, 14.676456, 4.355352, -0.345728, -1.684069, -0.425928, 5.204880, 10.485153, -239.291229, 13.727474, 100.772394
1759228225.203168, 1.714548, 12.789975, 6.850110, -1.397178, -0.773946, -0.387635, 5.515900, 9.407181, -237.647858, 13.727474, 100.772394
1759228225.223215, -0.083498, 11.182717, 2.880075, -1.939255, 0.554655, -0.545353, 5.198700, 8.382492, -237.924805, 13.727474, 100.772394
1759228225.243238, -2.360234, 10.606463, 1.096395, -2.022286, 0.815265, -0.891177, 5.089127, 6.907486, -237.570343, 13.727474, 100.772394
1759228225.263225, -2.497003, 10.676194, -0.684442, -1.910023, 0.778549, -1.079650, 4.443298, 5.744186, -238.255371, 13.727474, 100.772394
1759228225.283182, -5.443068, 9.100361, -2.399589, -1.507632, 0.480742, -1.283170, 4.170898, 4.063263, -238.467346, 13.727474, 100.772394
1759228225.303366, -5.677999, 13.582755, -2.372205, -1.005424, 1.654532, -2.333064, 3.370209, 2.312515, -239.501846, 13.727474, 100.772394
1759228225.323234, 0.740257, 13.726108, -2.289904, -0.646702, 2.896032, -1.904083, 2.012238, 0.852966, -240.904449, 13.727474, 100.772394
1759228225.343176, 1.046266, 10.477475, -1.184980, -0.083468, 2.522368, -1.645280, 1.442856, -0.261765, -242.843628, 13.727474, 100.772394
1759228225.363234, 0.280870, 9.460688, 1.334468, 0.185589, 1.020687, -2.140965, 1.146683, -1.681290, -243.878387, 13.727474, 100.772394
1759228225.383178, -1.268628, 9.299079, 1.526902, -0.332576, -0.178706, -2.448574, 1.215744, -3.085495, -243.856964, 13.727474, 100.772394
1759228225.403165, -3.855413, 10.145579, 0.810288, -1.195989, -1.078424, -2.637547, 2.122009, -4.890869, -243.305832, 13.727474, 100.772394
1759228225.423189, -5.091270, 10.190470, 0.075866, -1.118924, -1.612738, -2.470674, 2.336945, -6.927856, -242.412994, 13.727474, 100.772394
1759228225.443217, -2.897134, 9.022699, 0.587926, -0.919665, -1.835790, -2.206468, 3.530899, -9.152054, -241.654312, 13.727474, 100.772394
1759228225.463278, -1.168221, 8.240842, -0.011821, -0.941349, -1.967616, -2.148153, 4.182114, -10.400269, -241.132187, 13.727474, 100.772394
1759228225.483221, -0.207697, 7.692570, -0.651971, -0.935380, -1.837540, -1.991716, 5.243103, -11.652954, -240.550629, 13.727474, 100.772394
1759228225.503253, 0.073173, 7.633762, 0.152481, -1.025261, -1.633709, -1.829472, 6.575806, -13.110184, -239.770920, 13.727474, 100.772394
1759228225.523230, -0.356287, 7.160608, 0.818817, -0.980648, -1.377738, -1.828456, 7.324142, -14.020477, -239.156158, 13.727474, 100.772394
1759228225.543204, 0.702997, 6.259341, 1.164480, -0.918845, -1.374064, -1.562380, 8.862411, -15.226013, -239.025269, 13.727474, 100.772394
1759228225.563235, 1.442955, 5.240758, 0.698209, -0.590892, -1.200338, -1.103235, 9.057266, -16.389755, -238.610641, 13.727474, 100.772394
1759228225.583202, 1.084274, 4.212747, 0.619200, -0.248778, -0.882977, -0.567105, 10.164841, -16.812851, -238.845627, 13.727474, 100.772394
1759228225.603227, 0.737713, 3.291578, 0.327108, 0.181231, -0.569981, 0.024644, 10.708420, -16.848557, -238.027359, 13.727474, 100.772394
1759228225.623366, 0.814627, 2.159720, -0.042946, 0.544179, -0.061455, 0.659410, 10.411697, -16.166275, -237.840622, 13.727474, 100.772394
1759228225.643209, 0.933439, 1.465700, 0.558597, 0.917721, 0.959843, 1.306821, 9.937881, -15.704132, -238.067261, 13.727474, 100.772394
1759228225.663198, 0.786795, 1.073799, 0.836025, 1.277220, 2.200891, 1.694936, 8.854645, -14.918427, -238.605103, 13.727474, 100.772394
1759228225.682387, -3.484312, 1.844433, 7.063643, 1.297158, 3.815460, 1.110742, 7.580902, -13.805298, -239.645493, 13.727474, 100.772394
1759228225.703205, -13.307721, 10.548853, -3.137302, 2.181882, 2.231317, 1.074556, 5.756790, -12.543915, -240.978973, 13.727474, 100.772394
1759228225.723238, -4.807108, 21.439477, 2.750938, 1.074526, 2.454857, 1.055648, 4.940445, -11.671860, -241.926804, 13.727474, 100.772394
1759228225.743266, -5.879261, 27.943176, 0.851139, 0.536763, -0.480580, 1.164006, 4.621643, -10.438629, -241.982071, 13.727474, 100.772394
1759228225.763237, -6.321740, 12.139500, 2.291850, 0.087447, 0.151449, 0.882268, 4.160263, -9.847717, -241.911255, 13.727474, 100.772394
1759228225.782538, -2.725649, 5.175217, -0.286706, 0.701752, 0.678123, 1.029158, 3.935211, -9.157684, -241.747375, 13.727474, 100.772394
1759228225.803202, -1.729362, 5.416881, 1.798943, 1.179500, 0.740916, 1.089573, 3.579544, -7.984741, -242.092957, 13.727474, 100.772394
1759228225.823214, -0.238672, 7.938275, 0.123451, 1.415574, 1.009864, 1.515503, 3.460510, -7.181320, -242.902847, 13.727474, 100.772394
1759228225.843184, 1.154604, 11.422586, -0.232387, 1.266575, 1.755373, 1.917272, 2.736908, -5.640305, -243.205414, 13.727474, 100.772394
1759228225.863365, -0.953940, 12.640637, -0.058359, 0.971589, 2.023879, 1.789256, 2.393600, -4.128387, -244.420135, 13.727474, 100.772394
1759228225.882740, -1.867328, 13.026552, 0.289249, 0.357982, 1.497487, 1.383424, 1.705460, -2.681122, -245.765121, 13.727474, 100.772394
1759228225.903349, -1.393725, 10.889877, 0.209044, -0.078451, 0.615043, 1.401674, 1.598099, -1.835876, -245.979065, 13.727474, 100.772394
1759228225.923226, -2.131288, 10.454730, 0.068983, -0.278018, -0.022126, 1.472602, 1.598297, -0.910858, -246.653641, 13.727474, 100.772394
1759228225.943211, -1.861342, 10.292523, 0.011971, -0.456923, -0.294908, 1.679441, 1.770432, 0.249130, -246.298386, 13.727474, 100.772394
1759228225.963190, -1.241094, 9.491962, -0.196624, -0.541866, -0.349935, 1.828218, 1.727798, 1.369781, -245.805145, 13.727474, 100.772394
1759228225.982907, -1.204882, 8.648605, -0.739808, -0.462299, -0.485427, 1.705065, 2.398071, 2.695084, -246.083878, 13.727474, 100.772394
1759228226.003187, -1.821539, 8.844181, -0.883760, -0.552926, -1.027691, 1.454093, 2.505920, 3.281494, -246.252136, 13.727474, 100.772394
1759228226.023239, -3.239953, 9.353098, -1.119140, -0.344853, -1.471805, 1.238140, 2.938141, 4.352295, -244.727081, 13.727474, 100.772394
1759228226.043206, -5.096806, 9.417293, -1.499518, 0.201548, -1.306292, 0.966954, 3.447952, 5.290771, -244.256912, 13.727474, 100.772394
1759228226.063389, -6.012738, 8.727464, -1.025167, 0.417127, -1.198721, 0.730221, 3.765778, 5.565430, -243.396835, 13.727457, 100.772395
1759228226.083055, -5.479729, 7.551013, -0.405817, 0.430322, -0.729955, 0.319578, 4.168793, 5.992111, -242.524490, 13.727457, 100.772395
