SamplingTime, AccelerationX, AccelerationY, AccelerationZ, GyroX, GyroY, GyroZ, MagneticFieldX, MagneticFieldY, MagneticFieldZ, Latitude, Longitude
1759228314.766112, 0.631471, -1.053299, -7.006482, -0.114474, -0.436170, 0.058950, 104.903107, 167.375198, -587.916443, , 
1759228314.785607, -0.106841, -1.142333, -8.056339, 0.237597, -0.467645, -0.019650, 104.907593, 167.253479, -588.127625, , 
1759228314.806102, -1.421258, -1.662923, -6.978350, 0.083439, -0.449943, -0.187715, 104.390137, 167.231979, -588.114258, , 
1759228314.826124, 0.260070, -2.809446, -6.273706, -0.026566, -1.304131, -0.377191, 104.195557, 167.141800, -588.674927, , 
1759228314.845963, 0.031274, -1.569250, -6.044012, 0.118889, -2.455702, -0.315835, 103.510269, 167.245575, -588.896301, , 
1759228314.866127, -1.035791, -1.105822, -7.331794, 0.171925, -2.782890, -0.332301, 102.532440, 167.195053, -589.860352, , 
1759228314.885641, -3.022829, -2.417395, -9.022399, 0.014851, -2.234390, -0.816896, 101.433685, 167.316711, -590.019165, , 
1759228314.906119, -3.179051, -1.662773, -9.330054, -0.044223, -1.708792, -1.051408, 100.508362, 167.189819, -590.045410, , 
1759228314.926125, -2.559850, -1.370531, -7.956980, -0.212306, -1.461428, -1.014017, 99.663986, 167.200241, -589.794312, , 
1759228314.945984, -2.483835, -1.004966, -7.318925, -0.469087, -1.001217, -0.897280, 98.720062, 167.356659, -589.549500, , 
1759228314.966121, -2.722806, -0.792032, -6.768408, -0.663580, -0.809820, -0.892505, 98.228516, 167.550781, -589.155518, , 
1759228314.985643, -2.553865, 0.272490, -6.125415, -0.725157, -1.390963, -0.939059, 97.368546, 167.485565, -589.288513, , 
1759228315.006119, -1.928380, 0.064195, -6.872556, -0.773797, -1.881893, -0.939289, 96.358475, 167.908279, -588.600647, , 
1759228315.026128, -1.721730, -0.709282, -6.733692, -1.356863, -1.772469, -0.984154, 95.355820, 168.287262, -588.083374, , 
1759228315.046022, -2.787150, 0.397437, -6.580912, -1.885212, -1.980567, -0.663760, 95.045288, 168.464111, -587.010681, , 
1759228315.066136, -3.816507, 1.646163, -7.412448, -2.093377, -2.496470, -0.071579, 94.367477, 168.997787, -585.964050, , 
1759228315.085658, -4.324527, 1.449539, -7.147440, -2.015489, -3.505450, 0.174018, 93.948837, 169.460068, -585.240173, , 
1759228315.106139, -4.804714, 1.716942, -7.807192, -1.885440, -3.729541, 0.228129, 93.821976, 169.602890, -584.296326, , 
1759228315.126113, -4.267066, 0.563685, -11.799673, -0.128524, -0.005965, 0.591172, 94.159378, 169.537292, -584.383179, , 
1759228315.146030, -3.586813, 0.794426, -7.480982, -0.565694, -0.162985, 0.423498, 95.060944, 169.423843, -584.067139, , 
1759228315.166115, -4.179079, 2.821866, -7.234829, -0.884844, -1.103544, 0.479731, 96.135712, 169.594330, -583.654907, , 
1759228315.185666, -5.520730, 5.015553, -6.098630, -1.789176, -2.278794, 1.240757, 97.364212, 169.618195, -583.238525, , 
1759228315.206116, -4.595371, 3.604770, -5.825542, -2.494969, -3.148041, 2.249802, 99.053558, 169.906921, -582.887207, , 
1759228315.226102, -5.769577, 3.244742, -4.895394, -3.024946, -3.990322, 3.008259, 100.732361, 170.227676, -581.760437, , 
1759228315.246031, -8.191312, 5.221604, -4.068497, -3.790467, -5.347392, 3.197621, 102.888901, 170.323578, -580.698303, , 
1759228315.266116, -8.812607, 6.984485, -5.691167, -4.200137, -5.300261, 3.094136, 104.573013, 170.681671, -579.716919, , 
1759228315.285681, -6.170606, 8.259098, -7.115268, -4.393505, -4.174058, 2.867468, 107.418747, 170.314957, -577.595337, , 
1759228315.306121, -5.798308, 8.985289, -8.821735, -3.957107, -2.746695, 2.886246, 109.848740, 169.966537, -574.770386, , 
1759228315.326105, -7.871537, 10.065822, -10.602722, -3.141057, -1.418752, 2.549470, 112.485458, 168.632919, -572.299744, , 
1759228315.346047, -9.403826, 9.457545, -8.530989, -2.426412, -0.335188, 1.807197, 113.965836, 167.277283, -568.727783, , 
1759228315.365768, -9.016264, 10.390536, -8.480711, -1.489822, 0.313496, 1.297822, 114.355743, 165.978531, -566.297180, , 
1759228315.385690, -8.362497, 9.731981, -8.583662, -0.953576, 1.383282, 0.778785, 113.957260, 165.018265, -564.121704, , 
1759228315.406110, -7.332392, 9.522937, -8.364592, -0.358770, 1.903988, 0.711264, 113.247406, 164.497757, -562.504395, , 
1759228315.426110, -6.740875, 10.515932, -7.097012, -0.018290, 1.337570, 1.212578, 112.748505, 164.026062, -560.775757, , 
1759228315.446070, -8.035390, 9.014020, -5.458481, 0.024951, -0.439880, 1.862436, 112.848297, 163.617935, -560.662720, , 
1759228315.466106, -8.848969, 8.629750, -6.288221, 0.369196, -1.581229, 2.175440, 113.786285, 162.901337, -560.789307, , 
1759228315.485700, -9.632023, 7.681197, -6.163124, 0.876042, -1.846639, 2.143475, 114.836487, 162.621353, -562.146729, , 
1759228315.506147, -11.018715, 6.769306, -5.863101, 1.361978, -1.819809, 1.608947, 115.629349, 162.301056, -563.522888, , 
1759228315.526098, -10.631452, 6.974309, -5.524471, 1.904715, -0.997616, 0.728310, 116.171921, 162.154724, -565.182312, , 
1759228315.546091, -7.901015, 7.407959, -4.349816, 2.652347, 0.023456, -0.141785, 115.774338, 162.841263, -566.604675, , 
1759228315.566119, -0.968155, 9.189245, 1.425897, 3.060630, -0.122543, -0.009244, 115.737686, 163.122345, -566.888245, , 
1759228315.585722, -1.083526, 9.319580, 2.104653, 2.916201, -0.871101, 1.127260, 116.092392, 163.270386, -568.952576, , 
1759228315.606112, -4.188506, 8.263587, 1.917307, 2.262961, -1.532588, 1.470252, 116.709030, 162.877396, -570.893005, , 
1759228315.626013, -4.544644, 9.020753, 1.932121, 1.643867, -1.683373, 1.618707, 117.429810, 162.349243, -572.358704, , 
1759228315.646095, -4.722563, 10.318111, 1.286434, 1.249736, -1.327870, 2.031967, 118.460220, 161.558258, -573.888916, , 
1759228315.666093, -7.961469, 8.858546, 1.176750, 0.684069, -0.994333, 1.863262, 119.186279, 160.631195, -574.333252, , 
1759228315.685750, -8.786271, 9.302072, 0.954389, 0.065843, -1.030906, 1.566040, 119.997208, 159.948318, -575.482544, , 
1759228315.706118, -8.732102, 9.698761, 0.542137, -0.350980, -1.347551, 1.382796, 120.786392, 159.125229, -575.479492, , 
1759228315.726120, -8.738686, 8.618976, -0.847547, -0.652421, -1.264526, 1.066913, 121.167130, 158.646332, -576.292419, , 
1759228315.746118, -8.559421, 7.927950, -2.114978, -0.904419, -0.821888, 0.605086, 121.412796, 158.415039, -576.761597, , 
1759228315.766094, -8.325537, 7.646332, -3.620183, -1.063640, -0.000568, 0.043231, 121.585953, 158.165741, -575.996948, , 
1759228315.785744, -7.452551, 8.300248, -4.044854, -1.020204, 0.446321, -0.396897, 121.168335, 158.492477, -575.638855, , 
1759228315.805373, -5.963657, 9.378088, -4.829853, -0.583710, 0.418794, -0.435467, 121.203140, 158.805420, -574.652039, , 
1759228315.826108, -6.012589, 8.406641, -5.665130, -0.090237, 0.327518, -0.479521, 120.916824, 159.039886, -574.744141, , 
1759228315.846122, -5.414936, 8.809315, -6.459406, 0.381435, 0.539178, -0.689526, 120.524872, 159.442886, -574.402649, , 
1759228315.866096, -4.198532, 10.743232, -5.835268, 0.845426, 0.468975, -0.412249, 120.324081, 159.711136, -573.966003, , 
1759228315.885762, -5.656152, 9.922470, -3.923648, 0.871597, -0.279481, -0.293362, 120.039932, 159.819000, -574.809570, , 
1759228315.906133, -5.591059, 10.125079, -3.578883, 0.585436, -0.755745, -0.334477, 119.880798, 160.119522, -575.205200, , 
1759228315.926093, -5.013009, 9.355942, -2.886509, 0.232857, -1.192917, -0.415778, 119.407852, 160.453384, -576.255249, , 
1759228315.946100, -2.869600, 10.705373, -1.669058, 0.097984, -1.783123, 0.011257, 119.711380, 160.568283, -576.743286, , 
1759228315.966097, -4.452766, 8.331074, -2.003348, -0.255964, -1.993774, -0.070486, 119.026871, 160.360870, -577.575439, , 
1759228315.985790, -2.717269, 8.559121, -2.211045, -0.343437, -1.165240, 0.029403, 119.084290, 160.646210, -578.230469, , 
1759228316.006102, -2.724751, 9.706842, 1.757943, -0.309766, -1.621957, 0.444903, 118.850784, 160.516235, -578.631470, , 
1759228316.026096, -3.693355, 9.188796, 2.075773, -0.755634, -2.935872, 0.985962, 118.529602, 160.266113, -580.151489, , 
1759228316.046131, -8.328679, 4.101118, -0.845452, -1.558831, -1.735448, 0.327733, 118.290741, 160.396545, -580.931152, , 
1759228316.066107, -4.041113, 7.873033, -0.722899, -1.180278, -1.044403, 0.051948, 118.663513, 160.271164, -579.596558, , 
1759228316.085784, -5.097704, 6.546944, 1.930924, -0.850326, -1.970133, 0.422738, 118.533447, 160.489563, -580.927246, , 
1759228316.106106, -6.518364, 3.334674, -0.273238, -1.413938, -0.999752, -0.138898, 118.187241, 160.633942, -580.138977, , 
1759228316.126089, -4.449325, 7.195025, -2.458695, -0.678040, -0.141339, -0.571164, 117.839172, 161.179993, -580.329712, , 
1759228316.146110, -3.661782, 5.494543, -1.269525, 0.043487, 0.797279, -0.474156, 117.798004, 161.442032, -580.330078, , 
1759228316.166110, -3.108272, 5.414487, -0.020800, -0.516695, 1.396294, -0.214478, 117.977432, 161.489151, -578.917358, , 
1759228316.185808, -4.104559, 5.643732, 0.445621, -1.048952, 1.045588, 0.180466, 118.126602, 161.552063, -578.023560, , 
1759228316.206106, -5.253776, 6.310068, -0.181810, -1.185029, 0.420398, 0.478187, 118.278580, 161.584854, -577.392456, , 
1759228316.226090, -7.854927, 6.543503, -1.164629, -1.044669, 0.324330, 0.196772, 118.575348, 161.615417, -576.558533, , 
1759228316.246110, -10.107122, 6.055385, -1.179593, -0.825642, 0.879118, -0.575962, 118.319580, 161.780106, -576.032837, , 
1759228316.266102, -9.998186, 6.140678, -0.374992, -0.827272, 1.433771, -1.148261, 117.939529, 162.190475, -573.823792, , 
1759228316.285822, -9.149142, 6.224924, 0.143353, -1.197326, 1.341401, -1.240687, 117.586380, 162.723251, -573.067017, , 
1759228316.306109, -9.032724, 5.607968, -1.409287, -1.077864, 0.457032, -1.295842, 116.739777, 163.555252, -572.691650, , 
1759228316.326082, -6.590040, 4.215740, -6.537218, 0.329269, -0.753026, -1.037124, 116.111084, 163.777634, -572.354492, , 
1759228316.346104, -5.386954, 4.524592, -1.305887, 0.143172, -0.584839, -0.916595, 115.373077, 164.425934, -573.348694, , 
1759228316.366106, -4.473117, 5.434688, -1.265485, -0.158843, 0.183546, -0.749549, 115.078781, 164.465530, -572.477173, , 
1759228316.385842, -6.078579, 6.342839, -3.149273, 0.331296, 1.320729, -0.880712, 114.507095, 164.956863, -573.030823, , 
1759228316.406107, -7.893833, 6.473023, -2.533963, 0.451663, 2.126616, -1.150878, 113.877899, 165.362823, -572.223145, , 
1759228316.426108, -8.697237, 7.109133, -0.635062, -0.064605, 1.700532, -1.329397, 113.510941, 165.780548, -570.952576, , 
1759228316.446105, -11.618911, 3.227533, -5.010765, 0.743081, 0.004596, -1.382590, 112.838196, 166.352524, -571.694092, , 
1759228316.466105, -11.252897, 5.205294, -0.666935, 0.841659, -0.852046, -1.722216, 112.117950, 166.873901, -571.697693, , 
1759228316.485853, -10.908282, 6.790255, 1.255459, 0.565548, -0.539908, -1.917369, 111.033096, 167.663467, -573.075195, , 
1759228316.506104, -11.232098, 5.708525, 1.950975, 0.160104, -0.153596, -2.038948, 109.804367, 168.108185, -573.338562, , 
1759228316.526099, -7.788787, 6.042366, 2.005144, 0.057324, -0.414744, -1.589213, 108.600601, 168.557068, -573.277344, , 
1759228316.546140, -6.071546, 5.875072, 0.787393, -0.056737, -0.762962, -1.148749, 107.593140, 168.935394, -573.960083, , 
1759228316.566106, -3.384952, 6.288071, -1.551443, 0.006179, -0.277616, -0.719937, 106.951950, 169.143906, -573.418579, , 
1759228316.585865, -1.995717, 7.117513, -2.869900, -0.136359, 0.614963, -0.396886, 107.009521, 169.309998, -574.044067, , 
1759228316.606102, -7.262362, 6.880636, -2.357540, -0.332914, 1.076944, -0.574570, 106.821045, 169.492508, -573.324158, , 
1759228316.626091, -8.417714, 5.905897, -1.965490, -0.422584, 0.902565, -0.622889, 106.386932, 169.508652, -572.381958, , 
1759228316.646087, -8.409035, 5.529708, -1.686266, -0.412033, 0.628920, -0.521074, 105.990906, 169.633621, -572.571594, , 
1759228316.666094, -7.516297, 3.481020, -1.318008, -0.421425, 1.007025, -0.194088, 105.847107, 169.719849, -572.076294, , 
1759228316.685881, -6.589442, 5.779304, -1.231667, -0.378273, 1.144478, 0.205069, 105.818848, 169.746735, -572.018372, , 
1759228316.706085, -4.907515, 3.355474, -2.987814, -0.355552, 1.580913, 0.994176, 106.727203, 169.040649, -570.902588, , 
1759228316.726083, -3.036895, 3.993079, -3.815310, -0.189397, 1.973974, 2.003145, 107.986206, 168.411133, -569.331909, , 
1759228316.746091, -2.045995, 5.449502, -3.094356, -0.102680, 2.670552, 3.103400, 109.551147, 167.527832, -569.629639, , 
1759228316.766090, -3.843591, 9.030779, -0.342520, -0.356241, 2.168976, 3.882843, 111.421677, 166.513092, -568.862549, , 
1759228316.785894, -10.943447, 12.255170, 2.160917, -0.837510, 0.281687, 3.263885, 113.647736, 165.043243, -567.593750, , 
1759228316.806082, -14.186992, 10.948086, -2.641253, -0.856382, -0.063212, 2.281922, 114.525055, 164.204208, -568.081299, , 
1759228316.826088, -12.249334, 11.678616, -3.761440, -0.712988, -0.696539, 0.805561, 114.482880, 163.671600, -567.909119, , 
1759228316.846091, -6.770653, 7.565079, -2.113182, -0.894048, -1.155870, -0.108282, 114.752792, 163.919830, -568.286804, , 
1759228316.866088, -4.524143, 6.833500, -2.535908, -0.803476, -0.614761, -0.343890, 114.800568, 163.748779, -567.706421, , 
1759228316.885906, -4.764761, 8.723872, -2.489371, -0.762397, 0.417917, 0.048185, 114.771774, 163.544678, -566.749146, , 
1759228316.906145, -5.967697, 9.391256, -1.819893, -0.658139, 0.282287, 0.589665, 115.023361, 163.414215, -567.001770, , 
1759228316.926099, -6.403292, 8.572289, -1.570746, -0.414438, -0.087348, 0.696087, 115.480530, 162.917969, -566.195923, , 
1759228316.946102, -5.597943, 8.107814, -1.310975, -0.123220, -0.212644, 0.682869, 115.736923, 162.815216, -566.616394, , 
1759228316.966149, -4.794389, 7.655759, -0.975188, 0.199119, -0.298683, 0.674654, 116.350571, 162.453201, -567.107056, , 
1759228316.985925, -4.504092, 8.491335, -1.467646, 0.332202, -0.061286, 0.993908, 117.016556, 162.166031, -566.328613, , 
1759228317.006104, -4.717325, 9.726594, -2.298583, 0.127796, 0.409285, 1.734389, 117.606186, 161.584641, -566.912415, , 
1759228317.026103, -4.463690, 8.746767, -0.903213, -0.120717, -0.198584, 2.127618, 118.026520, 160.418457, -566.801880, , 
1759228317.046101, -3.998766, 7.740903, -0.400131, 0.015982, -1.023956, 1.595234, 118.464813, 159.682846, -567.712097, , 
1759228317.066108, -3.678691, 7.777265, -2.198775, 0.256493, -0.415008, 0.671118, 119.145935, 159.649170, -568.136108, , 
1759228317.085939, -4.515464, 8.399757, -1.723975, 0.127478, -0.106186, 0.048235, 119.464584, 159.426697, -567.428101, , 
1759228317.106098, -5.428852, 7.743297, -1.369633, -0.006763, -0.346646, -0.094126, 120.000076, 159.465027, -568.188538, , 
1759228317.126104, -3.895366, 3.311779, -0.869843, -0.057217, -0.329727, 0.442421, 119.895599, 159.061340, -567.297241, , 
1759228317.146102, -3.209128, 5.258415, -1.740136, 0.033686, 0.114656, 0.963911, 119.849777, 158.514481, -568.245483, , 
1759228317.165955, -3.899706, 7.136367, 2.055123, 0.290419, -1.559156, 0.475804, 120.409576, 158.422363, -569.633179, , 
1759228317.185965, -3.759346, 7.870788, -0.056563, 0.253948, -2.445291, 0.139115, 120.918640, 158.447678, -570.415344, , 
1759228317.206120, -1.581669, 8.214506, -3.007117, -0.461601, -1.339825, 0.929484, 121.480515, 157.929031, -570.838135, , 
1759228317.226110, -2.464681, 9.605986, -3.610007, -0.932467, 0.216204, 1.778631, 121.909836, 156.497025, -570.086609, , 
1759228317.246110, -2.271499, 9.041403, -0.560542, -1.011546, 0.169987, 2.076050, 122.254913, 155.378418, -570.747803, , 
1759228317.266093, -2.930952, 7.985261, 0.074819, -0.707426, -0.453270, 1.758281, 122.820786, 154.348938, -570.491333, , 
1759228317.285969, -3.196858, 7.689727, 0.265457, -0.542301, -0.902035, 1.349254, 123.946777, 153.468521, -570.169678, , 
1759228317.306097, -2.873940, 7.751976, -0.933290, 0.354057, -0.417786, 1.825951, 124.481689, 152.606873, -571.198608, , 
1759228317.326106, -2.966565, 7.338078, -0.487968, 0.815234, 0.478604, 2.423336, 124.860596, 151.079697, -570.022827, , 
1759228317.346114, -2.971055, 6.721871, 1.225382, -0.257091, -0.187783, 2.798506, 125.350433, 149.398544, -571.473145, , 
1759228317.366106, -2.454356, 5.873575, 1.013346, -1.055391, -0.709491, 2.959587, 125.643402, 147.419861, -571.726074, , 
1759228317.385988, -1.424999, 5.026776, 0.622044, -0.661400, -0.944114, 3.011525, 126.153793, 145.360184, -571.283752, , 
1759228317.406102, -6.408530, 25.757270, -6.096685, 1.854596, 2.172226, 2.081267, 125.254181, 144.192291, -569.918030, , 
1759228317.426098, -2.258181, 24.590995, 1.734898, -0.508202, 2.068625, -0.167463, 125.775620, 143.777298, -568.845947, , 
1759228317.446112, 2.291850, 9.025242, -0.476446, -0.458299, 0.414675, -0.490088, 125.881348, 144.107956, -569.396362, , 
1759228317.466098, 2.845808, 5.595549, -1.267730, 0.122120, -0.750800, -0.174559, 125.771271, 144.331909, -569.775208, , 
1759228317.486006, 2.038812, 8.963442, -1.605013, 0.297531, -0.044033, -0.188762, 125.590179, 144.459137, -569.214783, , 
1759228317.506095, 2.373701, 11.012131, 0.493804, 0.052393, 0.587859, -0.048597, 125.785233, 144.391754, -569.654907, , 
1759228317.526094, 0.916530, 9.533262, -0.015862, -0.091395, 0.401591, 0.106538, 125.903732, 144.291779, -568.684570, , 
1759228317.546098, 0.102202, 9.377040, -0.515202, -0.043101, 0.256440, 0.090319, 125.624451, 144.378159, -568.938965, , 
1759228317.566100, 0.108487, 9.788693, -0.459238, 0.005984, 0.079249, 0.014085, 125.670349, 144.160675, -568.796143, , 
1759228317.586014, 0.527173, 10.055198, -0.061950, -0.011383, -0.137779, -0.047142, 125.681244, 144.114685, -568.806763, , 
1759228317.606092, 0.856825, 9.967959, -0.164901, -0.034120, -0.247741, -0.060602, 125.662155, 144.251282, -569.417236, , 
1759228317.626093, 0.901716, 9.802909, -0.724695, -0.067310, -0.215799, -0.018823, 125.726242, 144.160782, -568.665955, , 
1759228317.646093, 0.801309, 9.648184, -0.916081, -0.108017, -0.260159, 0.059909, 125.885559, 144.260529, -569.763733, , 
1759228317.666092, 0.044442, 9.848549, -1.093851, -0.135909, -0.272839, 0.113732, 125.887939, 144.250214, -569.464600, , 
1759228317.686031, -0.537798, 10.174160, -1.132757, -0.124078, -0.171701, 0.159943, 125.838791, 144.006561, -569.548279, , 
1759228317.706097, -1.256956, 10.211270, -1.145625, -0.092279, -0.014095, 0.181711, 126.032837, 143.662064, -568.957886, , 
1759228317.726097, -1.751359, 9.941773, -1.080533, -0.057842, 0.213597, 0.219868, 125.740570, 143.610291, -568.014587, , 
1759228317.746092, -2.201468, 9.491962, -0.635511, -0.049718, 0.350210, 0.166384, 125.588486, 143.569427, -569.091187, , 
1759228317.766101, -1.655890, 9.337386, -0.043245, -0.062843, 0.300929, 0.079674, 125.777603, 143.438065, -568.747803, , 
1759228317.786045, -1.145476, 9.687090, -0.117466, -0.001085, 0.245550, -0.130014, 125.374771, 143.524887, -568.229919, , 
1759228317.806096, -0.177021, 10.236110, 0.561141, -0.175989, 0.222497, 0.121159, 125.300140, 143.381500, -568.749390, , 
1759228317.826092, -0.416741, 9.196877, -0.000449, -0.120019, 0.043209, -0.083644, 125.119217, 143.439255, -567.800781, , 
1759228317.846093, 0.582689, 9.222166, 0.380528, -0.173750, 0.049462, -0.071059, 125.094925, 143.460388, -568.795532, , 
1759228317.866142, 0.736067, 9.794679, -0.069282, -0.154542, 0.132250, -0.053463, 125.076416, 143.560959, -568.696045, , 
1759228317.886060, 0.118363, 10.105476, -0.106542, -0.152322, 0.327894, 0.147373, 125.142120, 143.291138, -567.418640, , 
1759228317.906079, -1.011700, 9.810690, -0.233884, -0.137109, 0.552768, 0.235700, 125.141541, 143.285553, -567.494934, , 
1759228317.926074, -1.350479, 9.773430, -0.208445, -0.125290, 0.548320, 0.147495, 125.105606, 142.872650, -566.445984, , 
1759228317.946078, -0.711228, 9.701754, -0.177470, -0.136377, 0.525262, 0.022954, 125.015106, 142.904358, -567.270142, , 
1759228317.966074, 0.173580, 9.746196, -0.124798, -0.155144, 0.467519, -0.004937, 124.549103, 143.092896, -567.217773, , 
1759228317.985421, 0.350751, 9.719411, -0.051176, -0.148674, 0.395995, -0.017437, 124.760529, 142.867020, -566.259521, , 
1759228318.005860, 0.573711, 9.856330, -0.212036, -0.116636, 0.337914, -0.024219, 124.777161, 142.955444, -566.786255, , 
1759228318.026026, 0.786346, 9.960178, -0.136469, -0.068793, 0.339531, -0.057804, 124.711166, 142.684784, -565.311523, , 
1759228318.046095, 0.930297, 9.886556, 0.297330, -0.040504, 0.282259, -0.079099, 124.458923, 142.902054, -565.946228, , 
1759228318.066111, 1.110910, 9.901221, 0.551863, -0.014586, 0.134213, -0.150546, 124.453186, 143.022919, -566.256042, , 
1759228318.086066, 1.431433, 9.813833, 0.648230, -0.026425, -0.011125, -0.132706, 124.230988, 143.180832, -565.651367, , 
1759228318.105339, 1.410933, 9.728838, 0.552013, -0.010105, -0.070773, -0.138317, 124.361938, 143.106857, -566.239380, , 
1759228318.126091, 1.527351, 9.929951, 0.502633, -0.013251, -0.182299, -0.136860, 124.507416, 143.301056, -565.430359, , 
1759228318.146097, 1.576582, 9.944466, 0.389207, -0.029813, -0.249903, -0.035198, 124.579803, 143.451462, -566.514771, , 
1759228318.166104, 1.027412, 9.931148, 0.151583, -0.048813, -0.167315, 0.071308, 124.752716, 143.630554, -566.290649, , 
1759228318.185668, 0.339827, 10.112509, 0.184354, -0.075277, -0.037760, 0.160047, 124.743408, 143.397110, -566.114197, , 
1759228318.206102, -0.439785, 10.345046, 0.323965, -0.072866, 0.067187, 0.241175, 124.531082, 143.220734, -566.160339, , 
1759228318.226100, -0.789488, 9.434052, 0.660201, -0.144876, 0.038905, 0.195134, 124.671539, 142.877182, -565.651184, , 
1759228318.246109, -0.855777, 8.604761, 0.662745, -0.045734, -0.176039, -0.035703, 124.819916, 143.441940, -566.701904, , 
1759228318.266108, -0.727538, 9.786748, 0.765097, -0.185498, -0.048022, -0.022031, 124.803741, 143.204544, -566.801575, , 
1759228318.286072, -0.284910, 10.064027, 0.452654, -0.111144, -0.094083, -0.037460, 124.956207, 143.113022, -566.437500, , 
1759228318.306102, -0.035314, 9.830592, 0.152780, -0.080580, -0.168071, -0.026246, 124.687714, 143.151489, -567.053589, , 
1759228318.326101, 0.251541, 9.831789, 0.034417, -0.052763, -0.160053, -0.024062, 124.863113, 143.200897, -566.207458, , 
1759228318.346124, 0.383222, 10.099790, 0.236727, -0.061812, -0.239225, -0.026622, 124.680130, 143.249969, -567.607971, , 
1759228318.366100, 0.096516, 10.048315, 0.370652, -0.082502, -0.290808, 0.013295, 124.794662, 143.263840, -567.236816, , 
1759228318.386061, -0.430208, 9.812785, 0.223259, -0.082971, -0.205555, 0.048116, 125.124207, 143.165482, -567.102356, , 
1759228318.406089, -0.827047, 9.599851, 0.253636, -0.058739, -0.126275, 0.034933, 124.762497, 143.253937, -567.510620, , 
1759228318.426088, -0.639850, 9.718065, 0.338331, -0.052154, -0.056324, 0.007666, 124.780167, 143.042084, -566.872986, , 
1759228318.446107, -0.358083, 9.683498, 0.403423, -0.064062, -0.016916, 0.009811, 124.952194, 143.199600, -567.902893, , 
1759228318.466142, -0.322469, 9.769540, 0.511162, -0.077478, -0.030356, 0.006762, 124.920776, 143.025589, -567.347473, , 
1759228318.485304, -0.084695, 9.748142, 0.477194, -0.090784, -0.023468, 0.000763, 124.788879, 142.943680, -567.362244, , 
1759228318.506085, 0.139013, 9.754726, 0.388459, -0.080940, 0.040086, 0.008394, 124.705978, 143.062347, -567.785339, , 
1759228318.526084, 0.330101, 9.970503, 0.329801, -0.062665, 0.047040, 0.001463, 124.652954, 142.846375, -566.991150, , 
1759228318.546104, 0.570568, 9.904064, 0.340426, -0.033128, 0.012789, 0.003911, 124.815933, 142.886169, -567.376831, , 
1759228318.566149, 0.550966, 9.735123, 0.543933, -0.007643, 0.045974, 0.021364, 124.479568, 142.975662, -567.153442, , 
1759228318.585622, 0.426766, 9.714324, 0.838419, -0.009493, 0.073967, 0.014389, 124.465149, 142.879333, -567.199768, , 
1759228318.605753, 0.380828, 9.818471, 0.872537, -0.025137, 0.045708, -0.001633, 124.360214, 142.932129, -567.592896, , 
1759228318.625259, 0.463577, 9.790489, 0.831536, -0.031328, -0.036174, -0.009953, 124.574066, 142.713455, -566.520020, , 
1759228318.646095, 0.616507, 9.781212, 0.646434, -0.033957, -0.097872, -0.004748, 124.519897, 143.123230, -567.420349, , 
1759228318.666085, 0.482432, 9.841366, 0.524031, -0.023549, -0.074093, 0.021970, 124.622467, 142.913330, -567.320679, , 
1759228318.685753, 0.172383, 9.858724, 0.491410, -0.030546, -0.042941, 0.034950, 124.673950, 142.800598, -566.976562, , 
1759228318.706094, -0.161609, 9.767744, 0.576105, -0.038934, -0.038924, 0.022548, 124.439590, 142.980667, -567.639038, , 
1759228318.726095, -0.247201, 9.753080, 0.537199, -0.032031, -0.084864, -0.005886, 124.510788, 142.877228, -566.933960, , 
1759228318.746085, -0.159065, 9.757569, 0.339378, -0.026637, -0.111304, -0.018488, 124.595428, 142.993439, -567.845703, , 
1759228318.766099, -0.089483, 9.779715, 0.331597, -0.001282, -0.038444, -0.012507, 124.371384, 143.007889, -567.506348, , 
1759228318.786062, -0.126444, 9.791088, 0.518195, -0.000158, 0.040041, -0.006028, 124.315231, 142.823517, -567.467651, , 
1759228318.806099, -0.068534, 9.898827, 0.458340, -0.009866, 0.008248, 0.000681, 124.441971, 142.917496, -567.791016, , 
1759228318.826098, -0.065092, 9.854983, 0.325911, -0.001205, -0.008196, -0.005267, 124.530548, 142.944092, -567.325989, , 
1759228318.846097, -0.005686, 9.810391, 0.414197, 0.007662, 0.010112, -0.022590, 124.356125, 143.116516, -567.336914, , 
1759228318.866096, 0.099808, 9.802909, 0.495001, 0.009340, -0.000472, -0.037473, 124.370911, 143.035248, -567.593872, , 
1759228318.886062, 0.157718, 9.815479, 0.494403, 0.025241, -0.010239, -0.043812, 124.513687, 143.087433, -567.271423, , 
1759228318.906083, 0.303166, 9.811289, 0.530914, 0.020999, -0.011190, -0.030716, 124.387268, 143.148483, -567.921326, , 
1759228318.926093, 0.285359, 9.727641, 0.429161, 0.012356, -0.002050, -0.006801, 124.277023, 143.015228, -567.124146, , 
1759228318.946092, 0.122404, 9.732579, 0.420482, 0.023275, 0.014966, 0.006671, 124.353470, 143.171356, -567.905396, , 
1759228318.966096, -0.008380, 9.746645, 0.534655, 0.006169, 0.017271, 0.006508, 124.667709, 142.944443, -567.198120, , 
1759228318.985412, 0.025438, 9.746645, 0.557999, 0.000434, 0.003142, 0.004872, 124.547424, 143.154266, -567.102600, , 
1759228319.006080, 0.116268, 9.723451, 0.316184, -0.006540, -0.003183, 0.001719, 124.431213, 143.250290, -567.931641, , 
1759228319.026079, 0.123601, 9.829245, 0.305410, -0.007959, 0.000518, 0.011135, 124.313202, 143.108887, -567.111572, , 
1759228319.046085, 0.021398, 9.867852, 0.310348, 0.002026, 0.019635, 0.024254, 124.534973, 143.184738, -567.674744, , 
1759228319.066106, -0.034267, 9.772383, 0.326360, -0.003312, 0.030422, 0.033241, 124.320526, 143.272964, -567.500671, , 
1759228319.086058, -0.154725, 9.794230, 0.263961, -0.019223, 0.034645, 0.032675, 124.605576, 143.317490, -567.412231, , 
1759228319.106079, -0.251990, 9.804705, 0.216825, -0.016110, 0.027072, 0.020441, 124.520248, 143.188080, -567.873535, , 
1759228319.126081, -0.224905, 9.739014, 0.280271, -0.021380, 0.039649, 0.001677, 124.381012, 143.115829, -567.074951, , 
1759228319.146104, -0.114622, 9.780015, 0.323816, -0.005840, 0.041240, -0.011770, 124.391861, 143.083374, -567.279785, , 
1759228319.166080, 0.064344, 9.787347, 0.450260, -0.001136, 0.016744, -0.021688, 124.402542, 143.317871, -567.118408, , 
1759228319.185826, 0.260669, 9.750536, 0.477344, -0.010943, -0.024197, -0.020376, 124.450943, 143.255585, -567.440430, , 
1759228319.206083, 0.284910, 9.815928, 0.389357, -0.017993, -0.041200, -0.005805, 124.416473, 143.313354, -567.559204, , 
1759228319.226089, 0.224307, 9.821913, 0.346261, -0.016830, -0.012192, 0.006764, 124.411209, 143.206192, -566.963989, , 
1759228319.246071, 0.154276, 9.742605, 0.519691, -0.015598, -0.035446, 0.014425, 124.515060, 143.181534, -567.322449, , 
1759228319.266094, 0.065242, 9.809792, 0.511461, -0.028731, -0.082204, 0.009579, 124.294144, 143.105545, -566.879456, , 
1759228319.285813, 0.080804, 9.901820, 0.477793, -0.030201, -0.096731, 0.001170, 124.324097, 143.075912, -567.395386, , 
1759228319.306082, 0.108637, 9.867403, 0.478541, -0.037424, -0.106113, 0.000568, 124.329056, 143.066742, -567.753296, , 
1759228319.326081, 0.191536, 9.805004, 0.396240, -0.035622, -0.109190, 0.007791, 124.320709, 142.874496, -567.039185, , 
1759228319.346086, 0.128688, 9.630527, 0.459836, -0.022434, -0.092180, 0.010985, 124.372131, 143.119232, -567.545532, , 
1759228319.366088, 0.154875, 9.780463, 0.590021, -0.036038, -0.087729, -0.005710, 124.518967, 142.927063, -567.719849, , 
1759228319.385618, 0.273238, 9.824756, 0.555006, -0.030757, -0.105421, -0.009126, 124.439957, 142.990372, -568.314026, , 
1759228319.405370, 0.266953, 9.694871, 0.486771, -0.016267, -0.129045, -0.006285, 124.243881, 142.981720, -568.423462, , 
1759228319.426076, 0.134075, 9.652523, 0.464325, -0.009130, -0.105075, -0.008608, 124.398682, 142.798004, -567.570923, , 
1759228319.445121, 0.062997, 9.790040, 0.549918, -0.014435, -0.098843, -0.016160, 124.239182, 143.032135, -568.139587, , 
1759228319.466084, 0.029329, 9.792734, 0.631022, -0.015760, -0.084169, -0.018103, 124.659821, 142.992188, -567.889648, , 
1759228319.486055, 0.133028, 9.798570, 0.651522, -0.017657, -0.098906, -0.022254, 124.441467, 143.158646, -568.526001, , 
1759228319.506089, 0.212635, 9.864859, 0.506374, -0.021092, -0.132756, -0.019143, 124.505432, 143.060577, -568.572815, , 
1759228319.526078, 0.185850, 9.914988, 0.498892, -0.017436, -0.115241, -0.011471, 124.528473, 143.044464, -567.907471, , 
1759228319.546094, 0.047884, 9.855282, 0.486621, -0.012834, -0.096887, -0.004465, 124.464096, 143.228638, -568.362488, , 
1759228319.566130, -0.036512, 9.654020, 0.480935, 0.006177, -0.089840, 0.000270, 124.689407, 143.236954, -568.391724, , 
1759228319.586059, -0.078410, 9.634267, 0.527323, 0.003899, -0.102703, 0.000530, 124.566818, 143.182480, -568.555603, , 
1759228319.605646, -0.127940, 9.643695, 0.607379, 0.001803, -0.094725, 0.000826, 124.262817, 143.046631, -568.603271, , 
1759228319.626074, -0.196175, 9.757120, 0.676961, -0.012411, -0.095007, -0.005637, 124.323654, 143.061844, -567.828247, , 
1759228319.646076, -0.286706, 9.888801, 0.533757, -0.024199, -0.083330, -0.008765, 124.554276, 143.296265, -568.375488, , 
1759228319.666073, -0.294786, 9.843012, 0.359878, -0.018117, -0.041573, -0.013013, 124.433380, 143.098007, -568.333130, , 
1759228319.685906, -0.287454, 9.928305, 0.330101, -0.006331, -0.023017, -0.018836, 124.587051, 143.247253, -568.890564, , 
1759228319.706082, -0.216226, 9.943419, 0.377685, 0.007914, -0.006781, -0.018885, 124.580444, 143.186859, -568.732666, , 
1759228319.726019, -0.071826, 9.730036, 0.408511, 0.007087, 0.031257, -0.006478, 124.381912, 143.080399, -568.092041, , 
1759228319.746079, -0.042796, 9.702203, 0.375141, -0.001252, 0.073702, 0.002835, 124.344635, 143.102921, -568.923096, , 
1759228319.766081, -0.100257, 9.724349, 0.390704, -0.004846, 0.093555, 0.002674, 124.406525, 143.166428, -568.762268, , 
1759228319.786060, -0.180014, 9.728090, 0.372897, 0.001561, 0.089982, -0.002854, 124.632050, 143.184036, -568.310242, , 
1759228319.806099, -0.112827, 9.809643, 0.400281, 0.005991, 0.092901, -0.011172, 124.617142, 143.163727, -568.621399, , 
1759228319.825822, 0.078709, 9.841216, 0.465373, 0.009472, 0.090110, -0.006558, 124.453674, 142.794540, -568.559875, , 
1759228319.846076, 0.198868, 9.803059, 0.500837, 0.002450, 0.081974, 0.005124, 124.499557, 143.084351, -568.304321, , 
1759228319.865838, 0.248249, 9.847651, 0.508169, -0.020156, 0.091190, 0.023605, 124.358276, 142.974915, -567.796265, , 
1759228319.885911, 0.079906, 9.817574, 0.446968, -0.021612, 0.100138, 0.037937, 124.337936, 143.119827, -568.333130, , 
1759228319.906057, 0.029628, 9.791836, 0.530765, -0.023170, 0.082630, 0.032289, 124.420959, 143.170486, -568.141846, , 
1759228319.926088, 0.020800, 9.783307, 0.511012, -0.030102, 0.049432, 0.018831, 124.371979, 143.038498, -567.763062, , 
1759228319.946060, -0.003591, 9.793781, 0.369904, -0.026118, 0.060694, 0.010711, 124.303223, 143.197723, -567.922119, , 
1759228319.966057, -0.024092, 9.785102, 0.418087, -0.011391, 0.059267, 0.000275, 124.361633, 143.035904, -568.001404, , 
1759228319.985409, 0.014216, 9.724948, 0.477494, -0.013914, 0.052109, -0.004153, 124.429367, 143.057037, -567.637390, , 
1759228320.006077, 0.030975, 9.737368, 0.545728, -0.019970, 0.040526, -0.005322, 124.339371, 143.116272, -568.336731, , 
1759228320.026079, 0.081552, 9.742605, 0.536900, -0.017027, 0.048526, -0.003381, 124.360489, 142.933441, -568.063110, , 
1759228320.046079, 0.111031, 9.781810, 0.568623, -0.029896, 0.053712, 0.001418, 124.405014, 143.167908, -568.075562, , 
1759228320.066072, 0.161908, 9.822362, 0.545429, -0.037069, 0.060369, 0.007833, 124.537064, 142.988708, -567.675049, , 
1759228320.086056, 0.187646, 9.713276, 0.556652, -0.040536, 0.056465, 0.014651, 124.175461, 143.172775, -567.848022, , 
1759228320.106074, 0.189591, 9.676615, 0.472556, -0.039296, 0.057875, 0.017127, 124.261780, 143.072784, -567.687927, , 
1759228320.126071, 0.261866, 9.641600, 0.491410, -0.033092, 0.050592, 0.018437, 124.411697, 142.965637, -567.312134, , 
1759228320.146073, 0.288352, 9.590274, 0.345663, -0.030340, 0.028994, 0.007819, 124.257278, 143.085236, -567.688477, , 
1759228320.166075, 0.272939, 9.702802, 0.183456, -0.009915, -0.064177, -0.016916, 124.275955, 142.946732, -567.671387, , 
1759228320.185981, 0.203806, 9.930999, 0.071976, 0.011625, -0.179302, -0.054979, 124.278473, 142.977707, -567.827332, , 
1759228320.205149, 0.403872, 10.069713, 0.090680, 0.012257, -0.279862, -0.079390, 124.166809, 143.180374, -567.995789, , 
1759228320.226083, 0.573112, 9.937882, 0.093224, 0.020227, -0.398369, -0.100781, 124.256424, 143.227966, -567.661011, , 
1759228320.246070, 0.638953, 9.685743, -0.052373, 0.026792, -0.441712, -0.080730, 124.444138, 143.230896, -568.248779, , 
1759228320.266082, 0.442927, 9.679159, -0.242563, 0.011430, -0.349047, -0.012786, 124.638718, 142.987305, -567.813477, , 
1759228320.286055, -0.050727, 9.440636, -0.059855, -0.036592, -0.214866, 0.047995, 124.792877, 143.339691, -568.764038, , 
1759228320.306080, -0.840215, 9.550919, 0.235230, -0.094577, -0.105849, 0.071421, 124.649063, 143.186615, -568.776855, , 
1759228320.326084, -1.161936, 9.646687, 0.470311, -0.110333, -0.098445, 0.023362, 124.483551, 143.095932, -568.608826, , 
1759228320.346081, -0.852485, 9.564686, 0.558747, -0.135405, -0.249577, -0.034846, 124.298523, 143.181320, -569.163452, , 
1759228320.365303, -0.562937, 9.256582, 0.409109, -0.164892, -0.381853, -0.051651, 124.615845, 143.079254, -568.420166, , 
1759228320.386054, -0.375590, 9.482385, -0.173729, -0.156538, -0.273967, -0.040536, 124.513809, 143.367249, -569.340576, , 
1759228320.406081, 0.193182, 9.690082, -0.327257, -0.065642, -0.010568, -0.015882, 124.404968, 143.015442, -569.614807, , 
1759228320.425493, 0.306907, 9.518149, 0.429310, 0.061371, 0.110190, 0.082974, 124.239609, 143.076859, -568.955811, , 
1759228320.446078, -0.505476, 9.365518, 1.231667, 0.099211, 0.141854, 0.179443, 124.508423, 143.104965, -569.328613, , 
1759228320.466079, -1.391031, 10.213664, 1.697639, -0.000575, 0.316657, 0.201286, 124.581650, 142.797623, -567.850098, , 
1759228320.486053, -1.879598, 10.431836, 1.668609, -0.020558, 0.522497, 0.229589, 124.471695, 142.712204, -568.739258, , 
1759228320.506082, -2.088043, 9.874286, 1.891719, -0.038713, 0.494015, 0.234392, 124.436432, 142.452942, -568.850952, , 
1759228320.526081, -1.725022, 9.676316, 1.976563, -0.112119, 0.247193, 0.134948, 124.451096, 142.346054, -567.996704, , 
1759228320.546077, -1.204732, 9.940426, 1.735647, -0.188954, 0.211827, 0.060644, 124.246658, 142.430054, -568.321411, , 
1759228320.566073, -1.053748, 10.088567, 1.240196, -0.251141, 0.290169, 0.022028, 124.421936, 142.265762, -567.215942, , 
1759228320.586052, -0.722301, 9.817424, 0.892738, -0.313577, 0.293683, -0.022293, 124.227615, 142.357162, -568.098511, , 
1759228320.606079, -0.214580, 9.627683, 0.330101, -0.347424, 0.241716, -0.025132, 124.018158, 142.447174, -567.515259, , 
1759228320.626073, 0.110433, 9.724798, -0.276381, -0.304675, 0.298506, 0.033031, 123.787277, 142.433884, -566.766479, , 
1759228320.646073, -0.765097, 9.707291, -0.303315, -0.213697, 0.440883, 0.092454, 123.850113, 142.412140, -566.901978, , 
1759228320.666070, -1.755548, 10.158298, 2.050783, -0.296138, 0.163161, 0.142685, 124.040253, 142.125000, -566.084900, , 
1759228320.686066, -2.183811, 9.685144, 2.470367, -0.529954, -0.331114, 0.111005, 124.206543, 142.030365, -567.275574, , 
1759228320.705225, -1.429039, 8.858397, 0.786495, -0.598515, -0.141741, -0.005881, 124.230133, 141.724884, -566.929382, , 
1759228320.725863, 0.242862, 9.425972, 0.363919, -0.518233, -0.087630, -0.007379, 124.115799, 141.520966, -567.043823, , 
1759228320.746068, 0.897826, 10.352678, 0.054019, -0.256069, -0.167151, 0.033553, 124.269653, 141.313263, -567.832947, , 
1759228320.766068, 0.568174, 10.507104, -0.218471, -0.019070, -0.336116, 0.044695, 124.016876, 141.326752, -566.593018, , 
1759228320.786042, 0.090830, 9.998336, -0.768090, 0.179533, -0.566356, 0.048342, 124.142761, 141.498154, -568.111755, , 
1759228320.806067, -1.107318, 10.071060, 0.007632, 0.303748, -0.788448, 0.024709, 124.463196, 141.341766, -568.490723, , 
1759228320.826066, -1.418265, 9.612271, 1.035791, 0.289348, -0.779806, 0.036069, 124.661865, 141.308945, -568.673828, , 
1759228320.846063, -1.409137, 9.131485, 1.670105, 0.162213, -0.506720, 0.091549, 124.692764, 141.362961, -569.742920, , 
1759228320.866065, -1.111807, 9.252392, 1.547552, 0.032467, -0.323831, 0.163198, 124.773468, 141.098984, -569.079102, , 
1759228320.885599, -0.323217, 10.314221, 1.274314, 0.012634, -0.360659, 0.298099, 124.767624, 140.969009, -570.220947, , 
1759228320.906066, 0.365864, 11.194688, 0.565331, -0.021240, -0.426164, 0.539289, 124.570572, 140.682480, -570.460510, , 
1759228320.926065, 0.972345, 11.378144, 1.500267, -0.118901, -0.374077, 0.829634, 124.647171, 140.157776, -570.122986, , 
1759228320.946102, 1.237952, 12.199206, 3.313725, -0.349910, -0.309133, 1.144606, 124.348526, 139.698547, -570.807800, , 
1759228320.966065, 0.804152, 13.772495, 2.266710, -0.374451, -0.281749, 1.270597, 124.492722, 138.572952, -569.911865, , 
1759228320.985397, -0.314688, 15.828666, 0.956633, -0.260401, -0.519404, 1.163733, 124.557632, 137.784943, -571.516724, , 
1759228321.006063, -2.776376, 15.518467, -0.108487, -0.162180, -0.724089, 0.852731, 124.963837, 137.147049, -571.604919, , 
1759228321.026064, -5.139752, 13.564649, -1.918354, 0.015975, -0.588686, 0.360233, 125.252869, 136.753494, -571.997559, , 
1759228321.046127, -2.405873, 11.856386, -1.124227, 0.310554, -0.437025, 0.242748, 124.999084, 136.702698, -573.246460, , 
1759228321.066065, -2.285714, 10.491092, -1.263241, 0.570703, 0.197490, 0.059766, 124.979538, 136.309464, -571.960999, , 
1759228321.086040, -2.325967, 9.401132, -0.999878, 0.778666, 0.670230, -0.311436, 125.092529, 136.320633, -572.212097, , 
1759228321.106065, -2.029535, 9.223961, 0.003142, 0.939499, 0.680765, -0.747449, 125.053314, 136.678101, -571.938965, , 
1759228321.126063, -1.702427, 9.320178, 0.473004, 1.118397, 0.564246, -1.116852, 125.160202, 137.294815, -570.984924, , 
1759228321.146068, -0.428562, 9.671078, 0.100856, 1.224791, 0.751481, -1.274699, 125.072632, 138.044754, -571.516541, , 
1759228321.166073, 0.015113, 10.680085, 0.372747, 1.381549, 0.635664, -1.256916, 124.956329, 138.761383, -569.804199, , 
1759228321.186069, 1.102680, 11.220875, 1.108515, 1.371175, 0.406383, -1.182483, 124.923172, 139.569580, -570.272278, , 
1759228321.205310, 1.835305, 11.291354, 0.530914, 1.272174, -0.051741, -1.132997, 124.832932, 140.079666, -569.718628, , 
1759228321.226043, 2.814534, 12.318916, -0.589423, 1.119789, -0.581523, -1.013942, 124.767975, 140.786667, -570.356445, , 
1759228321.245289, 3.142390, 12.649764, -1.711405, 1.058577, -1.086800, -1.047251, 124.919708, 141.045547, -571.280334, , 
1759228321.266086, 3.663877, 13.228413, -1.698686, 1.047264, -1.730120, -1.225937, 124.990173, 141.633133, -571.569580, , 
1759228321.286047, 2.402132, 12.958317, -0.648829, 0.702448, -1.634116, -1.636357, 125.218826, 142.478973, -573.779236, , 
1759228321.306070, -1.157447, 13.843573, -1.152958, 0.486354, -0.028657, -2.405934, 125.206955, 143.649109, -573.768799, , 
1759228321.326066, -4.767454, 14.349797, -0.737564, 0.984724, 0.557566, -3.056187, 125.394211, 145.440796, -573.726440, , 
1759228321.346076, -3.850176, 14.465916, 0.460136, 1.209911, 1.316218, -3.191878, 125.176788, 147.518204, -572.942261, , 
1759228321.366090, -3.256264, 11.804162, -0.883909, 1.303762, 1.437411, -2.776594, 124.771088, 149.087860, -571.587891, , 
1759228321.386047, -2.546084, 11.123012, -0.005387, 1.261552, 1.816982, -2.553529, 124.227081, 150.964294, -571.736694, , 
1759228321.406069, -0.667982, 9.334244, -0.460734, 1.042799, 2.074260, -2.246342, 123.687439, 152.474197, -571.353210, , 
1759228321.426065, 0.827646, 7.159860, -0.555604, 1.152396, 2.594252, -1.951065, 122.717117, 153.751648, -570.014648, , 
1759228321.446106, 0.698209, 6.464045, -0.202909, 1.169075, 2.576091, -1.844676, 121.883804, 155.347168, -569.356018, , 
1759228321.466093, 1.056142, 4.762666, -0.194230, 1.124148, 2.287023, -1.587525, 121.275375, 156.124191, -567.567688, , 
1759228321.486045, 0.650624, 3.858406, -0.535852, 1.013079, 1.846352, -1.308139, 120.666672, 157.190842, -567.840210, , 
1759228321.506067, 0.228796, 3.214066, -0.804751, 0.793806, 1.656624, -1.106315, 120.066422, 157.810028, -566.882080, , 
1759228321.526033, -0.005686, 2.861370, -1.042076, 0.601147, 1.518719, -0.876600, 119.575256, 158.528229, -565.905029, , 
1759228321.546065, -0.980426, 2.408567, -0.831087, 0.346992, 1.212770, -0.660922, 119.180023, 158.933762, -565.511108, , 
1759228321.566055, -1.798345, 3.267038, -1.608006, 0.024849, 0.955102, -0.550533, 118.905136, 159.127319, -564.497009, , 
1759228321.586033, -3.329586, 5.061043, -2.966565, -0.290730, 0.635982, -0.416235, 118.600601, 159.305359, -563.180908, , 
1759228321.606089, -4.585195, 5.994183, -4.365827, -0.210725, -0.066004, -0.023014, 118.791397, 159.470016, -564.115234, , 
1759228321.626038, -3.704279, 6.778583, -5.409848, -0.038358, -0.705155, 0.284266, 118.869156, 159.137360, -563.765991, , 
1759228321.646045, 5.653159, 6.445341, -3.719841, -0.803481, -0.462544, 1.196418, 118.940613, 158.334747, -564.475830, , 
1759228321.666041, 0.637456, 9.055469, -6.462399, -1.407188, -0.436314, 1.720944, 119.727234, 157.091064, -563.948425, , 
1759228321.686047, -4.199130, 12.902652, 0.234183, -1.999860, -2.065989, 1.267121, 121.017776, 155.856766, -563.584473, , 
1759228321.705373, -2.518251, 15.110405, -3.982904, -1.665015, -1.654344, 1.403992, 121.416840, 155.276001, -562.934692, , 
1759228321.726041, -3.054403, 12.706477, -2.832640, -1.239702, -1.567363, 1.392821, 122.563629, 153.872238, -564.037659, , 
1759228321.746050, -1.575834, 10.426299, -3.035848, -1.042093, -1.451125, 1.526316, 123.262939, 152.867447, -565.126770, , 
1759228321.766051, -0.433201, 7.976732, -0.954239, -1.269637, -1.558221, 1.786574, 124.200836, 151.612991, -565.722046, , 
1759228321.786039, 0.470461, 7.372944, 0.151583, -1.416478, -2.218804, 2.219308, 125.076553, 149.952332, -566.437134, , 
1759228321.806038, 0.897377, 8.645462, 1.031003, -1.535319, -2.695323, 2.747505, 125.988342, 148.104492, -567.514404, , 
1759228321.826052, -0.016610, 11.488277, 1.075745, -1.633586, -2.790876, 3.083244, 126.627090, 145.718262, -567.929199, , 
1759228321.846042, -0.146046, 14.486416, 0.262764, -1.562636, -2.074793, 3.342824, 127.123001, 143.508636, -570.348145, , 
1759228321.866047, -2.246958, 15.394567, -1.688361, -0.785690, -0.039717, 2.708480, 127.157135, 141.539230, -570.708496, , 
1759228321.886041, -4.600010, 14.295479, -1.551143, 0.458585, 1.664775, 1.256295, 127.297104, 140.580704, -568.573059, , 
1759228321.906063, -4.041263, 14.088231, -1.199944, 0.589438, 1.386543, 0.953868, 127.550705, 140.090332, -567.606873, , 
1759228321.926058, -4.432715, 10.855610, -2.765602, -0.332468, 1.841268, 1.392121, 127.318130, 139.384811, -566.708801, , 
1759228321.946081, -4.292355, 8.938303, -2.041655, -0.157360, 2.171772, 0.931376, 126.808167, 138.467484, -566.136536, , 
1759228321.966052, -1.721880, 7.477092, 1.383400, -0.203467, 1.759207, 0.683383, 126.448166, 137.725952, -565.171936, , 
1759228321.985394, 0.917279, 7.277625, 6.772897, -0.980047, -0.570991, 0.528290, 126.579941, 137.044373, -565.070862, , 
1759228322.006078, 0.872088, 5.329343, 3.049764, -1.850216, -1.719724, 0.449564, 126.727005, 136.515274, -566.459656, , 
1759228322.026055, 2.844611, 4.101417, -2.447473, -2.004201, -0.758622, 0.454052, 126.708954, 135.857193, -565.656006, , 
1759228322.046053, 3.194912, 5.818060, -2.347365, -1.285606, 0.265606, 0.820531, 126.588913, 135.112259, -566.428223, , 
1759228322.066054, -0.243311, 7.212682, -0.997634, -0.879688, 0.365514, 0.794396, 126.635330, 134.428177, -565.976990, , 
1759228322.085415, -1.428441, 8.852561, -0.038906, -0.882982, -0.079616, 0.722779, 126.635330, 133.677536, -565.690430, , 
1759228322.106063, -1.080383, 9.980828, -0.049530, -0.658698, -0.621976, 0.562894, 126.916473, 132.947769, -566.732910, , 
1759228322.126054, 0.433201, 10.190470, -0.592565, -0.422070, -0.563794, 0.444265, 127.334061, 132.301376, -566.342651, , 
1759228322.146052, -0.035314, 11.000908, 0.235380, -0.471426, -0.055940, 0.631629, 127.450867, 131.786270, -566.763245, , 
1759228322.166100, -1.436671, 13.486239, 0.826448, -0.511741, 0.216586, 0.920354, 127.073059, 130.874756, -567.192139, , 
1759228322.186030, -0.380828, 14.955081, 1.250970, -0.500856, 0.138116, 1.186236, 126.560287, 129.876770, -566.591675, , 
1759228322.206051, 0.901567, 16.071827, 0.440084, -0.451283, 0.118858, 1.205053, 126.604599, 128.946625, -566.710449, , 
1759228322.226052, -0.417938, 18.472762, -0.699705, 0.007318, 0.121806, 0.630995, 126.181427, 128.701874, -565.952820, , 
1759228322.246056, 0.370652, 14.553005, -2.187851, 0.726959, 0.065108, 0.064916, 126.159073, 129.068878, -566.245667, , 
1759228322.266052, -0.811485, 13.132495, -3.392883, 1.310302, 0.156056, -0.522923, 126.497879, 129.922821, -565.635742, , 
1759228322.286030, -0.659902, 13.245472, -4.249558, 1.893761, 0.219431, -1.045470, 126.687515, 130.936676, -565.047241, , 
1759228322.306060, -1.158195, 13.042264, -3.693206, 2.451240, 0.191746, -1.443762, 127.049622, 132.546249, -564.856812, , 
1759228322.326056, -1.827674, 12.652458, -2.369960, 2.692815, 0.133021, -1.710246, 127.509552, 134.095215, -563.812744, , 
1759228322.346059, -2.407070, 12.022633, 0.871340, 2.399846, 0.097144, -2.073916, 127.736191, 136.001236, -564.426514, , 
1759228322.366051, -1.323395, 12.720543, 2.961478, 1.797640, -0.344165, -2.541883, 127.994095, 138.282898, -564.350708, , 
1759228322.386036, 1.832462, 13.984083, 2.074725, 1.462068, -1.091741, -2.462878, 128.280304, 140.070786, -564.643982, , 
1759228322.406056, 3.597138, 13.605799, 2.688389, 0.833780, -1.369592, -2.108141, 128.555344, 141.864929, -566.359375, , 
1759228322.426058, 3.341707, 13.296498, 1.046715, 0.079779, -1.349908, -1.826575, 128.739212, 143.059555, -566.587280, , 
1759228322.446054, -0.040851, 11.556363, -3.091363, -0.069243, -1.196707, -2.139105, 128.810608, 145.130341, -568.272095, , 
1759228322.466052, -1.400309, 11.172392, -5.648969, 0.561461, 0.075524, -2.637125, 128.746796, 147.236282, -567.761597, , 
1759228322.486028, -2.718167, 11.382484, -2.797325, 1.131531, 1.925504, -2.896627, 128.015854, 149.518127, -566.209473, , 
1759228322.505551, -2.396745, 9.279477, 0.707337, 1.226561, 1.805256, -2.876738, 127.344696, 151.842056, -565.782104, , 
1759228322.526051, -0.575656, 6.419902, 0.643142, 1.129868, 1.846574, -2.424097, 126.431015, 153.688583, -564.246582, , 
1759228322.546049, 0.702100, 5.897368, 0.355090, 1.555198, 2.243817, -2.017794, 125.202805, 155.643356, -564.331604, , 
1759228322.566071, 1.552191, 5.135862, 0.243909, 1.715828, 2.597975, -1.786958, 124.225006, 156.963715, -563.783325, , 
1759228322.586027, 1.495927, 3.930531, 0.312593, 1.503476, 2.337070, -1.543187, 123.200333, 158.498062, -562.463318, , 
1759228322.605453, 1.078438, 3.275118, 0.411054, 1.222800, 1.945488, -1.342334, 122.336029, 159.615372, -561.960571, , 
1759228322.626052, 1.458069, 2.973449, 0.190040, 0.851353, 1.497590, -1.045391, 121.299118, 160.334610, -560.427490, , 
1759228322.646051, 1.902193, 2.425326, -0.595558, 0.320416, 1.144484, -0.616837, 120.951248, 160.884155, -561.080322, , 
1759228322.666070, 1.699285, 1.307533, -1.327884, -0.250431, 0.585229, -0.125330, 120.979919, 160.788773, -560.524048, , 
1759228322.685099, 1.064821, 1.313818, -2.025644, -0.620331, -0.547238, 0.478064, 121.517090, 160.171188, -560.127625, , 
1759228322.705554, 0.803554, 0.998382, -2.738069, -1.109093, -1.570818, 1.177669, 122.371078, 159.425247, -560.806641, , 
1759228322.726051, -5.664980, 9.312846, -6.284031, -1.500961, -2.007629, 0.985543, 123.777878, 158.175888, -559.958374, , 
1759228322.745550, 0.480786, 13.943382, 3.580529, -2.519997, -2.373369, 1.754278, 124.652405, 156.475571, -561.387817, , 
1759228322.766052, -8.926631, 23.337032, -6.673987, -1.825242, -2.730321, 1.346443, 126.122589, 155.264328, -561.101868, , 
1759228322.786027, -3.239953, 21.840955, -9.093627, -0.920117, -1.071593, 1.309074, 126.541428, 154.081390, -562.247192, , 
1759228322.806049, -0.602291, 8.093599, -0.892139, -0.937126, -0.666704, 1.298193, 126.856689, 153.054077, -563.021362, , 
1759228322.826053, 1.219846, 3.304597, -1.103278, -1.009444, -1.091439, 1.767737, 127.641495, 151.708878, -562.497437, , 
1759228322.846054, 1.463605, 3.834164, -0.452953, -1.142312, -1.566192, 2.210440, 128.497147, 150.137894, -563.720398, , 
1759228322.866056, 2.492663, 7.897274, 1.100884, -1.327906, -2.204165, 2.803201, 129.705643, 147.839005, -565.186890, , 
1759228322.886023, 3.118448, 13.631537, 2.033276, -1.640452, -2.423191, 3.731455, 130.299774, 144.669952, -565.713501, , 
1759228322.906049, 0.114772, 17.454628, 1.172560, -1.448681, -1.178324, 3.621991, 130.137009, 142.007599, -566.838501, , 
1759228322.926049, -3.441815, 17.314118, 0.186448, -0.641916, 0.879180, 1.809576, 130.587051, 140.536102, -564.638062, , 
1759228322.946051, -3.350984, 14.162750, -0.098013, -0.062331, 0.856583, 0.812962, 131.064087, 140.216721, -564.559265, , 
1759228322.966053, -3.155109, 11.946019, -0.931344, -0.781395, -0.313919, 1.158897, 131.251190, 139.115295, -564.682983, , 
1759228322.985379, -4.307468, 9.227702, -1.084873, -0.932612, -0.262404, 1.444716, 130.928131, 138.129135, -564.742310, , 
1759228323.005373, -3.822493, 7.346309, -0.821361, -0.618195, 0.132684, 1.038113, 130.893738, 137.168427, -565.296448, , 
1759228323.026049, -0.977732, 6.559813, 1.110311, -0.669260, 0.218470, 0.579334, 130.577164, 136.631378, -564.324829, , 
1759228323.045619, 0.562188, 6.392818, 1.421108, -1.161595, -0.446931, 0.433226, 131.017883, 136.058456, -565.609436, , 
1759228323.066049, 1.129465, 7.028179, -0.055665, -1.247884, -0.624389, 0.505525, 130.807556, 135.623550, -565.242920, , 
1759228323.085229, 1.212813, 7.314585, -1.057339, -1.133908, -0.311016, 0.571002, 130.867920, 134.925491, -565.569702, , 
1759228323.106047, 0.915184, 7.002591, -1.460463, -0.692679, 0.161371, 0.600047, 130.862091, 134.626801, -566.071655, , 
1759228323.126046, -0.210989, 6.484246, -0.344615, -0.511477, 0.164669, 0.443962, 130.849899, 134.135651, -565.280212, , 
1759228323.146051, -0.822558, 6.474969, 0.331298, -0.407402, -0.314682, 0.237037, 130.904099, 133.999100, -566.082520, , 
1759228323.166066, 0.414496, 7.850587, 0.637307, -0.461723, -0.486701, 0.313986, 130.852936, 133.594864, -566.400635, , 
1759228323.186020, 1.527201, 10.250026, 0.161309, -0.554095, -0.357015, 0.635977, 130.839188, 133.129608, -566.614075, , 
1759228323.205619, 1.222240, 13.591883, 0.588225, -0.644226, -0.031234, 1.041701, 130.809891, 132.121567, -566.681274, , 
1759228323.226038, 0.930896, 16.239571, 1.014693, -0.614140, 0.292744, 1.346477, 130.461243, 131.242126, -565.652222, , 
1759228323.246030, 2.189348, 15.918748, 0.967108, -0.526175, 0.406802, 1.529828, 130.112320, 130.031372, -566.477905, , 
1759228323.265211, 1.002871, 14.102446, -0.080206, -0.385802, 0.820081, 1.285937, 130.122330, 128.985443, -565.890137, , 
1759228323.286021, -1.042525, 15.237448, -0.237325, -0.025845, 0.473778, 0.839163, 130.005905, 128.274399, -565.078003, , 
1759228323.305582, -1.227028, 14.235175, -0.646734, 0.482468, 0.366267, 0.232893, 129.682999, 128.177887, -565.392334, , 
1759228323.325933, -0.941071, 12.501025, -1.660678, 0.960889, 0.233319, -0.329092, 129.695435, 128.311996, -564.533936, , 
1759228323.346052, -0.723797, 11.885715, -2.675820, 1.465109, -0.020706, -0.805750, 129.871185, 129.305664, -564.976990, , 
1759228323.366043, -1.067215, 11.377396, -3.476830, 2.070236, -0.135214, -1.251509, 130.674026, 130.506256, -564.388306, , 
1759228323.385583, -1.391480, 12.255020, -3.262549, 2.571767, -0.095175, -1.710372, 130.502365, 132.288727, -563.964966, , 
1759228323.405584, -2.720112, 12.637195, -0.466121, 2.670331, -0.092563, -2.302160, 131.042267, 134.576630, -564.111084, , 
1759228323.426043, -3.785981, 13.116484, 3.017143, 2.085662, -0.168204, -2.996907, 131.575836, 136.839691, -562.628723, , 
1759228323.446048, -0.515502, 15.139884, 3.378518, 1.331669, -0.275033, -3.091821, 131.435638, 139.628494, -563.417664, , 
1759228323.466045, 3.285294, 16.180015, 3.513790, 0.787107, -0.898626, -2.541595, 131.572296, 141.716736, -563.792786, , 
1759228323.486019, 5.758354, 14.726136, 1.132906, 0.171503, -1.708272, -1.719284, 131.501007, 143.240341, -565.684204, , 
1759228323.506041, 4.811747, 11.412561, -3.938611, 0.035812, -0.998300, -1.493872, 131.552750, 144.689682, -567.469849, , 
1759228323.525981, 1.409586, 9.897929, -5.525069, 0.630021, 1.001492, -1.969276, 131.388901, 145.964218, -566.308960, , 
1759228323.546041, -1.517325, 10.134656, -2.134431, 1.391307, 1.982704, -2.509080, 130.878876, 148.149918, -565.197144, , 
1759228323.566040, -2.858826, 9.767146, 1.411980, 1.573054, 1.176988, -2.891088, 130.359375, 150.594482, -564.414978, , 
1759228323.586019, -1.281048, 8.237101, 0.520589, 1.273649, 0.681605, -2.546645, 129.800354, 152.800690, -564.350159, , 
1759228323.606046, 0.378583, 6.736685, 0.020201, 1.491678, 1.606466, -1.894768, 128.544922, 154.515411, -564.736084, , 
1759228323.626044, 1.461211, 5.543026, 0.783802, 1.752186, 2.073417, -1.652953, 127.554932, 155.952148, -563.355835, , 
1759228323.646039, 1.108366, 5.666178, 0.450858, 1.750921, 2.289994, -1.650898, 126.538879, 157.914780, -563.238708, , 
1759228323.666040, 1.091756, 4.813842, 0.233584, 1.613796, 2.011132, -1.491706, 125.807755, 159.006897, -562.115540, , 
1759228323.686018, 1.613093, 2.634669, -0.476596, 1.391925, 1.880486, -1.061221, 125.006287, 160.315308, -561.465332, , 
1759228323.705733, 2.010830, 0.808791, -0.446968, 0.920548, 1.579780, -0.601028, 124.222824, 161.148849, -561.595581, , 
1759228323.726043, 1.663072, 0.564583, -0.472855, 0.239186, 1.181561, -0.162348, 123.627686, 161.390289, -560.235291, , 
1759228323.745056, 1.115698, 1.022923, -1.364246, -0.469929, 0.458515, 0.214810, 123.797409, 161.391144, -559.837952, , 
1759228323.766046, -0.334141, 1.642871, -3.743185, -0.822937, -1.067299, 0.754110, 124.580048, 160.751205, -559.538879, , 
1759228323.786015, -9.508722, 8.095394, -5.764190, -1.018573, -2.730851, 0.356180, 125.654053, 160.249481, -559.277893, , 
1759228323.805148, -4.516063, 14.236372, -1.525705, -1.755623, -2.129633, 0.711547, 125.929886, 159.015656, -560.588745, , 
1759228323.825858, -5.941211, 16.443527, -8.910321, -1.835815, -1.617846, 1.532284, 127.090530, 157.185196, -559.581360, , 
1759228323.846034, -2.455104, 19.183242, -3.231125, -1.798927, -1.510329, 1.268653, 128.000671, 155.990829, -560.505432, , 
1759228323.866025, -1.942895, 11.018116, -5.425710, -1.535907, -0.877161, 1.180794, 128.561890, 154.816437, -560.741577, , 
1759228323.885567, -1.556381, 8.513183, -2.542343, -1.395930, -0.746935, 1.203997, 129.199615, 153.768341, -560.938049, , 
1759228323.905164, 0.703297, 6.056881, -2.040458, -1.286799, -0.949093, 1.687298, 129.621048, 151.989639, -561.460876, , 
1759228323.926025, 1.774552, 7.892037, -0.573411, -1.421078, -1.503347, 2.650844, 130.388351, 150.063538, -561.192871, , 
1759228323.946080, 3.191620, 11.063007, 0.645686, -1.433590, -1.877567, 3.059247, 131.291016, 147.407013, -562.729675, , 
1759228323.966051, 3.421015, 14.805145, 0.552462, -1.339707, -1.633018, 3.638785, 132.039078, 144.181854, -563.880371, , 
1759228323.985368, 0.569820, 15.913061, 0.471658, -0.770094, -0.372725, 3.031521, 131.800003, 142.172409, -563.920410, , 
1759228324.005177, -1.118840, 14.672865, 0.352696, -0.137609, 1.333207, 1.319091, 132.408218, 141.467377, -562.285889, , 
1759228324.026040, -1.494431, 13.040319, 0.761805, -0.589308, 1.259114, 1.174541, 132.402191, 140.253525, -561.140320, , 
1759228324.046042, -2.908955, 10.559178, 1.073799, -1.216331, 0.165526, 1.262708, 132.216827, 139.178650, -561.648743, , 
1759228324.066046, -2.808997, 9.046192, 3.681384, -1.406618, -0.934567, 0.752405, 132.658829, 138.303329, -561.809631, , 
1759228324.086020, -2.101660, 8.269273, 0.260369, -1.378339, -1.265541, 0.614060, 133.092896, 137.649902, -563.004395, , 
1759228324.105954, -0.236727, 6.638672, -2.051382, -1.249721, -0.412751, 0.782288, 132.659180, 136.825943, -563.682922, , 
1759228324.126038, 0.845752, 6.313959, -0.111630, -1.367989, -0.212811, 0.805625, 132.849380, 135.900513, -563.389954, , 
1759228324.146076, 0.133177, 7.464373, -0.342221, -1.298102, -0.118454, 0.905473, 132.914993, 135.100159, -563.575500, , 
1759228324.166046, 0.041150, 7.643489, 0.311097, -1.053530, -0.013338, 1.001105, 132.675430, 133.958694, -563.934265, , 
1759228324.185575, 0.927005, 7.429208, -0.138116, -0.939578, -0.121449, 0.972528, 132.486435, 133.048996, -564.199951, , 
1759228324.205784, 1.307833, 7.149236, -1.149815, -0.676819, -0.035364, 0.723547, 132.506302, 132.467300, -564.370972, , 
1759228324.226037, 0.697162, 7.644686, 0.644340, -0.546211, -0.408371, 0.601862, 132.634750, 131.855667, -564.017700, , 
1759228324.246074, -0.306607, 8.707412, 0.866402, -0.601260, -0.439818, 0.441442, 132.797501, 131.472244, -564.875488, , 
1759228324.266046, -0.670077, 10.950480, 1.730709, -0.682064, -0.449666, 0.380897, 132.700211, 130.883804, -564.913574, , 
1759228324.286012, 1.675492, 13.073389, 1.827075, -0.638542, -0.424343, 0.569485, 132.574905, 130.306488, -565.513550, , 
1759228324.305225, 3.482217, 13.087155, 0.749086, -0.547674, 0.031315, 0.846459, 132.169281, 129.668304, -565.791077, , 
1759228324.326036, 3.580229, 13.635876, -0.260818, -0.477143, 0.111133, 0.791462, 132.118317, 128.975037, -565.501465, , 
1759228324.346037, 0.926706, 14.600141, -1.735198, -0.054603, -0.263733, 0.416337, 132.044418, 128.582184, -565.847290, , 
1759228324.366038, -0.710330, 15.847969, -1.970428, 0.580886, -0.758569, -0.032034, 132.169922, 128.818359, -565.997742, , 
1759228324.386011, -0.655562, 14.883704, -2.560748, 1.123429, -0.537006, -0.506399, 132.534103, 129.334869, -566.100769, , 
1759228324.405663, -0.891990, 13.227964, -2.803012, 1.657905, 0.198016, -0.775890, 132.743011, 130.275482, -565.809387, , 
1759228324.426035, -1.351826, 12.945748, -2.284368, 2.091251, 0.454457, -1.019363, 132.751678, 131.282257, -564.414185, , 
1759228324.446034, -2.334796, 12.837709, -1.731307, 2.524029, 0.363113, -1.327072, 132.963242, 132.851639, -564.440063, , 
1759228324.466040, -5.006575, 12.658144, 1.107169, 2.484050, 0.569867, -1.999734, 133.140945, 134.840836, -563.654968, , 
1759228324.486011, -5.180454, 13.765462, 4.712986, 1.689060, 0.648124, -2.900896, 133.463806, 137.356735, -562.984070, , 
1759228324.505988, 0.100706, 15.509489, 4.271106, 1.262012, 0.358001, -2.591581, 133.282455, 139.895844, -563.025879, , 
1759228324.526032, 3.305195, 14.241759, 2.548328, 0.992819, 0.080678, -1.956667, 132.915482, 141.498398, -562.369629, , 
1759228324.545288, 4.859930, 14.091074, 0.656610, 0.873136, 0.122957, -1.302806, 132.839859, 142.863281, -563.241577, , 
1759228324.566033, 4.471621, 12.214319, 0.159963, 0.954732, -0.337740, -1.162891, 132.341995, 144.164688, -563.898438, , 
1759228324.586010, 4.281730, 9.305065, -3.313575, 1.314589, -0.759115, -1.830341, 132.534836, 145.983643, -564.843201, , 
1759228324.606042, 2.857480, 8.305037, -4.067599, 1.292456, 0.434687, -2.233529, 132.295227, 148.137131, -564.568237, , 
1759228324.626034, -0.575955, 9.068039, -0.695216, 1.199277, 1.305108, -2.563632, 132.073212, 150.240814, -563.793884, , 
1759228324.646034, -2.316240, 9.686641, 1.235707, 1.413118, 1.329742, -2.829821, 131.397629, 152.817810, -562.886658, , 
1759228324.665089, -1.993771, 9.509769, 1.930624, 1.635333, 1.301865, -2.515121, 130.480881, 155.168747, -562.394287, , 
1759228324.686008, -0.570568, 7.080402, 0.540491, 1.820464, 1.636633, -2.004403, 129.052551, 157.108780, -562.535217, , 
1759228324.705861, 1.463605, 4.733636, 0.435296, 1.736085, 1.858535, -1.786702, 127.703445, 158.876541, -562.778687, , 
1759228324.725973, 2.313697, 3.475633, 0.331298, 1.405417, 1.934438, -1.627358, 126.731003, 160.115143, -561.706665, , 
1759228324.746043, 2.018611, 2.725799, 0.005537, 1.040562, 1.805905, -1.335215, 125.828522, 161.345901, -561.391113, , 
1759228324.766062, 1.734300, 2.145205, -0.543334, 0.658193, 1.394023, -1.002555, 124.941223, 162.072891, -560.354675, , 
1759228324.785407, 1.794604, 1.982249, -0.773177, 0.188540, 0.923918, -0.577304, 124.317932, 162.866684, -560.272461, , 
1759228324.805925, 1.613991, 2.075922, -1.531242, -0.397123, 0.539094, -0.131838, 124.057663, 162.854218, -559.873108, , 
1759228324.826033, 0.282965, 2.173486, -2.586486, -0.964470, -0.076633, 0.339407, 124.476669, 162.308670, -558.304199, , 
1759228324.846037, -2.987964, 3.579032, -5.045780, -0.885054, -1.655914, 0.901507, 125.392120, 161.561691, -559.420288, , 
1759228324.865114, -9.783157, 10.141539, -5.180903, -0.560870, -2.972157, 0.813960, 126.459793, 160.890762, -559.525696, , 
1759228324.886014, 4.576965, 16.164901, -3.377171, -1.627351, -0.770825, 1.710296, 127.274353, 159.500381, -560.565369, , 
1759228324.906027, -5.697751, 20.029891, -8.769362, -1.025608, -1.188707, 1.617964, 128.112732, 158.157532, -560.159607, , 
1759228324.926032, -0.651223, 13.579313, -0.606332, -1.604133, -1.025553, 1.332371, 128.641983, 156.762085, -560.434021, , 
1759228324.946065, -0.157568, 7.662194, -0.661847, -1.473948, -1.092057, 1.386947, 129.252304, 155.672867, -561.295044, , 
1759228324.966035, 0.771831, 5.429750, -1.465401, -1.176160, -1.596501, 1.620896, 130.105118, 154.158325, -561.752380, , 
1759228324.986006, 2.091485, 7.890989, -0.236577, -1.392633, -1.818102, 2.078332, 131.241089, 152.526062, -562.567749, , 
1759228325.005330, 2.911349, 12.097901, 1.155352, -1.752789, -2.293000, 2.696728, 132.315720, 150.155273, -563.522583, , 
1759228325.025874, 1.594389, 16.582540, 1.353622, -1.874755, -2.601285, 3.009590, 133.348282, 147.378220, -564.600952, , 
1759228325.046076, -0.631171, 16.604537, 0.931644, -1.708974, -2.007692, 2.487005, 134.256119, 145.224213, -566.282959, , 
1759228325.066069, -2.116325, 13.839084, -0.780959, -0.856691, -0.187395, 1.641663, 134.272766, 143.600571, -566.125671, , 
1759228325.086005, -2.529773, 11.921329, 0.804152, -0.020509, 0.461425, 0.816642, 134.783920, 142.942795, -565.624268, , 
1759228325.105328, -1.409586, 10.763433, 1.257554, 0.265043, 0.121085, 1.039968, 134.879929, 142.404755, -565.966064, , 
1759228325.126035, -1.807922, 9.534908, 0.879271, -0.251715, 0.090622, 1.794243, 135.190475, 141.209518, -565.287109, , 
1759228325.146037, -3.971981, 7.831733, 0.387262, -0.886412, 0.399667, 1.774131, 134.668732, 139.516174, -565.746704, , 
1759228325.166063, -3.914669, 6.707955, 0.438737, -0.998563, -0.120881, 1.024189, 134.687378, 138.217453, -565.414978, , 
1759228325.186005, -1.875109, 6.010194, -0.797120, -0.826933, -0.284133, 0.636658, 134.349945, 137.609894, -565.784729, , 
1759228325.205947, -0.288352, 6.066757, 0.574010, -0.898086, -0.241232, 0.574214, 134.479355, 137.064117, -566.254639, , 
1759228325.226028, 0.390853, 6.424990, 0.082450, -0.920225, -0.178082, 0.516856, 134.173050, 136.255493, -565.785156, , 
1759228325.246098, 1.229273, 7.083545, -0.018256, -0.896134, 0.140668, 0.489412, 134.100754, 135.747299, -566.198792, , 
1759228325.266049, 2.668787, 7.329250, -0.971148, -0.815183, 0.126708, 0.616770, 133.929703, 134.926514, -565.075806, , 
1759228325.286002, 2.279729, 8.366837, -0.767940, -0.707499, 0.042127, 0.579143, 134.026642, 134.349197, -565.900757, , 
1759228325.305327, 2.614767, 11.931205, -0.437391, -0.656175, -0.160266, 0.727137, 134.007736, 133.679504, -566.046143, , 
1759228325.326025, 2.626439, 14.397083, 0.166696, -0.592126, -0.293580, 1.026423, 134.003693, 132.701401, -565.682434, , 
1759228325.346044, 1.569998, 13.211953, -0.540641, -0.454636, -0.080478, 1.246456, 133.801437, 131.830719, -566.405640, , 
1759228325.366047, 0.558298, 13.106010, -0.913238, -0.434162, 0.174768, 1.200857, 133.667526, 130.434601, -565.436584, , 
1759228325.386002, -0.226102, 14.029423, -1.384597, -0.161014, 0.433849, 0.915272, 133.315582, 129.715073, -565.977539, , 
1759228325.406022, -2.163012, 15.578172, -0.593163, 0.429738, 0.291016, 0.469312, 133.274307, 129.597824, -565.662781, , 
1759228325.425195, -1.598130, 13.568689, -1.341950, 1.004492, 0.275938, -0.111673, 133.171158, 129.580704, -564.814209, , 
1759228325.446029, -1.044022, 11.674726, -2.224962, 1.386051, 0.208057, -0.650351, 133.425171, 130.317688, -564.834229, , 
1759228325.466087, -1.176451, 12.168829, -2.838027, 1.704849, 0.126487, -1.104344, 133.525040, 131.600769, -563.255005, , 
1759228325.486001, -1.829469, 12.681338, -2.555361, 2.044283, 0.109667, -1.518119, 133.997498, 133.123291, -563.804932, , 
1759228325.506023, -3.156156, 12.779201, -1.132308, 2.280528, -0.179316, -1.997623, 134.058990, 135.192032, -563.552246, , 
1759228325.526025, -5.317821, 12.996325, 2.557606, 1.966555, -0.039887, -2.816265, 134.405441, 137.638107, -563.221313, , 
1759228325.546034, -1.629404, 14.889241, 4.795736, 1.088597, 0.284258, -3.143337, 134.317474, 140.739456, -562.895996, , 
1759228325.566026, 2.211345, 14.915128, 3.485958, 0.712681, -0.028368, -2.496489, 133.856384, 143.238144, -562.627930, , 
1759228325.586000, 3.928286, 14.948048, 1.310227, 0.412769, -0.338313, -1.936002, 133.498322, 145.415176, -563.867676, , 
1759228325.606035, 3.822343, 14.312238, -1.624615, 0.259776, -0.548125, -1.796054, 133.179062, 147.217453, -564.465759, , 
1759228325.626025, 2.675371, 12.388796, -4.811896, 0.599520, 0.349687, -2.235892, 132.822189, 149.053970, -564.545288, , 
1759228325.646024, 1.467646, 10.916512, -1.327585, 0.882106, 1.712551, -2.252177, 132.083405, 151.344589, -564.297119, , 
1759228325.666025, -0.645387, 8.927828, 1.778443, 1.029121, 1.580278, -2.329895, 131.333298, 153.102325, -562.569641, , 
1759228325.686000, -1.564312, 8.046164, 0.449811, 1.040527, 0.962870, -2.456777, 130.514236, 155.535400, -562.868958, , 
1759228325.706023, -0.617854, 8.364742, -0.229394, 1.354040, 1.659478, -2.221308, 129.171387, 157.770966, -562.134705, , 
1759228325.726026, 0.180014, 6.814347, -0.134823, 1.690078, 2.256818, -2.055444, 127.568710, 159.621170, -561.586609, , 
1759228325.746024, 1.427543, 4.761917, 0.060903, 1.557127, 2.335088, -1.874958, 126.161041, 161.417023, -561.779724, , 
1759228325.766079, 2.150891, 3.106477, 0.892588, 1.470957, 2.120391, -1.710717, 124.450562, 163.089706, -560.197083, , 
1759228325.786006, 2.078766, 3.132663, 0.853234, 1.311900, 1.951756, -1.545034, 123.066910, 164.560699, -560.806580, , 
1759228325.806009, 1.799542, 3.190723, 0.795174, 0.860396, 1.484325, -1.412752, 121.832306, 165.929657, -560.247253, , 
1759228325.826004, 1.493084, 3.647117, 0.104597, 0.258851, 1.093545, -1.216035, 120.745850, 166.635162, -559.235596, , 
1759228325.846009, 1.520168, 3.967940, -0.745794, -0.424917, 0.779650, -0.944288, 119.762543, 167.436356, -559.430969, , 
1759228325.866005, 1.064522, 3.260454, -0.990002, -1.175638, 0.287233, -0.588192, 119.006668, 167.622131, -557.630615, , 
1759228325.885999, 0.427365, 3.201197, -1.508946, -1.501379, -0.122819, -0.341928, 119.263535, 167.531784, -557.185913, , 
1759228325.906021, -2.602497, 4.299986, -2.912696, -1.631225, -1.437948, 0.358450, 120.087051, 166.889618, -556.490295, , 
1759228325.925295, -6.840384, 8.932317, -4.795586, -1.009828, -3.056679, 0.890406, 121.742477, 166.239807, -556.429199, , 
1759228325.946033, -1.609801, 14.998776, -2.270302, -1.133136, -2.229359, 1.622963, 122.309158, 165.111664, -558.115967, , 
1759228325.966017, -4.068198, 17.888278, -6.123769, -1.337286, -1.031388, 1.844398, 123.707230, 163.537231, -556.583130, , 
1759228325.985569, -5.041889, 21.766435, -4.566940, -0.752836, -1.114416, 1.381038, 124.623489, 162.654984, -558.333740, , 
1759228326.006017, -0.763451, 11.211149, -5.294029, -0.466644, -0.093460, 1.653653, 125.352142, 161.436493, -558.188477, , 
1759228326.026023, 0.978181, 5.023185, 0.438737, -0.665419, -0.611002, 1.918705, 126.090012, 160.191986, -558.531616, , 
1759228326.046023, 2.319532, 3.412186, 0.379481, -0.918986, -1.282206, 2.315554, 127.325912, 158.436325, -559.460938, , 
1759228326.066020, 2.907159, 6.524200, 0.230442, -1.284174, -1.838986, 2.632400, 128.730652, 156.292084, -558.846252, , 
1759228326.085387, 2.861670, 11.908609, 1.815254, -1.717095, -2.169943, 2.892676, 129.892044, 154.200821, -560.618286, , 
1759228326.105553, 1.027861, 16.611719, 2.643797, -2.115927, -2.097900, 2.980113, 131.213821, 151.395828, -560.364075, , 
1759228326.126020, -2.037915, 18.895040, 2.119317, -2.140040, -1.601870, 2.311710, 132.208817, 148.946899, -561.017822, , 
1759228326.146024, -3.886537, 15.949274, -0.513556, -0.778300, -0.284956, 1.193284, 133.127304, 147.746170, -562.280029, , 
1759228326.166021, -2.584391, 10.930578, 0.043395, 0.424072, -0.155356, 0.846238, 133.335846, 147.303696, -561.271729, , 
1759228326.185996, -2.006491, 9.197026, -0.237325, 0.560924, -0.088598, 1.461157, 133.769318, 146.753845, -562.528015, , 
1759228326.206022, -3.684527, 7.814973, -1.204583, -0.373409, 1.382047, 1.966005, 133.197525, 144.958450, -561.891968, , 
1759228326.226021, -4.076278, 7.155371, 1.722927, -0.694698, 1.295928, 1.251924, 132.743225, 143.730484, -560.397217, , 
1759228326.246000, -2.113182, 7.367557, 1.841291, -0.987644, -0.345958, 0.712939, 132.732132, 143.257645, -560.955322, , 
1759228326.266026, -0.746841, 7.348553, -0.258723, -0.955689, -0.758382, 0.567924, 133.000137, 142.472046, -560.398438, , 
1759228326.285996, 0.739509, 7.100304, 0.079458, -0.975516, -0.493811, 0.607061, 132.969955, 141.899994, -561.678955, , 
1759228326.306019, 2.074127, 7.271340, -0.113725, -0.912420, 0.247238, 0.638176, 132.842651, 141.079575, -561.367554, , 
1759228326.326020, 1.413477, 6.812850, -1.285387, -0.704491, 0.574301, 0.641209, 132.581726, 140.392334, -560.016846, , 
1759228326.346018, 0.692523, 7.252935, -0.057311, -0.601025, 0.198289, 0.513769, 132.698563, 139.663620, -560.734680, , 
1759228326.366021, 1.935113, 9.204658, -0.532261, -0.490778, -0.270134, 0.548801, 133.145004, 138.907623, -560.093201, , 
1759228326.385993, 2.246509, 11.829002, 0.109385, -0.498770, -0.214033, 0.916338, 133.483215, 138.535950, -560.793579, , 
1759228326.406019, 1.754351, 13.142521, 0.219219, -0.452782, 0.084604, 1.292945, 133.312408, 137.135376, -560.888428, , 
1759228326.426020, 0.952593, 13.170354, -0.139911, -0.318358, 0.436751, 1.276328, 133.042587, 135.899780, -560.000122, , 
1759228326.446030, 1.609352, 14.315979, -0.380678, -0.244085, 0.278864, 1.093337, 132.778397, 135.279877, -560.690674, , 
1759228326.466021, 0.127791, 17.047015, -0.767641, -0.035957, 0.239094, 0.711097, 132.821350, 134.603409, -559.501587, , 
1759228326.485993, -2.656217, 15.197045, -0.754922, 0.691084, 0.279962, 0.221644, 132.415466, 134.884872, -559.498047, , 
1759228326.506018, -0.516998, 10.353575, -1.671003, 1.188632, -0.121532, -0.372911, 132.167587, 135.674606, -559.978394, , 
1759228326.526016, 0.241066, 10.558130, -2.527080, 1.388771, -0.376540, -0.828439, 132.085770, 136.700912, -559.878052, , 
1759228326.546015, 0.190189, 12.475287, -2.774880, 1.628357, -0.303964, -1.287159, 132.092834, 138.198624, -560.291199, , 
1759228326.566019, -1.107318, 12.716204, -2.119766, 1.897565, -0.228660, -1.702681, 132.149948, 140.056030, -559.969421, , 
1759228326.585378, -1.885135, 11.949610, -0.863858, 2.167343, -0.542512, -2.163145, 132.156143, 142.570160, -561.123413, , 
1759228326.606000, -3.827131, 11.218481, 2.644096, 1.703929, -0.102142, -2.812856, 131.479340, 146.590027, -561.546875, , 
1759228326.625991, 0.899322, 12.491897, 2.909853, 1.236386, 0.320621, -2.731346, 131.002625, 148.900284, -561.071106, , 
1759228326.646000, 2.210596, 13.800927, 1.576283, 0.989837, 0.763046, -2.108263, 129.699692, 150.899979, -561.409912, , 
1759228326.665997, 2.516904, 13.873351, 1.993472, 0.653104, 0.377791, -1.747872, 128.903046, 152.504105, -561.513733, , 
1759228326.685991, 2.466926, 13.413066, -0.294636, 0.611856, -0.392218, -1.791999, 128.382996, 153.901749, -561.725708, , 
1759228326.706004, 1.110461, 12.309339, -3.428497, 0.892642, -0.223421, -2.027449, 127.681580, 155.851364, -562.442627, , 
1759228326.726007, 0.124947, 10.380061, -2.764704, 1.042640, 1.210262, -2.141105, 126.529984, 157.179871, -561.310913, , 
1759228326.745997, -0.446668, 9.734076, 0.604087, 0.996653, 1.567088, -2.136076, 125.111145, 159.122162, -561.909119, , 
1759228326.766001, -1.069610, 8.963891, 0.536451, 1.116596, 0.790216, -2.283347, 124.090347, 160.746994, -561.743103, , 
1759228326.785550, -0.196773, 8.355465, -1.794155, 1.263699, 0.969016, -2.184483, 122.581543, 162.358078, -561.597107, , 
1759228326.805998, 1.242890, 8.050653, -2.034174, 1.415105, 1.617097, -1.914847, 120.880676, 163.759430, -562.238708, , 
1759228326.825995, 1.607108, 6.765116, -0.024241, 1.357181, 1.759230, -1.821193, 119.485031, 164.909317, -561.363037, , 
1759228326.845998, 1.025466, 6.167164, -0.620996, 1.355312, 1.576067, -1.786968, 118.264511, 166.244904, -561.837402, , 
1759228326.865999, 0.483479, 6.135890, -0.728137, 1.324919, 1.358478, -1.646345, 116.779587, 167.537796, -562.142822, , 
1759228326.885991, 0.073173, 5.644929, -0.463428, 1.202501, 1.273059, -1.445232, 115.856766, 168.181610, -561.841797, , 
1759228326.905999, -0.273089, 5.493047, -0.496198, 0.899905, 1.028646, -1.290509, 114.759430, 168.984100, -562.402405, , 
1759228326.925612, -0.117914, 5.079149, -1.094749, 0.584882, 0.900716, -1.050514, 114.006363, 169.300781, -562.119446, , 
1759228326.946012, -0.404470, 4.730045, -1.298555, 0.237539, 0.774600, -0.823431, 113.161240, 169.712631, -562.211182, , 
1759228326.966004, -1.164779, 4.916792, -1.693449, -0.073092, 0.661422, -0.561040, 112.721542, 169.982300, -562.043579, , 
1759228326.985982, -1.463306, 4.452467, -2.266262, -0.404993, 0.633107, -0.230031, 112.456604, 169.679337, -560.373840, , 
1759228327.005651, -1.852214, 4.091990, -3.229778, -0.745262, 0.472682, 0.146764, 112.601837, 169.697601, -560.602966, , 
1759228327.026006, -2.149544, 3.964948, -4.848408, -0.859382, 0.054657, 0.605439, 112.852295, 169.225143, -559.334290, , 
1759228327.045992, -3.405752, 5.932832, -10.050709, -0.224357, -0.404310, 1.071585, 113.334183, 168.843307, -559.928162, , 
1759228327.066011, -13.967473, 13.174843, -3.029114, -0.640738, -1.057185, -0.188086, 114.077942, 168.923782, -559.075317, , 
1759228327.085988, -3.084181, 12.468853, -1.080084, -1.946066, -0.345542, 0.640938, 114.072418, 167.705215, -558.396790, , 
1759228327.105688, -5.244349, 19.622129, -3.196708, -1.282466, -0.260011, 0.593796, 113.826813, 167.242569, -558.729492, , 
1759228327.126014, 2.597110, 9.963620, -10.207380, -0.617540, 0.519952, 0.991491, 114.193115, 166.408661, -557.761353, , 
1759228327.146011, -0.380678, 3.317466, 1.984644, -1.484363, -0.012028, 1.058857, 114.833389, 165.520813, -556.901978, , 
1759228327.165427, 0.125097, 4.616320, -3.187281, -1.388599, -0.657941, 1.193420, 115.439804, 164.591599, -556.676025, , 
1759228327.185981, 1.240346, 9.469367, -1.950975, -1.457308, -0.887616, 1.405553, 116.430145, 163.029953, -555.777710, , 
1759228327.206027, 2.050484, 12.025027, -1.037138, -1.448660, -1.248086, 1.654318, 117.291977, 162.102844, -556.598694, , 
1759228327.226013, 1.301099, 13.340342, -1.051204, -1.283520, -1.620101, 1.694275, 118.746948, 160.884201, -555.875366, , 
1759228327.246021, 0.692074, 11.981184, -0.910694, -1.197321, -1.474009, 1.646870, 120.196640, 159.643448, -556.556580, , 
1759228327.266028, -0.749385, 10.542268, -0.069282, -1.266122, -0.962530, 1.551890, 121.480377, 158.283173, -556.880310, , 
1759228327.285542, -1.446247, 10.685322, 0.530316, -1.193523, -0.757896, 1.520406, 122.382858, 157.114899, -555.955933, , 
1759228327.305327, -1.753902, 10.988787, 0.628927, -1.002778, -0.487575, 1.515301, 122.855774, 155.869843, -556.417725, , 
1759228327.326022, -2.086547, 11.230302, 0.822109, -0.763791, -0.291104, 1.494289, 123.342667, 154.590881, -555.803345, , 
1759228327.346020, -2.455553, 10.703129, 0.178518, -0.474955, -0.366778, 1.385304, 123.830200, 153.830566, -556.729980, , 
1759228327.366017, -1.994220, 9.494506, -1.716792, -0.484675, -0.195577, 1.369894, 124.300247, 152.676208, -557.000977, , 
1759228327.385985, -1.883189, 8.618827, -2.861221, -0.431419, 0.578822, 1.040904, 124.224991, 151.768341, -555.977051, , 
1759228327.406005, -0.636259, 8.087015, -0.223858, -0.326384, 0.996237, 0.752391, 124.018997, 151.364456, -555.612610, , 
1759228327.426007, 0.668132, 8.035839, 1.204732, -0.599557, 0.255133, 0.802245, 123.783279, 150.319763, -554.190063, , 
1759228327.446011, 0.443526, 7.728633, -0.254234, -0.622473, 0.069203, 0.806203, 123.876663, 149.771210, -554.909302, , 
1759228327.466007, 0.336984, 7.798364, -1.443853, -0.612184, 0.213065, 0.679453, 123.485779, 149.313339, -554.121521, , 
1759228327.485982, 0.764499, 8.567202, -0.827197, -0.485140, 0.151677, 0.618164, 123.488785, 148.532242, -553.235962, , 
1759228327.506012, 1.010203, 9.905112, -1.086070, -0.321290, 0.014755, 0.616360, 123.649689, 147.984253, -553.735718, , 
1759228327.525700, 0.890793, 10.653300, -1.140987, -0.200576, 0.231167, 0.571518, 123.520874, 147.493164, -552.674194, , 
1759228327.546007, 0.280271, 10.579977, -1.263690, -0.132026, 0.211029, 0.514181, 123.625137, 147.409363, -553.231506, , 
1759228327.566002, -1.154155, 10.358065, -2.236484, -0.003400, 0.178418, 0.356387, 123.578415, 147.025833, -553.088867, , 
1759228327.585985, -2.070236, 11.356147, -1.321899, 0.279155, 0.056058, 0.031435, 123.510178, 147.044952, -552.785034, , 
1759228327.606009, -1.812560, 11.484686, 1.407342, 0.533954, -0.051539, -0.362502, 123.683395, 147.366531, -553.629761, , 
1759228327.626008, -0.202460, 8.744223, 2.257732, 0.127760, 0.111487, -0.240158, 123.528351, 147.457626, -552.847900, , 
1759228327.646002, 1.169867, 8.679280, 2.868403, -0.395610, 0.771462, -0.272259, 123.204910, 147.609909, -553.283020, , 
1759228327.666063, 2.810942, 8.565107, 2.441637, -0.647614, 0.847519, 0.121429, 123.076035, 147.300247, -552.681213, , 
1759228327.685982, 3.296217, 7.890840, 0.976834, -0.463374, 0.921552, 0.484353, 122.561935, 146.894547, -551.981079, , 
1759228327.706026, 2.682104, 8.115895, 1.085770, -0.281662, 1.314463, 0.623482, 122.032791, 146.342499, -551.998169, , 
1759228327.726009, 1.677438, 8.672098, -0.732326, -0.310840, 1.181616, 0.479963, 121.522415, 145.912506, -550.328674, , 
1759228327.746013, 2.156128, 10.188525, -1.714548, -0.244796, 0.512159, 0.247856, 121.484360, 145.936111, -550.475098, , 
1759228327.766004, 2.174384, 10.543166, -0.919972, -0.005571, -0.179672, 0.126271, 121.469818, 145.682083, -550.384521, , 
1759228327.785981, 2.466626, 10.150667, 0.194978, 0.098683, -0.196656, 0.055104, 121.450638, 145.644867, -550.379333, , 
1759228327.805984, 2.364723, 9.631424, 1.899500, 0.142313, 0.227927, 0.225175, 121.631790, 145.815384, -550.606750, , 
1759228327.825988, 0.837671, 9.941025, 2.230648, 0.077155, 0.822572, 0.303322, 121.378922, 145.487198, -549.899536, , 
1759228327.845989, 0.149488, 10.412383, 1.266084, 0.046317, 0.617877, 0.147801, 121.091309, 145.595520, -550.235474, , 
1759228327.866023, 0.539593, 10.407295, 0.585682, 0.069541, 0.359225, 0.009589, 120.904022, 145.667313, -550.078796, , 
1759228327.885986, 2.436848, 9.500940, -0.039804, 0.178754, 0.391870, -0.129778, 120.800140, 145.647934, -549.445007, , 
1759228327.905310, 3.358466, 9.073276, 1.255908, 0.088784, 0.636700, -0.029498, 120.397659, 145.721024, -549.695007, , 
1759228327.925759, 2.741062, 8.939201, 0.851737, 0.028415, 0.598486, 0.062309, 120.198792, 145.701157, -549.113892, , 
1759228327.945179, 2.036867, 8.763975, 0.150087, 0.126459, 0.338549, 0.036000, 120.220566, 145.781113, -548.979370, , 
1759228327.966007, 2.577358, 8.827870, 0.627730, 0.130527, 0.224746, 0.044518, 120.034851, 145.709106, -548.694763, , 
1759228327.985982, 3.317466, 9.670031, 1.086070, 0.031202, 0.223926, 0.142544, 119.875443, 145.613953, -548.310669, , 
1759228328.005865, 3.213468, 10.226982, 0.968903, -0.046816, 0.233945, 0.229570, 119.930298, 145.418762, -548.870117, , 
1759228328.026003, 2.289904, 9.851691, 0.699257, -0.086258, 0.232312, 0.212010, 119.956955, 145.410767, -548.110840, , 
1759228328.046006, 1.853860, 9.594314, 0.587328, -0.114964, 0.079269, 0.136603, 119.982956, 145.336960, -548.914917, , 
1759228328.066002, 2.136226, 9.407567, 0.346411, -0.106499, -0.073455, 0.079583, 119.866516, 145.063171, -548.537476, , 
1759228328.085979, 2.339135, 9.311948, 0.373645, -0.082954, -0.123205, 0.048447, 119.872223, 144.815109, -547.933350, , 
1759228328.105292, 2.358588, 9.490316, 0.603788, -0.078932, -0.181161, 0.030667, 119.840210, 145.041916, -548.560669, , 
1759228328.126003, 2.275389, 9.569624, 0.378882, -0.063566, -0.263994, 0.021708, 120.252106, 144.925217, -548.006958, , 
1759228328.146041, 2.126201, 9.570821, 0.322918, -0.037429, -0.326101, 0.013290, 120.281464, 145.030197, -548.663086, , 
1759228328.166015, 1.995118, 9.488371, 0.665289, -0.061573, -0.334054, 0.007324, 120.573669, 144.874741, -548.707581, , 
1759228328.185541, 1.742680, 9.608380, 0.565481, -0.086823, -0.305184, 0.014686, 120.457016, 144.954865, -548.339417, , 
1759228328.205288, 1.368586, 9.774777, 0.432602, -0.098158, -0.259753, 0.005832, 120.742706, 145.037582, -549.186401, , 
1759228328.225979, 1.190218, 9.857976, 0.424372, -0.085279, -0.253838, -0.015212, 120.666977, 144.873077, -548.743713, , 
1759228328.245565, 1.213262, 9.783606, 0.590919, -0.085776, -0.253929, -0.028045, 120.844833, 144.827332, -549.222534, , 
1759228328.266005, 1.368436, 9.541343, 0.462679, -0.090815, -0.205399, -0.032203, 120.988861, 144.870132, -549.050354, , 
1759228328.285978, 1.375469, 9.441684, 0.236278, -0.077418, -0.084306, -0.020274, 121.060333, 144.841736, -548.530334, , 
1759228328.305859, 1.298106, 9.464878, 0.319027, -0.064913, -0.071775, -0.045846, 120.925049, 144.870987, -549.297974, , 
1759228328.325892, 1.369633, 9.501240, 0.347010, -0.045518, -0.110966, -0.079034, 120.862061, 144.694489, -548.923584, , 
1759228328.346001, 1.492186, 9.556606, 0.313341, -0.037716, -0.123581, -0.100683, 120.906174, 144.885712, -549.078125, , 
1759228328.366003, 1.729212, 9.859622, 0.362273, -0.022311, -0.176487, -0.112276, 121.199570, 144.997375, -549.707214, , 
1759228328.385977, 1.877952, 9.807099, 0.363619, -0.013929, -0.262072, -0.093426, 121.105560, 145.087128, -549.235413, , 
1759228328.405296, 1.548151, 9.736620, 0.420482, -0.039564, -0.217464, -0.059646, 121.325455, 145.140579, -549.516785, , 
1759228328.426002, 1.460463, 9.785252, 0.515202, -0.085239, -0.173593, -0.054300, 121.331070, 144.957489, -549.130371, , 
1759228328.446039, 1.272219, 9.566931, 0.653916, -0.091966, -0.216902, -0.048884, 121.519394, 145.017334, -549.453796, , 
1759228328.466052, 1.272817, 9.451710, 0.611419, -0.116881, -0.165653, -0.043525, 121.545502, 145.049942, -549.852600, , 
1759228328.485803, 1.395969, 9.496451, 0.440683, -0.132122, -0.107592, -0.026853, 121.519867, 144.944611, -549.683838, , 
1759228328.505294, 1.294066, 9.499294, 0.453851, -0.114488, -0.152959, -0.003066, 121.616531, 144.840607, -550.134949, , 
1759228328.525675, 1.082329, 9.482086, 0.452205, -0.120073, -0.174877, -0.014326, 121.508621, 144.872452, -549.794983, , 
1759228328.545998, 0.902464, 9.706542, 0.213234, -0.143806, -0.043983, -0.068953, 121.590286, 144.870605, -550.058960, , 
1759228328.565908, 1.135749, 10.015544, 0.432153, -0.133416, -0.052642, -0.093636, 121.570557, 144.818497, -549.879272, , 
1759228328.585495, 1.239897, 9.614366, 0.618003, -0.081234, -0.145466, -0.092678, 121.680405, 144.802399, -549.633972, , 
1759228328.605908, 1.124976, 9.504981, 0.764499, -0.106287, -0.117176, -0.080490, 121.699387, 144.992844, -550.331848, , 
1759228328.626002, 0.879719, 10.472238, 0.703895, -0.150225, -0.093525, -0.073623, 121.780228, 144.938644, -549.645752, , 
1759228328.646031, 1.019032, 11.059416, 0.772130, -0.162452, -0.136100, -0.004753, 121.882721, 144.869888, -550.158020, , 
1759228328.665748, 1.309030, 10.011205, 1.026664, -0.171855, -0.180093, 0.063549, 121.931061, 144.665497, -549.929749, , 
1759228328.685361, 1.813009, 9.625588, 0.696114, -0.227304, -0.099025, 0.095007, 121.878479, 144.601364, -549.646912, , 
1759228328.705024, 1.908628, 9.794679, 0.552312, -0.175947, -0.250054, 0.108784, 122.010818, 144.475906, -550.463257, , 
1759228328.725090, 1.364246, 9.484331, 0.805200, -0.112628, -0.409539, 0.038796, 122.417313, 144.448349, -550.877014, , 
1759228328.746000, 1.133654, 9.514108, 1.013196, -0.077977, -0.426428, -0.043148, 122.323563, 144.398117, -550.732666, , 
1759228328.765999, 1.596933, 9.714773, 1.018583, -0.059180, -0.430990, -0.057029, 122.699295, 144.287857, -550.837097, , 
1759228328.785974, 1.946037, 9.748591, 1.221941, -0.010314, -0.320234, -0.017254, 122.854080, 144.301895, -551.402466, , 
1759228328.805938, 2.142362, 9.678261, 1.767968, -0.060084, -0.169574, 0.031213, 122.902542, 144.296417, -551.456909, , 
1759228328.825991, 2.229451, 9.491663, 1.671003, -0.158600, -0.056028, 0.075790, 123.009918, 144.196350, -551.303406, , 
1759228328.845986, 2.336741, 9.422680, 1.260996, -0.181259, 0.074404, 0.108078, 122.863724, 144.035294, -551.284790, , 
1759228328.866023, 2.325219, 9.359234, 0.962170, -0.137418, -0.003420, 0.142480, 122.638718, 143.827225, -551.515198, , 
1759228328.885972, 2.141913, 9.505130, 0.874632, -0.062473, -0.135423, 0.125094, 123.001999, 143.634109, -551.623413, , 
1759228328.905956, 2.050484, 9.828796, 1.164929, -0.009763, -0.215603, 0.080805, 123.231445, 143.699493, -552.246399, , 
1759228328.925996, 1.831564, 9.473856, 1.182287, 0.046999, -0.264075, 0.034814, 123.277359, 143.621063, -551.407104, , 
1759228328.945995, 1.650353, 8.936807, 1.489493, 0.079089, -0.286184, 0.003954, 123.276764, 143.770004, -552.221680, , 
1759228328.965999, 1.702128, 8.813804, 1.623269, 0.026505, -0.247489, -0.010763, 123.438370, 143.732651, -552.338623, , 
1759228328.985972, 1.901744, 8.793603, 1.496077, -0.061549, -0.164294, 0.029359, 123.505966, 143.863876, -552.762817, , 
1759228329.005972, 1.589151, 8.419809, 1.239149, -0.080561, -0.091757, 0.105337, 123.623489, 143.741776, -552.550537, , 
1759228329.025996, 1.196802, 8.543858, 1.312471, -0.096084, -0.026666, 0.143523, 123.695358, 143.371506, -552.137207, , 
1759228329.045991, 1.267879, 9.484929, 1.412280, -0.130608, -0.032912, 0.179073, 123.721741, 143.362183, -552.525146, , 
1759228329.065991, 1.419163, 10.141090, 1.186327, -0.160298, -0.072184, 0.218648, 123.806381, 143.159241, -552.474976, , 
1759228329.085970, 1.396717, 10.177602, 0.748487, -0.118661, -0.129215, 0.256406, 123.866714, 143.082184, -552.698914, , 
1759228329.105111, 0.829890, 10.272173, 0.190189, -0.026955, -0.058883, 0.291685, 124.032761, 142.597366, -552.391602, , 
1759228329.125993, 0.163853, 10.965593, 0.043245, 0.065415, 0.028309, 0.309614, 124.102905, 142.474838, -551.965393, , 
1759228329.146001, -0.942418, 11.361235, -0.003741, 0.162430, 0.121778, 0.288161, 124.020340, 142.484970, -552.153625, , 
1759228329.165996, -1.691354, 10.534936, 0.948253, 0.197140, 0.082018, 0.131199, 124.119400, 142.150299, -552.343323, , 
1759228329.185968, -1.199345, 9.066842, 1.763479, 0.213625, 0.083883, -0.024871, 124.165421, 142.592239, -552.628784, , 
1759228329.205627, 0.174328, 8.918401, 1.788618, 0.158714, 0.504422, -0.109714, 123.680161, 142.592941, -552.404541, , 
1759228329.225968, 2.128296, 9.813084, 1.867926, 0.031132, 0.717864, 0.015999, 123.450592, 142.553192, -551.854248, , 
1759228329.245990, 2.509572, 10.066571, 1.220893, 0.075493, 0.735506, 0.235085, 122.872070, 142.524277, -551.043640, , 
1759228329.265996, 2.004994, 9.417892, 1.613243, 0.111117, 0.747874, 0.413573, 122.496170, 142.292542, -549.968506, , 
1759228329.285968, 1.466748, 9.380183, 1.659331, 0.044690, 0.867881, 0.462652, 122.031555, 142.003677, -550.005005, , 
1759228329.305995, 1.148169, 9.740510, 1.852514, -0.029346, 1.011220, 0.442593, 121.624023, 141.929428, -549.790894, , 
1759228329.325990, 1.238999, 9.647436, 1.344644, -0.063912, 1.032585, 0.413014, 121.016327, 141.417114, -548.320312, , 
1759228329.346010, 1.231966, 9.529820, 0.881066, -0.020486, 1.016451, 0.394832, 120.748856, 141.223297, -548.595764, , 
1759228329.365995, 0.948702, 9.655516, 0.971298, 0.050772, 1.075788, 0.401644, 120.221542, 141.014435, -547.524536, , 
1759228329.385968, 0.531513, 9.526828, 1.436072, 0.047921, 1.218216, 0.403353, 119.442139, 140.836472, -547.522949, , 
1759228329.405144, 0.666336, 9.275885, 1.650503, 0.010112, 1.309277, 0.406673, 118.876526, 140.564484, -546.672852, , 
1759228329.425987, 1.165378, 9.144803, 1.355417, 0.007634, 1.327720, 0.417543, 118.386200, 140.333878, -545.735718, , 
1759228329.445990, 1.725770, 9.160964, 0.761955, 0.033123, 1.302853, 0.466213, 117.416672, 139.936340, -545.663452, , 
1759228329.465985, 1.953669, 9.409661, 0.716465, 0.094982, 1.173636, 0.542348, 116.817749, 139.686829, -545.337708, , 
1759228329.485384, 1.711256, 9.656713, 1.263540, 0.182331, 0.969479, 0.608979, 115.978470, 139.519531, -544.292358, , 
1759228329.505169, 1.453131, 10.379463, 1.971775, 0.200714, 0.823374, 0.619651, 115.654663, 139.399689, -544.584229, , 
1759228329.525994, 1.252916, 10.582072, 1.820491, 0.169714, 0.712488, 0.598265, 114.780029, 139.239807, -543.639893, , 
1759228329.545991, -0.453851, 10.834511, 1.391031, 0.214200, 0.650695, 0.502878, 114.759277, 138.912277, -544.103943, , 
1759228329.565991, -1.850568, 11.127351, 0.574459, 0.377825, 0.553012, 0.352375, 114.412598, 138.709869, -543.471558, , 
1759228329.585967, -1.824831, 12.036699, -0.228946, 0.648848, 0.568442, 0.268929, 114.156250, 138.960220, -543.650940, , 
1759228329.605987, -2.139967, 12.784887, -0.083647, 1.142202, 0.645279, 0.204140, 113.630402, 139.276138, -543.332825, , 
1759228329.625966, -2.542044, 14.610616, -0.156072, 1.623278, 0.768425, -0.132965, 113.261307, 139.858994, -542.490356, , 
1759228329.646007, -0.666935, 13.292308, -0.008679, 1.874952, 0.985975, -0.497995, 112.317032, 140.951645, -543.162903, , 
1759228329.666008, -0.294188, 11.633725, -0.775272, 2.275993, 1.186949, -0.818403, 111.816269, 142.459488, -542.464600, , 
1759228329.685515, -0.632967, 10.045771, -1.184382, 2.557659, 1.232251, -1.122635, 111.019012, 144.126419, -542.613892, , 
1759228329.705181, -1.443255, 8.361001, -1.288380, 2.672157, 1.341030, -1.675521, 109.953934, 146.120117, -542.676819, , 
1759228329.725904, -1.539771, 9.308955, 0.918925, 2.464605, 1.469605, -2.199536, 108.843323, 148.215042, -543.151855, , 
1759228329.746033, -1.481562, 11.597812, 3.476680, 1.997927, 1.452347, -2.476524, 107.380478, 150.099838, -543.005127, , 
1759228329.765976, -0.826448, 12.219107, 4.555717, 1.417796, 1.437477, -2.360288, 106.321457, 151.465698, -542.076782, , 
1759228329.785973, -1.176451, 10.912023, 5.447258, 1.004353, 1.448478, -2.264548, 104.692352, 152.649033, -543.185791, , 
1759228329.805975, -0.459537, 11.064354, 5.098452, 0.501678, 1.250936, -2.375917, 103.228867, 153.530884, -542.917603, , 
1759228329.825974, -0.114173, 11.889157, 2.777274, 0.140693, 1.037271, -2.213022, 101.992203, 153.753494, -542.124451, , 
1759228329.846009, -0.589722, 12.486061, 2.038064, -0.264928, 1.685010, -2.036764, 100.584015, 154.002609, -542.425964, , 
1759228329.865982, 0.035165, 12.739846, 2.063353, -0.286272, 2.025855, -1.846703, 98.898911, 153.711945, -541.483398, , 
1759228329.885971, 2.165855, 12.078448, 2.043301, -0.176630, 1.929905, -1.715634, 96.988373, 153.924515, -542.466187, , 
1759228329.905990, 2.776975, 8.998757, 0.748637, 0.208648, 2.122244, -1.801610, 95.020737, 154.142075, -543.080383, , 
1759228329.925999, 3.313276, 7.514501, 1.038635, 0.241400, 2.814580, -1.804942, 92.981903, 154.222534, -542.078491, , 
1759228329.946000, 1.780239, 7.074267, 1.296909, -0.250136, 2.753693, -1.409360, 90.905823, 153.861984, -542.396973, , 
1759228329.965988, 1.302895, 6.985682, 0.525976, -0.640760, 2.384608, -1.000860, 89.298111, 153.260315, -541.418579, , 
1759228329.985970, 2.033575, 7.333290, 0.552612, -0.680642, 2.321166, -0.592887, 87.666977, 152.839233, -542.619385, , 
1759228330.006001, 3.005322, 6.648997, 0.797568, -0.663894, 2.079652, -0.196024, 86.259598, 152.151047, -542.658875, , 
1759228330.025994, 4.207361, 5.578041, 0.343867, -0.831321, 1.600834, 0.214133, 85.102173, 151.692734, -541.997559, , 
1759228330.045992, 5.319916, 5.142745, -0.228347, -1.004538, 1.090710, 0.707713, 84.935883, 151.204620, -542.516113, , 
1759228330.065988, 5.431396, 5.480028, -0.795174, -1.233337, 0.774092, 1.413095, 84.617615, 150.592087, -541.228760, , 
1759228330.085969, 4.642357, 6.824821, -3.012804, -1.079437, 0.899457, 2.241040, 84.809448, 150.561768, -541.648987, , 
1759228330.105996, 3.077597, 12.782044, -5.930737, -0.338252, 1.495955, 3.180607, 84.512909, 150.758087, -541.329163, , 
1759228330.125998, -8.122628, 21.079300, -11.849652, 1.197664, 2.496178, 2.019025, 83.425049, 151.565079, -541.506104, , 
1759228330.146001, -12.388348, 18.452112, -3.345298, 0.400811, 0.897027, -1.572796, 82.548355, 151.712540, -542.706360, , 
1759228330.165997, -3.708169, 12.508357, -0.695665, -0.353963, -1.315587, -2.800009, 83.240768, 150.908371, -541.235352, , 
1759228330.185968, 1.403750, 4.997447, 2.820070, -0.479955, -3.338919, -1.734983, 85.119339, 150.256393, -541.127197, , 
1759228330.205990, 3.933973, 8.044817, 2.798223, -0.343719, -4.044061, 0.649765, 87.939560, 150.251389, -540.538025, , 
1759228330.225968, 1.361553, 16.124200, -2.670133, 0.882290, -1.352551, 2.359001, 88.600159, 150.728622, -540.835083, , 
1759228330.245994, -0.693720, 23.676111, -4.323629, 1.332382, 1.604673, 1.824010, 88.193573, 151.812393, -542.123108, , 
1759228330.265995, -0.077662, 9.270648, 6.907571, -1.133791, 2.991317, 0.160249, 87.036713, 151.252335, -540.811523, , 
1759228330.285967, -0.492308, 7.705588, 2.974496, -1.209115, 2.607981, 0.275972, 85.282608, 150.540863, -542.084839, , 
1759228330.305992, -0.720355, 5.519383, 1.688660, -0.643076, 2.549948, 0.389229, 83.889694, 150.208359, -542.370361, , 
1759228330.325340, 1.028459, 2.295740, -0.057910, -0.065991, 1.984548, 0.735390, 82.679672, 150.221848, -542.324463, , 
1759228330.345997, 4.119673, 2.674772, 0.172682, 0.437268, 0.186952, 1.321045, 82.219162, 150.810440, -543.276611, , 
1759228330.365990, 7.662792, 12.190676, 0.225654, -0.639710, 0.531318, 1.394570, 81.715454, 150.626816, -542.482239, , 
1759228330.385959, 4.624550, 14.901361, 1.905036, -1.229231, 1.578672, 0.443991, 81.837112, 150.157013, -542.443359, , 
1759228330.405341, -1.897106, 9.519346, -1.551443, -0.056249, 0.904153, 0.255023, 82.014221, 150.022873, -542.348755, , 
1759228330.425940, -3.820398, 8.463952, 1.682824, 0.205030, 0.783642, 0.293385, 81.252228, 150.391449, -541.948242, , 
1759228330.445983, -3.662231, 10.148123, 2.309357, -0.455895, 1.048014, -0.042059, 80.933823, 150.121811, -543.104614, , 
1759228330.465912, 0.381127, 9.853935, 1.222240, -0.672431, 0.960567, -0.007159, 79.946243, 149.831528, -542.187256, , 
1759228330.485565, 2.656067, 9.535806, 0.747141, -0.566887, 1.099643, 0.244377, 79.364929, 149.633514, -543.666321, , 
1759228330.505355, 2.933196, 8.454375, 0.832584, -0.541888, 1.377401, 0.617544, 78.979630, 149.297729, -543.454956, , 
1759228330.525800, 2.270302, 8.486248, 0.146046, -0.529289, 1.549955, 0.905659, 78.432297, 149.222977, -543.778992, , 
1759228330.545980, 1.498471, 9.114277, 0.261567, -0.586758, 1.500257, 0.956818, 77.799103, 149.103439, -544.714111, , 
1759228330.565981, 1.422006, 9.453206, -0.092775, -0.541062, 1.462734, 0.950749, 77.400116, 149.109573, -544.228943, , 
1759228330.585956, 0.793827, 9.990704, -0.372897, -0.303674, 1.413319, 0.943766, 76.805679, 149.487579, -545.599915, , 
1759228330.605369, -0.250044, 10.354922, -0.245705, -0.027650, 1.199976, 0.914583, 76.497833, 149.682678, -545.785339, , 
1759228330.625979, -0.849193, 10.320057, 0.370652, 0.095450, 0.944446, 0.819770, 75.960938, 150.084854, -545.852051, , 
1759228330.645977, -0.949301, 10.259453, 1.452083, 0.167867, 0.829880, 0.746572, 75.934158, 150.497086, -546.567322, , 
1759228330.665980, -0.994043, 10.302250, 2.608782, 0.193612, 0.917556, 0.678172, 75.759018, 150.710403, -546.280518, , 
1759228330.685956, -0.573860, 10.535385, 2.168249, 0.053596, 1.165420, 0.624905, 75.365921, 151.096207, -547.563843, , 
1759228330.705389, -0.759560, 9.883863, -0.352845, 0.160029, 1.356855, 0.458148, 75.120056, 151.188141, -548.031006, , 
1759228330.725965, -1.094150, 9.553164, -1.012448, 0.491536, 1.628723, 0.226548, 74.282166, 151.787796, -549.247253, , 
1759228330.745994, 0.037559, 11.418546, 1.443704, 0.687498, 1.791807, 0.167246, 73.537949, 152.197189, -550.039062, , 
1759228330.765992, 0.323217, 12.417826, 1.988833, 0.698347, 1.848001, 0.104694, 72.807343, 152.498306, -550.549316, , 
1759228330.785964, -1.134702, 12.500277, 1.388936, 0.974254, 1.770861, -0.220491, 72.143936, 153.003174, -551.752258, , 
1759228330.805986, -1.617433, 12.616096, 0.972794, 1.175222, 1.273403, -0.637430, 71.717377, 153.191025, -552.894104, , 
1759228330.825984, 0.109385, 11.841871, -0.765546, 1.643826, 0.963243, -0.941867, 70.773483, 153.549332, -553.712158, , 
1759228330.845989, 1.045817, 10.581324, -1.481263, 2.227179, 1.128914, -1.176390, 70.574493, 153.903198, -555.199463, , 
1759228330.866008, 0.329502, 8.881740, -1.043273, 2.351492, 1.326264, -1.599350, 69.533157, 154.150650, -556.201111, , 
1759228330.885964, 0.534506, 9.288605, 0.228646, 2.225494, 1.323807, -2.124151, 68.785004, 153.972946, -558.039795, , 
1759228330.905983, 1.671901, 11.443536, 2.351854, 1.971079, 0.985895, -2.207997, 68.121506, 153.630493, -559.255859, , 
1759228330.925988, 1.894711, 11.259930, 3.807230, 1.615192, 0.600108, -2.075894, 67.312164, 153.114456, -560.235962, , 
1759228330.945981, 1.384597, 10.149320, 5.176863, 1.087274, 0.311850, -2.049316, 66.947571, 152.660736, -561.328125, , 
1759228330.965988, 0.609324, 10.324246, 4.498855, 0.329699, 0.409779, -1.999808, 66.424316, 151.860733, -560.516785, , 
1759228330.985959, -1.106121, 11.448623, 1.955913, -0.265771, 0.559638, -1.986750, 66.240982, 150.800232, -561.446655, , 
1759228331.005984, -1.220594, 13.305028, 0.434398, -0.356989, 0.757910, -1.988391, 65.568100, 149.845581, -561.703674, , 
1759228331.025961, 0.817620, 13.171700, 0.487669, -0.313094, 1.118028, -1.828293, 64.944275, 148.900711, -562.052612, , 
1759228331.046011, 3.178452, 10.720487, 1.071405, -0.144691, 1.761581, -1.609915, 64.291153, 148.146500, -563.738464, , 
1759228331.066029, 3.886687, 7.761703, 0.712724, -0.173810, 2.138957, -1.369159, 63.722046, 147.112015, -564.705566, , 
1759228331.085952, 2.545186, 6.733393, 0.561740, -0.341850, 2.326244, -0.932686, 63.441452, 146.807022, -566.371521, , 
1759228331.105955, 1.326986, 6.734740, 0.479140, -0.626315, 2.131011, -0.565047, 63.304840, 146.252228, -567.472412, , 
1759228331.125987, 1.619977, 6.809409, 0.624438, -0.885095, 2.022533, -0.212757, 62.943573, 146.168610, -568.507385, , 
1759228331.145993, 2.371457, 6.195446, 0.493056, -1.083060, 1.809809, 0.223525, 62.599686, 146.214172, -570.132202, , 
1759228331.166031, 3.290980, 5.302857, 0.723947, -1.202844, 1.283284, 0.723174, 62.756134, 146.572235, -570.607300, , 
1759228331.185957, 4.715530, 5.282956, 0.285658, -1.456835, 0.901859, 1.408496, 63.049591, 147.515152, -571.635864, , 
1759228331.205978, 6.387880, 8.368034, -2.540398, -1.120247, 1.068349, 2.369400, 63.706741, 148.583038, -571.621765, , 
1759228331.225961, 5.551555, 15.529690, -8.473379, 0.228807, 2.843129, 3.431610, 64.071533, 150.554047, -572.665405, , 
1759228331.245993, -4.714033, 19.791219, -12.820950, 1.622711, 5.401535, 2.144945, 65.010193, 152.626724, -575.397583, , 
1759228331.265977, -10.236409, 18.721460, 2.744354, 0.442323, 1.059850, -1.156597, 65.758102, 152.192612, -577.741699, , 
1759228331.285959, 0.399981, 13.089699, 7.998130, -0.550551, -3.637553, -1.414341, 65.622681, 151.698685, -574.494995, , 
1759228331.305964, 1.064073, 9.568726, 4.596568, -0.437151, -4.306736, -0.082223, 64.978745, 151.855301, -573.327026, , 
1759228331.325960, -0.254982, 5.392790, -1.408389, 0.385782, -2.260020, -0.206748, 64.885757, 151.912643, -571.683105, , 
1759228331.345964, 1.058536, 3.155109, -3.499724, -0.584358, 1.890318, -0.762089, 65.027679, 151.632019, -572.952698, , 
1759228331.365961, 5.854571, 7.788787, -1.985541, -0.798492, 4.463819, 0.348030, 65.375458, 151.620850, -575.180664, , 
1759228331.385955, 2.028038, 10.998214, 3.862147, -0.275685, 3.191136, 1.406675, 65.787323, 152.416458, -576.421997, , 
1759228331.405961, 0.014664, 13.567193, 3.244443, 0.483343, 1.992885, 1.411896, 66.276337, 153.351791, -578.242676, , 
1759228331.425496, -1.726219, 13.203424, -0.171934, -0.806506, 1.733365, 0.608146, 66.449188, 153.566498, -578.116211, , 
1759228331.445961, 1.571644, 9.463980, -1.940949, -0.833882, 0.984402, 0.034862, 67.052261, 154.088501, -579.271606, , 
1759228331.465962, 1.567604, 8.485500, 1.497424, -0.159381, -0.356060, 0.475485, 67.037613, 154.539413, -579.150208, , 
1759228331.485502, -0.459238, 8.643218, 1.641375, -0.164630, -0.250236, 0.462042, 67.062073, 154.666855, -578.525452, , 
1759228331.505511, -1.181688, 9.148843, 1.517625, -0.340483, 0.694688, 0.214120, 67.026917, 154.791580, -578.484375, , 
1759228331.525299, -0.995240, 10.196157, 1.218200, -0.369758, 1.322384, 0.022113, 67.369553, 154.933823, -578.457581, , 
1759228331.545955, -0.054019, 11.143662, 1.899949, -0.408455, 1.175538, -0.072950, 67.381058, 155.071838, -580.294922, , 
1759228331.565960, 2.084153, 8.772654, 0.734721, -0.736219, 0.835186, -0.494163, 67.299591, 155.077835, -580.129333, , 
1759228331.585338, 3.982006, 9.488520, -0.708983, -0.803399, 0.335506, -0.380125, 67.188034, 155.005890, -579.877808, , 
1759228331.604972, 4.778378, 10.092458, -1.043124, -0.610437, -0.113114, -0.122391, 67.056381, 154.695221, -579.446106, , 
1759228331.625955, 4.262876, 8.954613, 0.908300, -0.175068, -0.129424, 0.197992, 67.193863, 155.067719, -578.662659, , 
1759228331.645971, 2.187103, 9.070433, 2.930802, -0.052106, 0.064095, 0.471757, 67.703140, 155.532425, -579.570374, , 
1759228331.665958, -0.415544, 9.398439, 1.330428, -0.164622, 0.372471, 0.389145, 67.943985, 155.585648, -579.585388, , 
1759228331.685504, -0.975338, 10.207978, -0.009876, -0.165611, 0.468678, 0.122561, 68.003708, 155.619736, -579.458374, , 
1759228331.704984, -1.030853, 10.422109, -0.236278, -0.140107, 0.283429, 0.070553, 67.992706, 155.685516, -579.442688, , 
1759228331.725955, 0.991948, 9.987113, 0.240917, -0.120383, 0.043295, -0.050389, 68.105240, 155.790649, -579.540466, , 
1759228331.745961, 1.638382, 9.262717, 0.734571, -0.192829, 0.353977, 0.107287, 68.311569, 155.999298, -580.319885, , 
1759228331.765956, 1.109563, 8.940099, 0.701651, -0.145246, 0.657419, 0.237461, 68.345657, 155.885315, -579.725464, , 
1759228331.785950, 0.772579, 9.195231, 1.174805, -0.127610, 0.679398, 0.250807, 68.500366, 156.359116, -580.438477, , 
1759228331.805010, 0.521038, 9.990704, 1.369334, -0.166969, 0.480330, 0.168061, 68.462326, 156.507599, -580.473267, , 
1759228331.825975, 1.236755, 10.390835, 0.945710, -0.108939, 0.248043, 0.067153, 68.814713, 156.391312, -580.445679, , 
1759228331.845975, 1.815403, 10.039636, 0.798466, -0.083021, 0.383351, 0.073717, 69.020126, 156.640564, -581.322998, , 
1759228331.865975, 1.346888, 9.639954, 0.573561, -0.113940, 0.534889, 0.134548, 69.382294, 156.828995, -581.456909, , 
1759228331.885956, 0.798766, 9.454852, 0.585682, -0.101052, 0.416568, 0.136018, 69.562775, 156.648849, -581.150574, , 
1759228331.905002, 0.882413, 9.360131, 1.012897, -0.046519, 0.272049, 0.075354, 69.426361, 156.904846, -582.248047, , 
1759228331.925967, 1.253514, 9.564087, 1.218050, -0.040698, 0.213043, 0.038286, 69.442276, 156.903275, -580.571167, , 
1759228331.945973, 1.536778, 10.052205, 1.241543, -0.052353, 0.217240, 0.044146, 69.694229, 157.029007, -581.480469, , 
1759228331.965991, 1.757793, 9.809044, 1.438017, -0.047814, 0.250026, 0.058736, 69.644928, 157.226700, -581.781128, , 
1759228331.985511, 1.860295, 9.694721, 1.396418, -0.086217, 0.314760, 0.064023, 69.613174, 157.114136, -581.614319, , 
1759228332.005020, 1.931672, 9.766098, 1.019930, -0.146282, 0.318767, 0.070046, 69.451706, 157.208740, -581.956482, , 
1759228332.026012, 1.775151, 9.694871, 0.637007, -0.109202, 0.141407, 0.071413, 69.695831, 157.035919, -580.509521, , 
1759228332.045968, 1.507599, 9.490615, 0.640748, -0.022350, -0.081364, 0.064709, 69.735947, 157.360870, -581.574036, , 
1759228332.065967, 1.127220, 9.484480, 1.042974, 0.012510, -0.154051, 0.052821, 69.792175, 157.459198, -581.578247, , 
1759228332.085334, 0.855927, 9.592219, 1.215207, -0.009327, -0.055024, 0.042326, 69.740128, 157.365524, -581.291565, , 
1759228332.105047, 0.660500, 9.692028, 1.326986, -0.042934, 0.012168, 0.034512, 69.820816, 157.579361, -581.868225, , 
1759228332.125618, 0.590320, 9.651177, 1.149366, -0.065175, 0.096598, 0.035357, 69.865265, 157.373779, -580.757874, , 
1759228332.145972, 0.696563, 9.636662, 0.855927, -0.065622, 0.226555, 0.026045, 69.990891, 157.399338, -581.741821, , 
1759228332.165973, 1.129016, 9.986215, 0.824204, -0.063482, 0.297809, 0.030653, 69.874481, 157.457153, -581.575623, , 
1759228332.185508, 1.341800, 10.081385, 0.723947, -0.027831, 0.252869, 0.055913, 69.894943, 157.545349, -581.675293, , 
1759228332.205071, 1.329829, 9.965715, 0.668282, 0.019512, 0.221175, 0.059214, 70.121078, 157.707123, -582.059937, , 
1759228332.225951, 1.295562, 9.735273, 0.935085, 0.048976, 0.171924, 0.036892, 70.001526, 157.562576, -581.604248, , 
1759228332.245924, 1.294964, 9.531915, 1.214309, 0.040851, 0.104069, -0.000016, 70.185028, 157.695709, -582.475037, , 
1759228332.265972, 1.502362, 9.524882, 1.208324, 0.011060, 0.101673, -0.028653, 69.921326, 157.552597, -582.006104, , 
1759228332.285942, 1.669656, 9.554960, 1.126023, -0.006216, 0.145836, -0.025973, 69.990906, 157.573212, -582.034058, , 
1759228332.305081, 1.496975, 9.730933, 1.094749, 0.000575, 0.155154, 0.004504, 70.014938, 157.740005, -581.980042, , 
1759228332.325384, 1.242740, 9.776573, 0.981174, 0.010540, 0.163750, 0.027604, 70.086212, 157.585770, -581.532104, , 
1759228332.345984, 1.042376, 9.680655, 0.870592, 0.028430, 0.185694, 0.050328, 70.364563, 157.881180, -582.184509, , 
1759228332.365981, 0.882563, 9.608530, 0.861464, 0.042410, 0.231090, 0.055962, 70.384308, 157.778305, -582.382690, , 
1759228332.385942, 0.902015, 9.779117, 0.930297, 0.044323, 0.267811, 0.064299, 70.277634, 157.777832, -582.148682, , 
1759228332.405095, 0.922665, 9.856629, 1.048062, 0.050962, 0.276318, 0.085768, 70.381531, 157.917130, -582.792114, , 
1759228332.425966, 0.792630, 9.639954, 1.109413, 0.069408, 0.320063, 0.102927, 70.507828, 157.873276, -582.326355, , 
1759228332.445973, 0.689530, 9.601048, 1.156549, 0.062788, 0.387154, 0.080456, 70.455093, 157.931366, -583.224915, , 
1759228332.465972, 0.798317, 9.639206, 1.173009, 0.058887, 0.395242, 0.047568, 70.737656, 157.923721, -583.249512, , 
1759228332.485941, 1.157746, 9.609128, 1.234660, 0.053430, 0.353005, 0.012993, 70.565521, 157.948486, -583.209961, , 
1759228332.505113, 1.647660, 9.556157, 1.180192, 0.049846, 0.294973, 0.001294, 70.650558, 157.920395, -583.688293, , 
1759228332.525967, 1.907431, 9.459640, 1.100884, 0.040508, 0.263876, 0.009986, 70.534180, 157.979156, -583.375854, , 
1759228332.545971, 1.904737, 9.424775, 1.020080, 0.031055, 0.220512, 0.043604, 70.905319, 158.070038, -583.851929, , 
1759228332.565980, 1.699584, 9.498097, 0.969053, 0.028364, 0.171530, 0.069664, 71.115112, 157.973251, -583.827881, , 
1759228332.585943, 1.518672, 9.612271, 0.968155, 0.024922, 0.117835, 0.073899, 71.233612, 158.001389, -583.721313, , 
1759228332.605132, 1.327585, 9.740660, 0.914735, 0.021708, 0.081710, 0.068214, 71.258408, 158.046600, -584.406860, , 
1759228332.625964, 1.201440, 9.837176, 0.836025, 0.017712, 0.053810, 0.046787, 71.141678, 158.032455, -583.823547, , 
1759228332.645954, 1.142034, 9.947609, 0.774973, 0.018313, 0.031941, 0.026178, 71.171570, 158.308456, -584.103027, , 
1759228332.665982, 1.008258, 9.799467, 0.797120, 0.018651, 0.013391, 0.017701, 71.268890, 158.095352, -584.184509, , 
1759228332.685938, 0.934636, 9.600150, 0.788889, 0.004196, 0.014699, -0.008554, 71.101166, 157.968155, -583.909058, , 
1759228332.705145, 1.204732, 9.748291, 0.875530, -0.005082, 0.008509, -0.031179, 70.988846, 158.221268, -584.512451, , 
1759228332.725963, 1.386692, 9.542091, 0.969352, -0.016510, -0.035757, -0.025835, 71.286575, 158.122574, -583.915161, , 
1759228332.745961, 1.345541, 9.456797, 0.893935, -0.046562, -0.014461, -0.021368, 71.040482, 158.019516, -584.400879, , 
1759228332.765957, 1.281048, 9.607632, 0.786196, -0.050968, -0.020273, -0.021973, 71.301529, 157.876556, -584.406982, , 
1759228332.785568, 1.184082, 9.667337, 0.765546, -0.048048, -0.048414, -0.007929, 71.111404, 157.876328, -584.079163, , 
1759228332.805159, 1.044022, 9.666290, 0.724994, -0.049905, -0.030240, 0.011948, 71.043549, 157.926498, -584.228088, , 
1759228332.825959, 0.866701, 9.852439, 0.718260, -0.027832, 0.025003, 0.023644, 71.238068, 158.056168, -583.811646, , 
1759228332.845965, 0.750133, 9.899276, 0.937480, -0.001608, 0.026058, 0.036507, 71.311707, 157.862427, -584.067383, , 
1759228332.866029, 0.465223, 9.758317, 0.957082, 0.016236, 0.120145, 0.049848, 71.368790, 158.119965, -584.105286, , 
1759228332.885936, 0.368707, 9.889699, 1.110610, 0.033911, 0.206163, 0.054813, 71.452972, 158.141617, -584.067017, , 
1759228332.905177, 0.587627, 9.800216, 1.294814, 0.044030, 0.235163, 0.047272, 71.443832, 158.331665, -584.670959, , 
1759228332.925961, 1.103727, 9.481487, 1.237503, 0.035210, 0.278868, 0.061243, 71.801590, 158.162460, -584.593018, , 
1759228332.945963, 1.477671, 9.223363, 1.142782, 0.010696, 0.341810, 0.067510, 71.605026, 158.289490, -585.318726, , 
1759228332.965959, 1.874361, 9.485228, 1.176750, -0.009614, 0.308186, 0.065360, 71.819061, 158.162903, -585.425354, , 
1759228332.985853, 2.322974, 9.458443, 1.136049, -0.019689, 0.162727, 0.038608, 71.527878, 158.175659, -585.314697, , 
1759228333.005192, 2.733430, 9.462334, 1.061978, -0.054428, 0.020480, -0.014958, 71.497986, 158.388367, -585.514526, , 
1759228333.025958, 3.214814, 9.773580, 0.929250, -0.073082, -0.123949, -0.066702, 71.415375, 158.043976, -584.465942, , 
1759228333.045631, 3.258508, 9.900323, 0.775721, -0.090150, -0.357215, -0.116984, 71.318726, 158.117538, -584.955200, , 
1759228333.065957, 3.151218, 9.857078, 0.731129, -0.064081, -0.601837, -0.148878, 71.137665, 158.001129, -584.607605, , 
1759228333.085635, 2.796577, 9.784204, 0.755820, -0.023926, -0.757692, -0.159509, 70.727722, 157.954300, -584.149353, , 
1759228333.105212, 2.351555, 9.609877, 0.884957, 0.012735, -0.864309, -0.158733, 70.921188, 157.852417, -583.927612, , 
1759228333.125819, 1.791162, 9.420884, 0.928501, 0.010519, -0.882935, -0.143452, 70.760056, 157.720062, -583.019043, , 
1759228333.145991, 1.209072, 9.501838, 0.898125, -0.014331, -0.845359, -0.110702, 70.556274, 157.871231, -583.037476, , 
1759228333.166009, 0.600346, 9.647735, 0.852037, -0.021318, -0.789402, -0.065584, 70.369507, 157.732742, -582.525940, , 
1759228333.185942, 0.113276, 9.692177, 0.921618, -0.034751, -0.695386, -0.016934, 70.058914, 157.765076, -582.111816, , 
1759228333.205237, -0.162506, 9.778069, 0.953790, -0.053166, -0.548726, 0.007392, 70.208481, 157.625900, -582.197205, , 
1759228333.225302, -0.278027, 9.793332, 0.991349, -0.069262, -0.383123, 0.002839, 70.252762, 157.621124, -581.524170, , 
1759228333.245020, -0.279523, 9.735273, 0.942118, -0.086316, -0.248252, -0.023206, 69.946915, 157.569351, -581.602295, , 
1759228333.265963, -0.123900, 9.673173, 0.798317, -0.089128, -0.154293, -0.059367, 70.087051, 157.598969, -581.667725, , 
1759228333.285934, 0.280271, 9.640403, 0.831985, -0.082371, -0.135315, -0.084303, 69.959778, 157.538666, -581.128052, , 
1759228333.305242, 0.604237, 9.686491, 0.886304, -0.083249, -0.088875, -0.083774, 69.665283, 157.703278, -581.538696, , 
1759228333.325798, 0.858621, 9.708787, 0.811634, -0.090885, -0.015719, -0.068896, 69.697266, 157.569016, -580.947388, , 
1759228333.345956, 0.940323, 9.730335, 0.730232, -0.082074, 0.036313, -0.044319, 69.636307, 157.617249, -581.351746, , 
1759228333.365956, 0.904110, 9.638607, 0.674716, -0.084874, 0.108287, -0.022027, 69.360931, 157.539597, -581.064331, , 
1759228333.385935, 0.868646, 9.700557, 0.727987, -0.078570, 0.124870, -0.007395, 69.544098, 157.648865, -580.930786, , 
1759228333.405257, 1.016039, 10.028114, 0.920870, -0.082153, 0.126802, -0.022490, 69.483490, 157.537262, -581.663330, , 
1759228333.425963, 1.345392, 9.799168, 0.899023, -0.079020, 0.140490, -0.047851, 69.682846, 157.368027, -580.984863, , 
1759228333.445957, 1.283591, 9.550620, 0.677260, -0.049182, 0.194601, -0.054061, 69.537354, 157.485260, -581.395325, , 
1759228333.465956, 1.061828, 9.693374, 0.868347, -0.007923, 0.144533, -0.055866, 69.679321, 157.379364, -581.032593, , 
1759228333.485932, 1.244087, 9.518298, 1.157297, -0.013891, 0.040992, -0.051538, 69.687073, 157.468735, -581.098999, , 
1759228333.505266, 1.435174, 9.397690, 1.228824, -0.051281, 0.044065, -0.022993, 69.602325, 157.479385, -581.357178, , 
1759228333.525954, 1.323245, 9.456498, 1.074248, -0.062516, 0.145790, 0.018560, 69.737579, 157.479004, -581.035767, , 
1759228333.545973, 0.972495, 9.553762, 1.119888, -0.057649, 0.168490, 0.033078, 69.434219, 157.624939, -581.516113, , 
1759228333.565971, 0.843657, 9.654169, 1.269226, -0.057103, 0.129310, 0.019915, 69.781815, 157.496033, -581.598083, , 
1759228333.585930, 1.049558, 9.678261, 1.176152, -0.074531, 0.129152, -0.002769, 69.803787, 157.761520, -581.422607, , 
1759228333.605276, 1.188272, 9.554361, 0.863110, -0.070193, 0.188611, -0.025117, 69.818893, 157.619827, -581.728638, , 
1759228333.625960, 1.379210, 9.602544, 1.012897, -0.055151, 0.099480, -0.030538, 69.967682, 157.509109, -581.496582, , 
1759228333.645962, 1.521366, 9.642049, 1.092803, -0.045404, 0.022391, -0.037249, 69.892365, 157.506485, -581.862793, , 
1759228333.665946, 1.589451, 9.548525, 1.141136, -0.048820, -0.008067, -0.023203, 69.783249, 157.444397, -581.673157, , 
1759228333.685475, 1.628656, 9.450213, 1.221043, -0.060249, -0.058849, -0.002115, 69.923965, 157.491928, -581.653870, , 
1759228333.705315, 1.486350, 9.397242, 1.268927, -0.063513, -0.084733, 0.006026, 70.101196, 157.565887, -581.974121, , 
1759228333.725940, 1.533337, 9.280075, 1.411532, -0.103946, -0.168721, 0.050700, 69.991638, 157.524734, -581.111511, , 
1759228333.745932, 1.455375, 9.308955, 1.386991, -0.150595, -0.199218, 0.087089, 69.869675, 157.677917, -581.277710, , 
1759228333.765955, 1.453430, 9.505280, 1.373374, -0.197469, -0.238496, 0.116298, 70.042175, 157.640060, -580.882690, , 
1759228333.785945, 1.352874, 9.807697, 1.259799, -0.204735, -0.246876, 0.130257, 69.901932, 157.867279, -581.055664, , 
1759228333.805336, 1.098789, 9.910648, 1.046865, -0.187476, -0.236708, 0.125183, 69.661087, 158.009338, -580.841553, , 
1759228333.825968, 0.883610, 9.929951, 0.940622, -0.145935, -0.262346, 0.087066, 69.892700, 157.896805, -580.224121, , 
1759228333.845969, 0.855329, 9.938930, 1.016039, -0.110686, -0.319916, 0.040619, 69.723114, 158.081970, -580.670288, , 
1759228333.865998, 0.916979, 9.898976, 1.078289, -0.101234, -0.378786, 0.009035, 69.858597, 157.979187, -579.961121, , 
1759228333.885936, 0.962469, 9.742605, 1.130512, -0.100625, -0.399679, 0.000221, 69.655197, 157.976120, -580.090820, , 
1759228333.905351, 0.930896, 9.518298, 1.226430, -0.101095, -0.389594, -0.013817, 69.674057, 157.965347, -580.248657, , 
1759228333.925965, 1.003021, 9.244312, 1.216853, -0.149790, -0.320127, -0.052582, 69.399765, 157.979904, -579.553894, , 
1759228333.945955, 1.134552, 9.159916, 0.979528, -0.151092, -0.269732, -0.070619, 69.415161, 157.975403, -579.365234, , 
1759228333.965964, 0.928202, 9.596409, 0.860416, -0.119363, -0.197960, -0.063717, 69.723709, 157.929398, -579.107849, , 
1759228333.985935, 0.753126, 9.881020, 1.224485, -0.114200, -0.244088, -0.044301, 69.743210, 158.007462, -579.052124, , 
1759228334.005368, 0.567426, 9.504831, 1.556979, -0.081711, -0.239587, 0.032723, 69.660736, 158.214035, -579.111816, , 
1759228334.025962, 0.364218, 9.706991, 2.190395, -0.116241, -0.067041, 0.108332, 69.553772, 158.097076, -578.292297, , 
1759228334.045966, 0.447566, 10.352678, 2.172738, -0.226180, 0.160500, 0.112921, 69.639526, 158.313705, -578.848755, , 
1759228334.065960, 0.886902, 10.231172, 1.794005, -0.268054, 0.211791, 0.130076, 69.792908, 158.251205, -578.456909, , 
1759228334.085933, 0.462231, 9.708937, 1.581221, -0.231128, 0.142847, 0.145804, 69.739624, 158.414886, -578.579712, , 
1759228334.105384, 0.054468, 9.688137, 2.247557, -0.284576, 0.114048, 0.109960, 70.005188, 158.633621, -578.491821, , 
1759228334.125958, -0.007033, 9.842413, 2.315492, -0.333534, 0.080727, 0.055997, 70.055374, 158.583435, -578.105652, , 
1759228334.145952, 0.286406, 9.933992, 2.007239, -0.353375, -0.083521, -0.013712, 69.958771, 158.857864, -578.197693, , 
1759228334.165959, 0.354192, 10.093505, 1.487996, -0.337990, -0.156045, -0.040572, 69.880356, 158.750992, -577.952026, , 
1759228334.185933, 0.084396, 9.933393, 1.623119, -0.328998, -0.174313, -0.097765, 70.202866, 158.845459, -578.077271, , 
1759228334.205393, 0.166397, 9.382427, 1.640926, -0.242996, -0.228645, -0.116320, 70.164352, 158.619186, -578.008667, , 
1759228334.225958, 0.623989, 9.271247, 2.061408, -0.215860, -0.168359, -0.068400, 69.962250, 158.526855, -577.319336, , 
1759228334.245962, 1.320851, 10.405200, 2.192939, -0.247637, 0.072129, 0.041170, 70.216675, 158.646729, -577.660583, , 
1759228334.265961, 1.346439, 10.894066, 2.410063, -0.226715, 0.281951, 0.150446, 70.251190, 158.732803, -577.665039, , 
1759228334.285932, 1.542315, 10.532991, 2.768296, -0.207504, 0.220751, 0.132757, 70.199768, 158.962372, -577.791748, , 
1759228334.305417, 2.089091, 10.223540, 2.755128, -0.229312, 0.003751, 0.072262, 70.351700, 158.998688, -577.520142, , 
1759228334.325961, 1.981651, 10.202441, 2.849998, -0.285019, -0.334787, 0.096210, 70.516251, 159.019623, -577.062256, , 
1759228334.345959, 1.081431, 10.477625, 1.281496, -0.229250, -0.346230, 0.166677, 70.792938, 159.120346, -577.314392, , 
1759228334.365956, -0.256479, 9.846454, 1.021576, -0.141744, -0.431262, 0.155242, 70.813919, 159.168594, -576.792664, , 
1759228334.385932, -0.205752, 9.262119, 0.786046, -0.053473, -0.479295, 0.092142, 70.721893, 159.647247, -576.863647, , 
1759228334.405430, -0.025438, 8.547450, 0.710180, 0.000003, -0.294051, 0.036630, 70.541046, 159.619034, -576.764221, , 
1759228334.425955, 0.402076, 7.770830, 1.321150, -0.019833, -0.279108, 0.067450, 71.003265, 159.737213, -576.093628, , 
1759228334.445959, 0.390405, 6.965182, 1.497872, -0.036152, -0.380743, 0.112450, 71.063965, 159.854721, -576.679504, , 
1759228334.465957, 0.436792, 6.796690, 1.709011, -0.047546, -0.569377, 0.190731, 71.122498, 159.850586, -575.967163, , 
