SamplingTime, AccelerationX, AccelerationY, AccelerationZ, GyroX, GyroY, GyroZ, MagneticFieldX, MagneticFieldY, MagneticFieldZ, Latitude, Longitude
1759228118.497637, , , , , , , , , , 13.727660, 100.772417
1759228118.518058, 1.253365, -3.137901, -8.720880, -0.728491, 0.528524, 0.072278, -51.624619, 1.231506, -150.502579, 13.727662, 100.772419
1759228118.538047, 0.553210, -2.848053, -8.714295, -0.697855, 1.270642, 0.237887, -50.560608, 1.411133, -149.992142, 13.727662, 100.772419
1759228118.558051, -0.067935, -2.324620, -10.073454, -0.523803, 1.749526, 0.237099, -49.758362, 2.148499, -149.102646, 13.727662, 100.772419
1759228118.578051, 1.957110, -2.523339, -10.866234, -0.039337, 1.580625, 0.195478, -48.571320, 1.518814, -149.322647, 13.727662, 100.772419
1759228118.598060, 3.348590, -3.557335, -10.526257, 0.767196, 2.050657, 0.337488, -46.918396, 1.306183, -149.228836, 13.727662, 100.772419
1759228118.618052, 3.689315, -2.201917, -10.347440, 1.322249, 2.997410, 0.534459, -45.227020, 0.344772, -149.319336, 13.727662, 100.772419
1759228118.637953, 1.944990, -2.513164, -7.699753, 1.364304, 2.716415, 0.568868, -43.228378, -0.485840, -149.123718, 13.727662, 100.772419
1759228118.657567, 1.788768, -3.302053, -6.863578, 0.915016, 0.983437, 0.245933, -42.037003, -1.011520, -149.164764, 13.727662, 100.772419
1759228118.678049, 2.438345, -3.239355, -6.873005, 0.153407, -0.421222, -0.132099, -42.675690, -1.224960, -149.241837, 13.727662, 100.772419
1759228118.697951, 2.500594, -3.079093, -6.448333, -0.776080, -2.608152, -0.045145, -44.252258, -0.517654, -149.715958, 13.727662, 100.772419
1759228118.717710, 1.941847, -3.533243, -5.701492, -1.930392, -3.654477, 0.273657, -46.458481, 0.524658, -149.274887, 13.727662, 100.772419
1759228118.738067, 1.764826, -2.835333, -6.226271, -2.685038, -2.713712, -0.025535, -48.076859, 2.192551, -148.969070, 13.727662, 100.772419
1759228118.758050, 1.339705, -1.397017, -7.116166, -2.980039, -0.231082, 0.131528, -48.102448, 3.680252, -147.220734, 13.727662, 100.772419
1759228118.778065, 1.394922, -1.236755, -7.400028, -2.947476, 2.345191, 0.425468, -46.776199, 5.125687, -145.373047, 13.727662, 100.772419
1759228118.798161, 3.732111, -0.033220, -14.692318, -1.312572, 1.654189, 0.549515, -45.278595, 5.782257, -143.755539, 13.727662, 100.772419
1759228118.818092, 2.434604, 0.169839, -15.266178, 0.636370, 2.556481, 0.144275, -43.675568, 5.364914, -143.824753, 13.727662, 100.772419
1759228118.838079, 1.506402, -0.412401, -12.951434, 2.452715, 3.091999, -0.443025, -41.955002, 4.256287, -144.057114, 13.727662, 100.772419
1759228118.857674, 5.206790, -1.359158, -12.364705, 3.538723, 0.667452, -0.520141, -41.954987, 2.693542, -145.583206, 13.727662, 100.772419
1759228118.877402, 6.309021, -2.533065, -9.511565, 3.267365, -2.760242, 0.254865, -43.282654, 1.011200, -148.349808, 13.727662, 100.772419
1759228118.898052, 4.126257, -2.790891, -7.508815, 3.043187, -2.730875, 0.607419, -45.091095, -0.976974, -150.203415, 13.727662, 100.772419
1759228118.918151, 3.084031, -3.165883, -5.460426, 2.090789, -2.038932, 0.465461, -46.065201, -2.372879, -151.641953, 13.727662, 100.772419
1759228118.938078, 2.502839, -3.409942, -4.227412, 0.791923, -1.849529, 0.683752, -47.106506, -3.253723, -151.902985, 13.727662, 100.772419
1759228118.958084, 2.583194, -3.262100, -4.738873, 0.005534, -2.625109, 1.036057, -48.560577, -3.435211, -152.983978, 13.727662, 100.772419
1759228118.978176, 2.542193, -3.430292, -6.296152, -0.205758, -3.809644, 1.234690, -50.479507, -3.729736, -153.522751, 13.727662, 100.772419
1759228118.998140, 1.364246, -3.894169, -8.655787, 0.238593, -4.684848, 1.154616, -53.442047, -3.695297, -153.497559, 13.727662, 100.772419
1759228119.018070, -0.297330, -3.844340, -8.035539, 0.428618, -5.889147, 0.796422, -57.320877, -3.816010, -154.304871, 13.727662, 100.772419
1759228119.038061, -0.435296, -3.834015, -8.858995, 0.191169, -6.192527, 0.467810, -61.478653, -4.074951, -153.481720, 13.727662, 100.772419
1759228119.057237, -1.878850, -2.989161, -11.532271, -0.639165, -4.322110, 0.378069, -64.539459, -3.786133, -152.703156, 13.727662, 100.772419
1759228119.078127, -3.048118, -1.798195, -8.817396, -0.874093, -4.453036, 0.265054, -67.429337, -3.589615, -151.230850, 13.727662, 100.772419
1759228119.098178, -4.490624, -2.618060, -9.728390, -0.234022, -5.126020, -0.517654, -70.479736, -3.095032, -149.911163, 13.727662, 100.772419
1759228119.117812, -5.816414, -1.496975, -8.219893, 0.210872, -6.248502, -1.428884, -75.042038, -3.608856, -148.256607, 13.727662, 100.772419
1759228119.138132, -7.986009, -1.400309, -6.674436, 0.008949, -6.320288, -1.332142, -79.238022, -4.066116, -145.304718, 13.727662, 100.772419
1759228119.157657, -8.386888, -1.938106, -4.748749, -1.461358, -4.294416, -0.567726, -82.125793, -3.991257, -142.367508, 13.727662, 100.772419
1759228119.178094, -6.657826, -5.113865, -1.575235, -2.703114, -2.942520, 0.264254, -84.067505, -2.899307, -139.734360, 13.727662, 100.772419
1759228119.198097, -8.143278, -5.099051, -4.225167, -2.789497, -2.193013, 0.935046, -84.981735, -1.165817, -137.349121, 13.727662, 100.772419
1759228119.218083, -8.901342, -5.546019, -8.041974, -1.571620, -0.065662, 1.254479, -84.626358, -0.047531, -136.839325, 13.727662, 100.772419
1759228119.238138, -8.750657, -2.400786, -8.048109, -0.062965, 0.176925, 0.988962, -83.325623, 0.728790, -136.888763, 13.727662, 100.772419
1759228119.258013, -7.010222, -0.802058, -7.160908, 0.045032, -1.624804, 0.272645, -83.733566, 1.232834, -136.041260, 13.727662, 100.772419
1759228119.278113, -6.215348, -0.448913, -5.888838, 0.127831, -1.315440, 0.198061, -84.284515, 1.030472, -134.994995, 13.727662, 100.772419
1759228119.298057, -5.500229, -2.882619, -5.450849, 0.317156, -0.753930, 0.236772, -84.541061, 1.668381, -134.851334, 13.727662, 100.772419
1759228119.318064, -5.465663, -3.741239, -3.936068, 0.003358, -0.320406, 0.796631, -84.813187, 1.657669, -134.248016, 13.727662, 100.772419
1759228119.337269, -2.881871, -3.223643, -4.562301, -0.473434, -0.030031, 1.860279, -84.408096, 2.360947, -134.374359, 13.727662, 100.772419
1759228119.358070, -2.991705, -1.651401, -4.101118, -0.991819, 0.251806, 2.438523, -82.656616, 4.346176, -134.066162, 13.727662, 100.772419
1759228119.377297, -4.058471, 0.437241, -4.079570, -1.243501, 0.893286, 2.480452, -81.695099, 6.244385, -134.016525, 13.727662, 100.772419
1759228119.398052, -11.474361, 0.378134, -2.489670, -1.952141, 1.178923, 1.046770, -80.635742, 7.006805, -132.830994, 13.727662, 100.772419
1759228119.418070, -9.154380, 1.066916, -3.883545, -2.149281, 0.799409, 0.524765, -79.788010, 8.389008, -132.668015, 13.727662, 100.772419
1759228119.437289, -7.775469, 1.203386, -4.755483, -2.259080, 0.898167, 0.675761, -79.401382, 9.093185, -131.357910, 13.727662, 100.772419
1759228119.458071, -7.699603, 1.334319, -4.762516, -2.364116, 0.821242, 0.898600, -78.782288, 10.149475, -130.561493, 13.727662, 100.772419
1759228119.478061, -8.877550, 2.514361, -4.982483, -2.628939, 0.450870, 1.118268, -78.421188, 11.362488, -129.570221, 13.727662, 100.772419
1759228119.498047, -11.539902, 2.292448, -5.494543, -2.641643, -0.237779, 0.945698, -77.459259, 12.682281, -127.732559, 13.727662, 100.772419
1759228119.518044, -13.538612, 1.259500, -5.531354, -2.311551, -0.582302, 0.507358, -76.879761, 13.713165, -126.144547, 13.727662, 100.772419
1759228119.538053, -11.158925, 1.823783, -5.204545, -2.327387, -0.981679, 0.483604, -76.518921, 13.740219, -123.796524, 13.727662, 100.772419
1759228119.557910, -8.715343, 3.424008, -4.775235, -2.947283, -1.631662, 1.358399, -75.951462, 14.716858, -121.250809, 13.727662, 100.772419
1759228119.578051, -8.321497, 4.112640, -3.724480, -3.665421, -2.343272, 2.549931, -74.982925, 15.670517, -118.245132, 13.727662, 100.772419
1759228119.598090, -10.284742, 3.947889, -2.940080, -4.067056, -2.993780, 3.002526, -72.962158, 16.511230, -114.390442, 13.727662, 100.772419
1759228119.617347, -11.475409, 4.383185, -4.631284, -3.288381, -3.428905, 3.037760, -70.240112, 17.020721, -110.263016, 13.727662, 100.772419
1759228119.637258, -12.411691, 5.890484, -7.704541, -2.151724, -1.762315, 2.799851, -66.836227, 17.985229, -107.446365, 13.727662, 100.772419
1759228119.658043, -13.092542, 5.562479, -9.117419, -0.201745, -1.863570, 1.718680, -63.752121, 18.101349, -105.492844, 13.727662, 100.772419
1759228119.678059, -13.043311, 3.709965, -1.697190, 0.227950, -1.722199, 0.826118, -62.139938, 18.544937, -104.970200, 13.727662, 100.772419
1759228119.697836, -11.906066, 5.392640, -1.485153, 0.254426, -2.687170, 0.450605, -61.193985, 18.495224, -105.012589, 13.727662, 100.772419
1759228119.718021, -9.763405, 6.075137, -0.981323, 0.139433, -2.829688, 0.917736, -59.784332, 18.936478, -104.560593, 13.727662, 100.772419
1759228119.737261, -10.016442, 5.211279, 0.307954, -0.343799, -2.713331, 1.165665, -57.945755, 18.822433, -104.650391, 13.727662, 100.772419
1759228119.757417, -9.107543, 5.142147, 0.355389, -0.842832, -2.853558, 1.544268, -56.123657, 18.664124, -103.819595, 13.727662, 100.772419
1759228119.778055, -7.926902, 5.584026, 0.699705, -0.662019, -2.142658, 1.821250, -53.856705, 18.339905, -103.054565, 13.727662, 100.772419
1759228119.798068, -9.257031, 8.040477, 0.959327, -0.195709, -1.332798, 1.558981, -51.526932, 18.025803, -103.197189, 13.727662, 100.772419
1759228119.818052, -11.361235, 11.006594, 2.163760, -0.234181, -0.698768, 0.894077, -50.733154, 18.550766, -103.120041, 13.727662, 100.772419
1759228119.838072, -11.438448, 10.340856, 3.837756, -1.140031, -0.315830, -0.023663, -49.862259, 18.111435, -102.069824, 13.727662, 100.772419
1759228119.858041, -10.351780, 6.504747, 3.286042, -2.287827, 0.198744, -0.814583, -50.167892, 17.575775, -100.272720, 13.727662, 100.772419
1759228119.877309, -9.656414, 5.013009, 0.804302, -2.693786, 0.706880, -1.163161, -51.434937, 16.697067, -97.990967, 13.727662, 100.772419
1759228119.898114, -7.676259, 3.602825, -7.560440, -0.202164, 0.158876, -0.972283, -52.154694, 16.176788, -97.949966, 13.727662, 100.772419
1759228119.918058, -10.421661, 0.518195, 1.665167, -1.941702, 0.188615, -1.441713, -53.563263, 15.743164, -96.689026, 13.727662, 100.772419
1759228119.938050, -8.978705, -1.466149, -3.575890, -1.028355, -0.167975, -1.511387, -54.547852, 15.291901, -95.334320, 13.727662, 100.772419
1759228119.958040, -7.641992, -1.120486, -5.194370, -0.434428, 0.781879, -1.733442, -55.732422, 15.421936, -94.692978, 13.727662, 100.772419
1759228119.977754, -7.888894, 0.896030, -1.449839, -0.652350, 1.255019, -1.954469, -57.842773, 14.429489, -95.045334, 13.727662, 100.772419
1759228119.998052, -6.450428, 3.185186, 0.072275, -1.431039, 2.119102, -2.002730, -60.504074, 13.713440, -93.983749, 13.727662, 100.772419
1759228120.018080, -4.830302, 4.413561, 2.800019, -1.605368, 1.650620, -1.972774, -62.743805, 12.728134, -93.567947, 13.727662, 100.772419
1759228120.038124, -7.259668, 3.206135, 2.623297, -1.359416, 1.428539, -2.032346, -65.265778, 11.556198, -92.965256, 13.727662, 100.772419
1759228120.058045, -6.096535, 2.910152, 3.820996, -1.317828, 1.263911, -1.354641, -66.403915, 11.082596, -91.541046, 13.727662, 100.772419
1759228120.078072, -8.360702, 5.360618, 2.259528, -1.119395, 0.621891, -1.337388, -68.104843, 9.753159, -92.179047, 13.727662, 100.772419
1759228120.098051, -9.169792, 0.292841, 0.806696, -0.806649, 0.599029, -1.382177, -69.330078, 8.805374, -91.094727, 13.727662, 100.772419
1759228120.118051, -11.524340, -1.711705, 0.925658, -0.460430, 0.797897, -1.263826, -70.712830, 8.392395, -90.762329, 13.727662, 100.772419
1759228120.138063, -11.168053, -0.022745, 2.429067, -0.275973, 0.586183, -0.733885, -71.222031, 7.876480, -91.452438, 13.727662, 100.772419
1759228120.158063, -10.730961, 3.790021, 4.032135, -0.255933, 0.405968, -0.129132, -71.582764, 7.992493, -90.658615, 13.727662, 100.772419
1759228120.178072, -9.260323, 3.463512, 3.470246, -0.018304, 0.473182, -0.060793, -71.964691, 7.523331, -91.659973, 13.727662, 100.772419
1759228120.197469, -7.327005, 3.446154, 2.270451, 0.488746, 0.632100, 0.275169, -72.086014, 7.881973, -92.033600, 13.727662, 100.772419
1759228120.218033, -6.526444, 4.553772, 1.021726, 0.634757, 0.901802, 0.870350, -72.045441, 8.790131, -92.928955, 13.727662, 100.772419
1759228120.238058, -5.488558, 5.908291, -1.050606, 0.909401, 1.004993, 0.854013, -71.978897, 9.109283, -93.805649, 13.727662, 100.772419
1759228120.258064, -7.330746, 8.442404, -0.492457, 0.814681, 1.408830, 0.363116, -72.642975, 9.529907, -94.583115, 13.727662, 100.772419
1759228120.278052, -9.308806, 7.755268, -2.240823, 0.590521, 0.773608, 0.437327, -72.571960, 10.422012, -95.820312, 13.727662, 100.772419
1759228120.297863, -9.751883, 4.868908, -1.448342, 0.060486, 0.836073, 1.126855, -72.300430, 10.901932, -96.124771, 13.727662, 100.772419
1759228120.318045, -11.959636, 4.151995, -0.663942, -0.265325, 0.548618, 1.169067, -71.781464, 11.198975, -95.713928, 13.727662, 100.772419
1759228120.338057, -9.629030, 2.833687, -1.343297, -0.238843, 0.955568, 0.672107, -71.522278, 11.123337, -95.785004, 13.727662, 100.772419
1759228120.358060, -7.842806, 5.470003, 3.062932, -1.085960, 1.350021, 1.208285, -71.455002, 11.251816, -95.610367, 13.727662, 100.772419
1759228120.378151, -10.309881, 4.647894, -0.665139, -0.822477, 0.866621, 1.424051, -71.040329, 11.139923, -95.287476, 13.727662, 100.772419
1759228120.397792, -11.693879, 0.661697, -1.287482, 0.455672, 0.065674, 0.820245, -70.135193, 11.690536, -95.646820, 13.727662, 100.772419
1759228120.418033, -9.207501, 0.943016, 1.694047, -0.438724, 1.233611, 0.634634, -70.302414, 11.628204, -95.419708, 13.727662, 100.772419
1759228120.438065, -6.073790, 9.429414, -3.601927, -0.432285, -0.433008, 0.751524, -69.724136, 11.796951, -95.090210, 13.727662, 100.772419
1759228120.458061, -7.631667, 6.092495, -1.300949, -0.926791, -0.597787, 0.587321, -68.854446, 11.730103, -93.775146, 13.727662, 100.772419
1759228120.477253, -9.891345, 0.967557, -2.719813, -1.727355, -1.304992, -0.129817, -68.309738, 10.668793, -92.717377, 13.727662, 100.772419
1759228120.498038, -8.524106, 1.374272, -4.058770, -1.342891, -0.127606, -0.935236, -68.768524, 10.101913, -91.549042, 13.727662, 100.772419
1759228120.518067, -10.226683, -0.204704, -3.567959, -0.400204, 0.765585, -1.545615, -69.891556, 9.355408, -91.826782, 13.727662, 100.772419
1759228120.538052, -13.473968, -1.306935, -2.611625, -0.174986, 0.581145, -1.839749, -71.066666, 8.644806, -91.743393, 13.727662, 100.772419
1759228120.558063, -9.176376, 1.759439, -1.964592, 0.203593, 1.688873, -0.668020, -72.958420, 8.310410, -92.225433, 13.727662, 100.772419
1759228120.578048, -9.565883, 3.652504, 1.393276, 0.083435, 1.343031, -0.341885, -73.992111, 8.180298, -92.665298, 13.727662, 100.772419
1759228120.597205, -9.770438, 1.599177, -1.960851, 0.349701, 0.926910, -0.827212, -74.677246, 8.320251, -93.266388, 13.727662, 100.772419
1759228120.618036, -10.267085, -1.021127, -3.282002, 1.157877, 0.391757, -0.517272, -75.423172, 8.270752, -94.638474, 13.727662, 100.772419
1759228120.638045, -11.378443, -0.199317, -3.627515, 1.596593, -0.517089, 0.020564, -75.888153, 8.601929, -95.307343, 13.727662, 100.772419
1759228120.658054, -9.970054, 2.468422, -2.516605, 1.266602, -0.578264, 0.439377, -75.108261, 9.406967, -95.796295, 13.727662, 100.772419
1759228120.678073, -7.948001, 5.511751, -2.791489, 0.502243, -0.893608, 0.661654, -74.500351, 9.646698, -96.177536, 13.727662, 100.772419
1759228120.697554, -5.820604, 5.775712, -1.890073, -0.461206, -0.600117, 0.457121, -74.038818, 9.927216, -96.315903, 13.727662, 100.772419
1759228120.718046, -4.643554, 5.684583, -2.309058, -1.197011, -0.774443, 1.192713, -73.061874, 9.385727, -95.138168, 13.727662, 100.772419
1759228120.738041, -8.272116, 1.921197, -1.786823, -1.405626, -1.352618, 1.843264, -70.991867, 9.264099, -93.661102, 13.727662, 100.772419
1759228120.758051, -8.757541, 0.950947, -1.568651, -1.385219, -1.148436, 2.126185, -69.676254, 9.099518, -92.953979, 13.727662, 100.772419
1759228120.778068, -8.929025, 1.371429, -1.307084, -1.080192, -1.159588, 2.402379, -67.687225, 9.359695, -91.656219, 13.727662, 100.772419
1759228120.798058, -11.586440, 5.961412, -0.604835, -0.518204, -1.276798, 2.137195, -65.621277, 9.194550, -90.772552, 13.727662, 100.772419
1759228120.818097, -13.060370, 6.862231, -1.208623, -0.160949, -0.153367, 2.436769, -63.911667, 9.466339, -90.660889, 13.727662, 100.772419
1759228120.837602, -10.474483, 3.910330, -1.383849, 0.126469, 0.771760, 2.966487, -62.393433, 9.841293, -91.047043, 13.727662, 100.772419
1759228120.858058, -11.471817, 5.892280, -1.553837, 0.251386, 0.497538, 2.619576, -60.991714, 10.129105, -91.406784, 13.727662, 100.772419
1759228120.878058, -14.050522, 10.743381, -0.201113, 0.035379, -0.012332, 1.124239, -60.294037, 10.043884, -91.338104, 13.727662, 100.772419
1759228120.898051, -10.998813, 11.418846, 1.156100, -0.204017, 0.954807, 0.825298, -59.714035, 10.206543, -91.849976, 13.727662, 100.772419
1759228120.917244, -7.329699, 6.855497, 1.799841, -0.095419, 1.788563, 2.098494, -59.642883, 9.882889, -92.112152, 13.727662, 100.772419
1759228120.938037, -10.112060, 8.184279, 0.253336, 0.109226, 2.262004, 2.783494, -59.306244, 10.366272, -91.915039, 13.727662, 100.772419
1759228120.958145, -10.559327, 7.952939, -0.795324, 0.302336, 3.501252, 2.793417, -58.744797, 10.247864, -93.042297, 13.727662, 100.772419
1759228120.978105, -10.062081, 4.062511, -0.956932, 0.021116, 4.010017, 0.682716, -60.015289, 10.315750, -93.869659, 13.727662, 100.772419
1759228120.998240, -4.932055, 1.969231, 0.166247, -0.151152, 4.372529, 0.061101, -62.473679, 10.467468, -93.870544, 13.727662, 100.772419
1759228121.018032, -1.859247, 1.368586, -0.204555, 0.024175, 5.495728, -0.659549, -65.692657, 10.246460, -95.217957, 13.727662, 100.772419
1759228121.038167, -1.590947, 1.265485, -0.793528, -0.110341, 6.231851, -1.096452, -68.721268, 9.635040, -96.247711, 13.727662, 100.772419
1759228121.057322, -2.817676, 2.894291, -2.059313, -1.810877, 4.202672, -0.840730, -70.292877, 9.255676, -96.993607, 13.727662, 100.772419
1759228121.078054, -2.162862, 3.691260, -1.515380, -3.488249, 4.129812, 0.681012, -73.038055, 7.150543, -96.522476, 13.727662, 100.772419
1759228121.098057, -0.331597, 2.803461, 0.381576, -3.882879, 3.712890, 2.975506, -73.022141, 7.046692, -95.766983, 13.727662, 100.772419
1759228121.118044, 0.583587, 1.970278, -0.083498, -4.102557, 3.454864, 3.456983, -72.362625, 6.327621, -94.953690, 13.727662, 100.772419
1759228121.138051, 0.036512, 1.664269, -0.328903, -3.528733, 3.639774, 3.265075, -72.109741, 5.466751, -94.225998, 13.727662, 100.772419
1759228121.157256, -0.029778, 10.150368, -11.078570, -0.457733, 3.467762, 3.125655, -72.255920, 6.180817, -95.745850, 13.727662, 100.772419
1759228121.178056, 2.671630, 40.623766, -1.946037, 2.795509, -0.743076, 3.111300, -70.122513, 7.954178, -97.133041, 13.727662, 100.772419
1759228121.198050, 0.493056, 47.806521, -1.837550, 4.480402, -0.605457, 1.501800, -68.340775, 9.497986, -99.628998, 13.727662, 100.772419
1759228121.218045, -1.738340, 17.853412, 0.824802, 4.260337, 0.216078, 0.760555, -67.876663, 11.005737, -102.022186, 13.727662, 100.772419
1759228121.237457, 1.775600, 5.952734, 1.966986, 3.869370, 1.340156, 1.032433, -67.352386, 12.219254, -105.359360, 13.727662, 100.772419
1759228121.257309, -0.967407, 1.314267, -1.953369, 3.921346, 1.831623, 1.060622, -66.823990, 12.785797, -108.432037, 13.727662, 100.772419
1759228121.278054, -0.470311, 2.866608, -2.793285, 3.148094, 0.794129, 1.577190, -65.920471, 13.821884, -111.137894, 13.727662, 100.772419
1759228121.298068, 0.010026, 7.986309, -3.630807, 2.215418, 0.196701, 1.849941, -64.589859, 14.411301, -112.907928, 13.727662, 100.772419
1759228121.318054, -1.780388, 10.015095, -4.102913, 1.964875, 0.569362, 1.588117, -63.420609, 14.848816, -114.586929, 13.727662, 100.772419
1759228121.337887, -2.166304, 10.858902, -3.801394, 2.133069, 1.064188, 1.222404, -62.482529, 14.811371, -116.753067, 13.727662, 100.772419
1759228121.358061, -1.333720, 9.013421, -3.313874, 1.877020, 0.954646, 0.942522, -61.784958, 14.963806, -117.431259, 13.727662, 100.772419
1759228121.378071, -0.536750, 5.575497, -2.666392, 1.195700, 0.799858, 0.741912, -61.143906, 14.807388, -118.693909, 13.727662, 100.772419
1759228121.398053, 0.012420, 3.203891, -2.842366, 0.716915, 0.696112, 0.634862, -60.947113, 14.943161, -119.138901, 13.727662, 100.772419
1759228121.417258, 1.192462, 1.793407, -3.777152, 0.372959, 0.134581, 0.537814, -60.312439, 15.006760, -119.762939, 13.727662, 100.772419
1759228121.438057, 2.399589, 1.509843, -4.478055, -0.184337, 0.087147, 0.165001, -60.048828, 15.078201, -119.826859, 13.727662, 100.772419
1759228121.458057, 3.859303, 2.014122, -4.510377, -0.414884, 0.101264, -0.236374, -60.539810, 15.203537, -119.672195, 13.727662, 100.772419
1759228121.478062, 3.047968, 2.979285, -6.561759, -0.530435, -0.364870, -0.634547, -60.389114, 14.833450, -119.659241, 13.727662, 100.772419
1759228121.498059, 1.215955, 3.528155, -5.339668, -1.033676, -0.960071, -0.913318, -60.876175, 14.672623, -118.639648, 13.727662, 100.772419
1759228121.517687, 0.932392, 2.475605, -2.874089, -1.353610, -1.018984, -1.046654, -62.057556, 14.363602, -117.858994, 13.727662, 100.772419
1759228121.538071, 3.564517, 0.947954, -12.852823, -0.385243, -1.148795, -1.047023, -62.241394, 13.658997, -117.670181, 13.727662, 100.772419
1759228121.558067, 3.704279, 11.113734, -11.403583, -0.527862, -0.208636, -1.008128, -63.373779, 13.897049, -117.073868, 13.727662, 100.772419
1759228121.578150, -5.821651, 20.107403, -12.494141, -0.810545, -0.720562, -1.153511, -63.935318, 13.603409, -116.455017, 13.727662, 100.772419
1759228121.598069, -2.556558, 16.988656, 2.880973, -1.919212, -1.907975, -0.400416, -64.233826, 13.438263, -114.272247, 13.727662, 100.772419
1759228121.618044, -0.270545, 6.144569, -6.238990, -0.879276, -0.479589, -0.614150, -64.792236, 13.349319, -113.798813, 13.727662, 100.772419
1759228121.638055, 2.304718, 0.414945, -5.635651, -1.122747, 0.241416, -1.260842, -65.533051, 12.925781, -112.962067, 13.727662, 100.772419
1759228121.658060, 3.488053, 4.354604, -6.657676, -1.749952, -0.396367, -0.924961, -66.506378, 12.434982, -111.994949, 13.727662, 100.772419
1759228121.678076, 4.175188, 11.695825, -4.826411, -1.894857, -1.591354, 0.217562, -65.800552, 12.019028, -109.985077, 13.727662, 100.772419
1759228121.698055, 1.979107, 14.155717, -2.683302, -1.723353, -1.926825, 0.893355, -64.844833, 12.088104, -108.238510, 13.727662, 100.772419
1759228121.718044, -0.032172, 11.842021, -2.990508, -1.418160, -1.574538, 0.334784, -64.466568, 11.630478, -107.390625, 13.727662, 100.772419
1759228121.737420, -1.389236, 9.202413, -3.577536, -1.273642, -1.357984, -0.545877, -64.636139, 10.867279, -106.160187, 13.727662, 100.772419
1759228121.758054, -2.050334, 8.331971, -3.818153, -1.234599, -2.134371, -0.616837, -64.293900, 10.817917, -104.888092, 13.727662, 100.772419
1759228121.778056, -2.252944, 8.771457, -2.814234, -1.359466, -2.791686, -0.259404, -64.023621, 10.205460, -103.501724, 13.727662, 100.772419
1759228121.798052, -2.869451, 9.274239, -2.921076, -1.362041, -2.559166, -0.108704, -63.093872, 9.819931, -102.424484, 13.727662, 100.772419
1759228121.818032, -2.935142, 9.280674, -3.000533, -1.210407, -1.896105, -0.233426, -62.707031, 9.570587, -101.337280, 13.727662, 100.772419
1759228121.838056, -2.578106, 9.055170, -3.155558, -1.014763, -1.542244, -0.372653, -62.334351, 9.034271, -100.078552, 13.727662, 100.772419
1759228121.858058, -2.763956, 8.615235, -3.953425, -0.898277, -1.475414, -0.441726, -61.892944, 8.844254, -99.208435, 13.727662, 100.772419
1759228121.878055, -2.921225, 8.036138, -3.678392, -0.956196, -1.780963, -0.464708, -61.228271, 8.319214, -98.629089, 13.727662, 100.772419
1759228121.898106, -2.632425, 7.856573, -3.516484, -1.027153, -2.007746, -0.542762, -61.144592, 7.850388, -97.844986, 13.727662, 100.772419
1759228121.918044, -1.890671, 7.716662, -3.044976, -0.992116, -1.747205, -0.628946, -60.509949, 7.279770, -96.787552, 13.727662, 100.772419
1759228121.938072, -1.686117, 7.539940, -2.364723, -0.927888, -1.332165, -0.594579, -60.408218, 6.879654, -96.256165, 13.727662, 100.772419
1759228121.958061, -2.256984, 7.569119, -2.247108, -0.865054, -1.089439, -0.559612, -60.251556, 6.491577, -95.446228, 13.727662, 100.772419
1759228121.978056, -2.904765, 8.346935, -2.063652, -0.803761, -1.064679, -0.537093, -60.193390, 6.087021, -95.018784, 13.727662, 100.772419
1759228121.998054, -3.494038, 9.275287, -1.949329, -0.773323, -1.188392, -0.549077, -59.786316, 5.648071, -94.269226, 13.727662, 100.772419
1759228122.018113, -4.081366, 9.210494, -2.139668, -0.717889, -1.141291, -0.528721, -59.670639, 5.487061, -93.491989, 13.727662, 100.772419
1759228122.038085, -3.969437, 8.608053, -1.617882, -0.704363, -1.065652, -0.415132, -58.853912, 5.221756, -93.192596, 13.727662, 100.772419
1759228122.058048, -3.926341, 8.530840, -1.244536, -0.700959, -1.062129, -0.259969, -58.631302, 4.736801, -92.726028, 13.727662, 100.772419
1759228122.077959, -3.966743, 8.634988, -1.295712, -0.671308, -1.088010, -0.090447, -58.327972, 3.815186, -92.820602, 13.727662, 100.772419
1759228122.097709, -4.112490, 8.649652, -1.024269, -0.653962, -1.023448, -0.042423, -57.980118, 3.831223, -92.715881, 13.727662, 100.772419
1759228122.117699, -4.329465, 8.341847, -0.909348, -0.751245, -1.141382, -0.113617, -57.168472, 3.321182, -91.591888, 13.727662, 100.772419
1759228122.137570, -4.257489, 8.366089, -1.023671, -0.834227, -1.446814, -0.217618, -57.035767, 2.827179, -91.148636, 13.727662, 100.772419
1759228122.158057, -4.201674, 8.498368, -1.244087, -0.887146, -1.294458, -0.350077, -56.559601, 2.282990, -90.796982, 13.727662, 100.772419
1759228122.178087, -4.004751, 8.145523, -1.306935, -0.806985, -0.984795, -0.367588, -56.002151, 1.684418, -90.626831, 13.727662, 100.772419
1759228122.197093, -3.949385, 7.930643, -1.269376, -0.888198, -0.876303, -0.101777, -55.301559, 1.585052, -90.051987, 13.727662, 100.772419
1759228122.218058, -4.438850, 8.187122, -1.428590, -0.969004, -0.691918, 0.006064, -54.746582, 0.860184, -90.081955, 13.727662, 100.772419
1759228122.237490, -4.445434, 8.493580, -1.409437, -0.959446, -0.484843, -0.064350, -54.557938, 0.441284, -89.488068, 13.727662, 100.772419
1759228122.258054, -3.961805, 9.859023, -1.386093, -0.980828, -0.176050, -0.030371, -54.498489, -0.286072, -88.765961, 13.727662, 100.772419
1759228122.278064, -4.716877, 10.997316, -1.665167, -0.847819, -0.266938, 0.158318, -54.583633, -0.479477, -88.744446, 13.727662, 100.772419
1759228122.298053, -6.286874, 11.765406, -1.161337, -0.388450, -0.400971, 0.221748, -54.028564, -0.780991, -88.236465, 13.727662, 100.772419
1759228122.317921, -7.039252, 12.145186, -0.549619, 0.400580, -0.518525, -0.229798, -54.088486, -1.036438, -88.662109, 13.727662, 100.772419
1759228122.337861, -7.309498, 13.104663, 0.858022, 0.922436, -0.260959, -0.853588, -54.161865, -0.644409, -89.245087, 13.727662, 100.772419
1759228122.358058, -5.652411, 13.868862, 0.999430, 1.068438, 0.096270, -0.896254, -54.625092, 0.193726, -89.212616, 13.727662, 100.772419
1759228122.377753, -2.941127, 14.097209, 0.375291, 0.715331, 0.473052, 0.047997, -54.984329, 0.325241, -90.175156, 13.727662, 100.772419
1759228122.398060, -1.927033, 12.839804, 0.436792, 0.337704, 0.744206, 0.503465, -55.113968, 0.788437, -90.587448, 13.727662, 100.772419
1759228122.418044, -2.753930, 12.138004, -0.717961, 0.282834, 1.309603, 0.570671, -55.483414, 0.777039, -90.099060, 13.727662, 100.772419
1759228122.438057, -3.518130, 12.000936, -3.347094, 0.707968, 2.272986, 0.681849, -56.450409, 0.844208, -90.260529, 13.727662, 100.772419
1759228122.457073, -5.050868, 11.984027, -7.295132, 1.885031, 3.198978, 0.685520, -57.219131, 0.826614, -90.974304, 13.727662, 100.772419
1759228122.478055, -6.797587, 11.079467, -9.322572, 3.138373, 3.082513, 0.755242, -58.985443, 3.070435, -92.966064, 13.727662, 100.772419
1759228122.497112, -7.105841, 10.240449, -7.078008, 3.340672, 1.782998, 0.865691, -59.199905, 4.407822, -95.803024, 13.727662, 100.772419
1759228122.517913, -6.429778, 9.617807, -0.458041, 2.612845, -0.518162, 0.406752, -58.578400, 5.177979, -96.851547, 13.727662, 100.772419
1759228122.538054, -5.358074, 10.064027, 5.262306, 1.602118, -1.626894, -0.169774, -57.987625, 6.058929, -98.575058, 13.727662, 100.772419
1759228122.558059, -3.862446, 10.489147, 3.194314, 1.783856, 1.030513, -0.322981, -58.136963, 6.980942, -99.420197, 13.727662, 100.772419
1759228122.578070, -2.929006, 11.192893, -1.050007, 2.380229, 4.730857, -0.202402, -59.747955, 7.524597, -100.790054, 13.727662, 100.772419
1759228122.598071, -3.616591, 10.380809, -0.221164, 2.524832, 5.340905, -0.070905, -61.632355, 8.219894, -102.425919, 13.727662, 100.772419
1759228122.618099, -3.738396, 9.345617, -3.379116, 2.375609, 3.427486, 0.095082, -62.717865, 8.312927, -104.523987, 13.727662, 100.772419
1759228122.638057, -2.478298, 8.721777, -5.356128, 2.041281, 2.092221, 0.308643, -63.138245, 8.765121, -106.315094, 13.727662, 100.772419
1759228122.658058, -0.626084, 7.895927, -3.812018, 1.941081, 1.448600, 0.439495, -63.044342, 9.269852, -107.802658, 13.727662, 100.772419
1759228122.678058, -0.137966, 7.624186, -0.902764, 2.082621, 1.587772, 0.332390, -63.167664, 9.911591, -109.081757, 13.727662, 100.772419
1759228122.698059, -0.043694, 6.798785, -1.252018, 2.290098, 2.006996, 0.168403, -62.862228, 9.987839, -110.523804, 13.727662, 100.772419
1759228122.718044, 0.046388, 6.224326, -3.926640, 2.132973, 1.769241, 0.231094, -63.072662, 10.468491, -112.128738, 13.727662, 100.772419
1759228122.738180, -0.291195, 6.541707, -3.537882, 1.639265, 1.566047, 0.328800, -63.113373, 10.196838, -113.513489, 13.727662, 100.772419
1759228122.758054, -0.831387, 6.285378, -2.676717, 1.416051, 1.520669, 0.348996, -62.550171, 10.491257, -114.834534, 13.727662, 100.772419
1759228122.777322, -1.157597, 5.177461, -3.194015, 1.323013, 1.192230, 0.360317, -62.992294, 10.622894, -116.069260, 13.727662, 100.772419
1759228122.797453, -1.136198, 4.185214, -3.702184, 0.962186, 0.716505, 0.312271, -62.172195, 10.570572, -116.761765, 13.727662, 100.772419
1759228122.818044, -1.006163, 3.773411, -3.257461, 0.520940, 0.592436, 0.222793, -62.481461, 10.769455, -117.561966, 13.727662, 100.772419
1759228122.838051, -0.560842, 3.353678, -3.241001, 0.189633, 0.774054, 0.177104, -62.525070, 10.720612, -117.706284, 13.727662, 100.772419
1759228122.858129, -0.167893, 3.008763, -3.670461, -0.068027, 0.585869, 0.168019, -62.283493, 10.398224, -117.595398, 13.727662, 100.772419
1759228122.878057, 0.645088, 2.870648, -4.502595, -0.246787, 0.030499, 0.122054, -62.231506, 10.356873, -117.730606, 13.727662, 100.772419
1759228122.898075, 1.604414, 3.503764, -5.288791, -0.354308, -0.409169, -0.092463, -61.761459, 10.479172, -117.177460, 13.727662, 100.772419
1759228122.918043, 1.433977, 4.247463, -5.769876, -0.441352, -0.781200, -0.452938, -62.015427, 10.300766, -117.690109, 13.727662, 100.772419
1759228122.938052, 1.084723, 3.932626, -6.253804, -0.749280, -1.262835, -0.532877, -62.506271, 10.299942, -116.676956, 13.727662, 100.772419
1759228122.957194, 1.594239, 3.573496, -5.896619, -0.996649, -1.460565, -0.494571, -62.801102, 10.171326, -115.737335, 13.727662, 100.772419
1759228122.978054, 3.867833, 2.659210, -9.778668, -0.520918, -1.569295, -0.076317, -62.843628, 9.811752, -115.148193, 13.727662, 100.772419
1759228122.998060, 4.882825, 7.624634, -15.302091, -0.720066, -1.024503, 0.024676, -62.691483, 10.341003, -114.851028, 13.727662, 100.772419
1759228123.018047, -2.044199, 15.696835, -9.348011, -0.570859, -1.745568, -0.317416, -62.422638, 9.929764, -114.086319, 13.727662, 100.772419
1759228123.038046, -11.775731, 16.893487, -9.468768, -0.672185, -3.287698, -0.294717, -62.638504, 9.556808, -113.619415, 13.727662, 100.772419
1759228123.057605, -5.025429, 10.059687, 0.578050, -1.253202, -1.922497, -0.181609, -62.316818, 9.765274, -112.277695, 13.727662, 100.772419
1759228123.078108, 0.063147, 2.742857, -6.574328, -1.427469, -0.516075, -0.129989, -62.572876, 9.639648, -111.514145, 13.727662, 100.772419
1759228123.098083, -0.739359, 0.676661, -7.399280, -1.439143, -1.242126, -0.455521, -62.323242, 8.991058, -110.590851, 13.727662, 100.772419
1759228123.118117, -1.474828, 7.931242, -3.976619, -1.736058, -1.602926, 0.174882, -61.658615, 8.642746, -109.109283, 13.727662, 100.772419
1759228123.138101, -1.086369, 13.845519, -4.984129, -1.835831, -1.259920, 0.960934, -61.298172, 8.268707, -107.524536, 13.727662, 100.772419
1759228123.158214, -2.611176, 14.366706, -4.369568, -1.649551, -1.111402, 0.855889, -60.683182, 8.044861, -106.300323, 13.727662, 100.772419
1759228123.178082, -3.942801, 9.936535, -3.348441, -1.479215, -1.378941, -0.211146, -60.377975, 7.509201, -105.052261, 13.727662, 100.772419
1759228123.198103, -3.781043, 6.947824, -3.098097, -1.305651, -2.082335, -0.820796, -60.074005, 7.099045, -104.202316, 13.727662, 100.772419
1759228123.218228, -3.676746, 6.423194, -2.637662, -1.305836, -2.443623, -0.638162, -60.074783, 6.749954, -103.551285, 13.727662, 100.772419
1759228123.238158, -4.090045, 7.571513, -2.489072, -1.360789, -1.968701, -0.122351, -59.531113, 6.262054, -102.358627, 13.727662, 100.772419
1759228123.258047, -4.400243, 8.806173, -2.421286, -1.425842, -1.197696, 0.289243, -58.984238, 5.867264, -101.476028, 13.727662, 100.772419
1759228123.277337, -4.384531, 9.387814, -2.144606, -1.497854, -0.755911, 0.413029, -58.261414, 5.608353, -100.757019, 13.727662, 100.772419
1759228123.298159, -4.122815, 9.033772, -2.690634, -1.365767, -0.608718, 0.215484, -58.141800, 5.117538, -99.767899, 13.727662, 100.772419
1759228123.318183, -3.035997, 8.582614, -3.218705, -1.083471, -0.553886, -0.087497, -57.749695, 4.580246, -99.241653, 13.727662, 100.772419
1759228123.338073, -1.576731, 7.977031, -2.860173, -0.997681, -0.796142, -0.220630, -57.463150, 4.066483, -98.805176, 13.727662, 100.772419
1759228123.358200, -0.647183, 7.494749, -2.788796, -1.051685, -1.066165, -0.141747, -56.957596, 3.896622, -97.714279, 13.727662, 100.772419
1759228123.378044, -0.709731, 7.491158, -2.513912, -1.002530, -1.166090, 0.058922, -56.897964, 3.067612, -97.500153, 13.727662, 100.772419
1759228123.398080, -1.810914, 7.908946, -2.136825, -0.888749, -1.178883, 0.178768, -56.060501, 3.277100, -96.823669, 13.727662, 100.772419
1759228123.418032, -3.340061, 8.508693, -2.231546, -0.719943, -1.062862, 0.133483, -55.755371, 2.649872, -97.156815, 13.727662, 100.772419
1759228123.438122, -4.599261, 8.919598, -2.063054, -0.651960, -0.836104, 0.049631, -54.828110, 2.446747, -96.431412, 13.727662, 100.772419
1759228123.458118, -5.249586, 8.723723, -1.454627, -0.726518, -0.698494, 0.145905, -54.778748, 2.030899, -96.061127, 13.727662, 100.772419
1759228123.478168, -5.577442, 8.490288, -1.466149, -0.743731, -0.697576, 0.151026, -54.632858, 1.746964, -96.053772, 13.727662, 100.772419
1759228123.498240, -5.345803, 8.262240, -2.089988, -0.724984, -0.529228, -0.061822, -54.373505, 1.458069, -95.017517, 13.727662, 100.772419
1759228123.518182, -4.679467, 8.577976, -1.517475, -0.754030, -0.762186, -0.192057, -54.281891, 1.206985, -95.101639, 13.727662, 100.772419
1759228123.538083, -4.172495, 8.819940, -0.958728, -0.830030, -1.132610, -0.257140, -53.623276, 1.083038, -94.574966, 13.727662, 100.772419
1759228123.558197, -3.608960, 8.564059, -0.730680, -0.998812, -1.167253, -0.224930, -53.203400, 0.548080, -93.804031, 13.727662, 100.772419
1759228123.578068, -3.543568, 8.381352, -0.838270, -1.185606, -0.923756, -0.155372, -52.589233, -0.023788, -93.854248, 13.727662, 100.772419
1759228123.598075, -4.213496, 8.576030, -1.252317, -1.220477, -0.746092, -0.112778, -52.171387, -0.472229, -93.422348, 13.727662, 100.772419
1759228123.618147, -4.328717, 8.215853, -1.689857, -1.139709, -0.725537, -0.037342, -51.842331, -1.285492, -92.064758, 13.727662, 100.772419
1759228123.638237, -4.451419, 7.626879, -1.914015, -1.080330, -0.517894, 0.113787, -51.241928, -1.724365, -92.419220, 13.727662, 100.772419
1759228123.658093, -5.187188, 7.794922, -2.246210, -1.015130, -0.256494, 0.094774, -51.396820, -2.204712, -92.482590, 13.727662, 100.772419
1759228123.678127, -5.909488, 8.981399, -2.500444, -0.871651, 0.003386, 0.015288, -51.160507, -3.042252, -91.642929, 13.727662, 100.772419
1759228123.698158, -6.051794, 10.841843, -2.601001, -0.503785, 0.025968, 0.073108, -51.426483, -3.187347, -91.742325, 13.727662, 100.772419
1759228123.718098, -5.771373, 11.949610, -1.555184, -0.111368, 0.032297, 0.108285, -50.895340, -3.220581, -91.149185, 13.727662, 100.772419
1759228123.738234, -6.969970, 12.874520, 0.490362, 0.487348, -0.123842, -0.157460, -51.366516, -3.351425, -92.028458, 13.727662, 100.772419
1759228123.758134, -7.439383, 12.867188, 2.294842, 1.105221, -0.670738, -0.763821, -51.253784, -2.783447, -92.875015, 13.727662, 100.772419
1759228123.777372, -6.870162, 12.776358, 2.519149, 1.068660, -0.588104, -1.202819, -51.315674, -2.082108, -92.666092, 13.727662, 100.772419
1759228123.798049, -2.350059, 14.854375, 0.682946, 0.190417, 0.208163, -0.456434, -52.024948, -1.968842, -92.479050, 13.727662, 100.772419
1759228123.818053, -1.483657, 13.512425, -1.546505, -0.175715, 1.351651, 0.408838, -52.265656, -1.881836, -93.242386, 13.727662, 100.772419
1759228123.838053, -2.220622, 12.810625, -2.621501, 0.386150, 2.032596, 0.643239, -52.631790, -2.056076, -93.312103, 13.727662, 100.772419
1759228123.858071, -3.827431, 12.365303, -4.600758, 1.245389, 2.301828, 0.625680, -53.980621, -1.081619, -93.371780, 13.727662, 100.772419
1759228123.877776, -4.614824, 12.485911, -5.587019, 2.032437, 2.545079, 0.679741, -54.847687, -0.760590, -94.501495, 13.727662, 100.772419
1759228123.898046, -5.905298, 11.439645, -8.315661, 3.085411, 3.093971, 0.740941, -55.446930, 0.875015, -95.775681, 13.727662, 100.772419
1759228123.917970, -7.187244, 10.379463, -7.445369, 3.639153, 1.769614, 0.652732, -56.508865, 2.074768, -97.223969, 13.727662, 100.772419
1759228123.937772, -6.770353, 10.566210, -0.688034, 3.012111, -0.814576, 0.122497, -55.981628, 2.964539, -99.454727, 13.727662, 100.772419
1759228123.957693, -4.498855, 11.988366, 6.206818, 1.856040, -1.481297, -0.237646, -55.512421, 4.148239, -100.119324, 13.727662, 100.772419
1759228123.978151, -4.127903, 12.165088, 1.766023, 2.407912, 1.876811, -0.478255, -56.111465, 4.481369, -101.597717, 13.727662, 100.772419
1759228123.997875, -4.650288, 12.145635, -2.003648, 3.084901, 4.748744, -0.344527, -58.069534, 5.646942, -103.300537, 13.727662, 100.772419
1759228124.018034, -2.880374, 10.755652, -0.420332, 2.954103, 5.101192, 0.098659, -59.015900, 6.223465, -105.640762, 13.727662, 100.772419
1759228124.038059, -0.683096, 9.085097, -1.401655, 2.574455, 3.972469, 0.682053, -59.813034, 6.487732, -107.380997, 13.727662, 100.772419
1759228124.057459, -0.824503, 7.353641, -4.857985, 2.536927, 2.328240, 0.790075, -59.982895, 7.015671, -109.526260, 13.727662, 100.772419
1759228124.078150, -1.195006, 7.357382, -4.359991, 2.750659, 1.177083, 0.587879, -59.639267, 7.593430, -111.004166, 13.727662, 100.772419
1759228124.097457, -0.230143, 8.014740, -2.267309, 2.728268, 1.489779, 0.471399, -59.522186, 7.911789, -112.462021, 13.727662, 100.772419
1759228124.118043, -0.140959, 6.944532, -2.013224, 2.565568, 1.637033, 0.288938, -59.005219, 8.247543, -113.651978, 13.727662, 100.772419
1759228124.138057, -0.789787, 4.935497, -2.806603, 2.307856, 1.110889, 0.064575, -59.537292, 8.427277, -115.930237, 13.727662, 100.772419
1759228124.158065, -1.643171, 3.846285, -2.411859, 1.802492, 1.079893, -0.024545, -59.713745, 8.213394, -117.049149, 13.727662, 100.772419
1759228124.178052, -1.849670, 3.038092, -1.891120, 1.221651, 1.262462, 0.229163, -59.803207, 8.188660, -118.169189, 13.727662, 100.772419
1759228124.197928, -1.827823, 2.295441, -2.001253, 0.613104, 1.170661, 0.431239, -59.189362, 8.365097, -118.564056, 13.727662, 100.772419
1759228124.218030, -1.651850, 2.015170, -2.400935, 0.270750, 0.915360, 0.216101, -58.993179, 8.189148, -118.726791, 13.727662, 100.772419
1759228124.238072, -1.466299, 1.740136, -2.711433, 0.044492, 0.406239, -0.138656, -59.005615, 8.045135, -118.381256, 13.727662, 100.772419
1759228124.258062, 0.242413, 1.134103, -4.282927, -0.305362, -0.116017, -0.410000, -59.378723, 8.313751, -118.559769, 13.727662, 100.772419
1759228124.278161, 1.359907, 0.447716, -5.341913, -0.816457, -0.533212, -0.738775, -59.620682, 7.673767, -118.355286, 13.727662, 100.772419
1759228124.297591, 1.464054, 0.578649, -6.075586, -1.401238, -1.314345, -0.887555, -59.926346, 7.738235, -117.798035, 13.727662, 100.772419
1759228124.318042, 2.405873, 0.963816, -6.135441, -1.380990, -2.037361, -0.689821, -60.529449, 7.614075, -116.415970, 13.727662, 100.772419
1759228124.337165, 7.482778, 1.973271, -15.887922, -0.096535, -1.102254, -0.277054, -60.671310, 7.214706, -115.418457, 13.727662, 100.772419
1759228124.358057, 1.810166, 14.110676, -8.418163, -1.442026, -0.250305, -0.335523, -60.866669, 7.106812, -115.588928, 13.727662, 100.772419
1759228124.378053, -10.732009, 15.409980, -15.423597, -0.284914, -4.697879, -0.366398, -60.787354, 7.215347, -115.210571, 13.727662, 100.772419
1759228124.398051, -8.625111, 14.034660, 2.299780, -1.573650, -0.962414, -0.285912, -60.981339, 7.094543, -114.015320, 13.727662, 100.772419
1759228124.418043, -2.475305, 5.694459, -4.058920, -1.436508, -0.347317, -0.785619, -60.976700, 6.744720, -112.821060, 13.727662, 100.772419
1759228124.438070, -3.781791, 1.574188, -10.163087, -1.772514, -1.448209, -1.041672, -61.563202, 6.332779, -112.314041, 13.727662, 100.772419
1759228124.458056, -2.335544, 7.032967, -2.427571, -1.974937, -1.269301, 0.073338, -61.545074, 6.196243, -110.692169, 13.727662, 100.772419
1759228124.478055, -0.729783, 12.416629, -6.351817, -1.680482, -0.429629, 1.072908, -61.150803, 5.758087, -110.198761, 13.727662, 100.772419
1759228124.497075, -0.680851, 14.570662, -4.848109, -1.768228, -0.534293, 1.121368, -60.284973, 5.758286, -108.406738, 13.727662, 100.772419
1759228124.518033, -0.930596, 10.475680, -3.861698, -1.527415, -1.640424, -0.038303, -60.157074, 4.928513, -107.106750, 13.727662, 100.772419
1759228124.538057, -0.303166, 8.272565, -3.503166, -1.245731, -2.430449, -0.304904, -59.755692, 4.475937, -106.617371, 13.727663, 100.772420
1759228124.558057, -0.714071, 7.895479, -2.508974, -1.375349, -2.692841, 0.132760, -59.050949, 4.075958, -105.605057, 13.727663, 100.772420
1759228124.578045, -2.677765, 8.485649, -0.940173, -1.648528, -2.173500, 0.494854, -58.019821, 3.908813, -104.330704, 13.727663, 100.772420
1759228124.597494, -5.027524, 9.867852, -1.367688, -1.635411, -1.931988, 0.549952, -57.402893, 3.384674, -103.042374, 13.727663, 100.772420
1759228124.618032, -5.566818, 10.398766, -2.110638, -1.381631, -1.689606, 0.487004, -56.547897, 2.886734, -103.214371, 13.727663, 100.772420
1759228124.638117, -5.240010, 9.849895, -1.990928, -1.287670, -1.600139, 0.285904, -56.102982, 2.543427, -101.932083, 13.727663, 100.772420
1759228124.657601, -4.851401, 8.482208, -2.483685, -1.254247, -1.550456, 0.086163, -55.572189, 2.184555, -101.328140, 13.727663, 100.772420
1759228124.677479, -4.017620, 7.352294, -2.604143, -1.117486, -1.539217, -0.002958, -54.846603, 1.753967, -100.684174, 13.727663, 100.772420
1759228124.697926, -3.172766, 6.604555, -2.083554, -1.096182, -1.455760, 0.085991, -54.333740, 1.453461, -100.193024, 13.727663, 100.772420
1759228124.717101, -2.708141, 6.656330, -1.701080, -1.188463, -1.144192, 0.328563, -53.929535, 0.794250, -100.064453, 13.727663, 100.772420
1759228124.738052, -2.899827, 7.632715, -1.723676, -1.157045, -0.652359, 0.475867, -53.616791, 0.991196, -99.613602, 13.727663, 100.772420
1759228124.758061, -3.889979, 8.189965, -1.759439, -1.017519, -0.426693, 0.390940, -52.898026, 0.442719, -98.684433, 13.727663, 100.772420
1759228124.778073, -4.297592, 8.160487, -2.199224, -0.846912, -0.424861, 0.297669, -52.568726, 0.309280, -98.779251, 13.727663, 100.772420
1759228124.798039, -4.302829, 7.822006, -1.998111, -0.873181, -0.582902, 0.245623, -51.985687, 0.006882, -97.860504, 13.727663, 100.772420
1759228124.818031, -4.351462, 8.247725, -1.473930, -0.843257, -0.801446, 0.159635, -51.779449, -0.829361, -97.855759, 13.727663, 100.772420
1759228124.838163, -4.172495, 8.811261, -1.166575, -0.845134, -0.907039, 0.135754, -51.494644, -1.083771, -97.408005, 13.727663, 100.772420
1759228124.858057, -4.215890, 8.647407, -1.516577, -0.757332, -1.366041, -0.023555, -50.805527, -1.337479, -97.471436, 13.727663, 100.772420
1759228124.878172, -3.829376, 8.288427, -1.820042, -0.656454, -1.739758, -0.122236, -50.638641, -1.390854, -97.097137, 13.727663, 100.772420
1759228124.897873, -4.439000, 8.795848, -1.515230, -0.624513, -1.688865, -0.135056, -49.674789, -1.372665, -97.078659, 13.727663, 100.772420
1759228124.917598, -4.986823, 8.640375, -1.107169, -0.722096, -1.221289, -0.075592, -49.515427, -2.126923, -97.081390, 13.727663, 100.772420
1759228124.937380, -5.005827, 8.152406, -1.927033, -0.802386, -0.693013, 0.094098, -48.928665, -2.375290, -96.895096, 13.727663, 100.772420
1759228124.958058, -4.895843, 7.738509, -2.348562, -0.816137, -0.389095, 0.177580, -48.763092, -2.693909, -96.096970, 13.727663, 100.772420
1759228124.978102, -5.013907, 8.228123, -2.002899, -0.771874, -0.361440, 0.129606, -48.544846, -3.174332, -96.966171, 13.727663, 100.772420
1759228124.998050, -5.188534, 9.229498, -1.667412, -0.779449, -0.332875, 0.160406, -48.182755, -3.218979, -96.164658, 13.727663, 100.772420
1759228125.018038, -6.416760, 11.150246, -0.985813, -0.660921, -0.524229, 0.210048, -48.050339, -3.765289, -95.617798, 13.727663, 100.772420
1759228125.038123, -7.580491, 12.429049, 0.034267, -0.414732, -0.294070, 0.015454, -47.657623, -4.283188, -96.381668, 13.727663, 100.772420
1759228125.058054, -8.201936, 14.044686, -0.050877, -0.036095, 0.260880, -0.414981, -48.086563, -3.910660, -95.716064, 13.727663, 100.772420
1759228125.078056, -6.176741, 14.716260, -0.523732, 0.242277, 0.978896, -0.426780, -48.828613, -3.869034, -95.673874, 13.727663, 100.772420
1759228125.098054, -4.368221, 13.795091, -1.270274, 0.194392, 0.985343, -0.470973, -49.156265, -3.997742, -96.093506, 13.727663, 100.772420
1759228125.118044, -3.333776, 12.519280, -2.608183, 0.290294, 0.827748, -0.104789, -49.410507, -4.080872, -96.036499, 13.727663, 100.772420
1759228125.138052, -4.210503, 11.751041, -3.081038, 0.752294, 1.113816, 0.188725, -49.858276, -3.624054, -96.277847, 13.727663, 100.772420
1759228125.157641, -5.773468, 12.103737, -3.425953, 1.214097, 1.707168, 0.128763, -50.990417, -3.201797, -96.352951, 13.727663, 100.772420
1759228125.178051, -7.100903, 11.857433, -6.559065, 1.837116, 2.293745, 0.030003, -51.836136, -2.459564, -97.741684, 13.727663, 100.772420
1759228125.198051, -8.956110, 11.226262, -10.036793, 3.079825, 2.197498, -0.264052, -52.950745, -1.482071, -98.681183, 13.727663, 100.772420
1759228125.218042, -6.346879, 10.067768, -4.899584, 3.986686, 0.808289, -0.282739, -53.503616, 0.122711, -99.869797, 13.727663, 100.772420
1759228125.238070, -4.548385, 10.185532, 6.303933, 2.975548, 0.155288, -0.486845, -53.650116, 0.831223, -101.532867, 13.727663, 100.772420
1759228125.258057, -4.008492, 11.649886, 6.394164, 1.739281, 0.773218, -0.705417, -54.067764, 1.417023, -102.229706, 13.727663, 100.772420
1759228125.278073, -5.527164, 10.910377, -2.813187, 2.657525, 2.339531, -0.809402, -55.403992, 2.005569, -103.656525, 13.727663, 100.772420
1759228125.298053, -6.223278, 10.895413, -1.349432, 2.923329, 3.756563, -1.036642, -56.783386, 2.557724, -105.147903, 13.727663, 100.772420
1759228125.317231, -3.318812, 11.599907, -0.342670, 2.373162, 4.984969, -0.646204, -58.444748, 3.018753, -106.715576, 13.727663, 100.772420
1759228125.338045, -3.040486, 9.745747, -4.281880, 2.635548, 4.884122, -0.344622, -59.617142, 3.364883, -108.518051, 13.727663, 100.772420
1759228125.358064, -3.720140, 8.254160, -5.843498, 3.111461, 2.835843, -0.454174, -60.702209, 4.196304, -110.088501, 13.727663, 100.772420
1759228125.377571, -3.022081, 7.624036, -3.207781, 2.484581, 1.656005, -0.622371, -61.163284, 4.193893, -111.319717, 13.727663, 100.772420
1759228125.397378, -1.183783, 7.003339, -1.739088, 2.319572, 2.306343, -0.440829, -61.724915, 4.246078, -113.087646, 13.727663, 100.772420
1759228125.417658, 0.121955, 4.806809, -1.618031, 2.301315, 2.047531, -0.092010, -62.106003, 4.791580, -114.527100, 13.727663, 100.772420
1759228125.438051, -0.237475, 3.463662, -1.876456, 1.949047, 1.690563, 0.007916, -62.138611, 4.401154, -115.730576, 13.727663, 100.772420
1759228125.458056, -1.118840, 3.382408, -1.710956, 1.434192, 1.613551, 0.011224, -61.956314, 4.589813, -116.930771, 13.727663, 100.772420
1759228125.478051, -1.119888, 3.085677, -1.747917, 0.912712, 1.425034, 0.210373, -62.084824, 4.341141, -117.354218, 13.727663, 100.772420
1759228125.497475, -0.526425, 2.218527, -1.881244, 0.360006, 1.030175, 0.528280, -61.710419, 4.459839, -117.792068, 13.727663, 100.772420
1759228125.518071, 0.138116, 0.719009, -1.333570, -0.087729, 0.683228, 0.434808, -61.356720, 4.495193, -117.784134, 13.727663, 100.772420
1759228125.538043, -0.107141, 0.152780, -2.104354, -0.474541, -0.102593, -0.136047, -61.410019, 4.272659, -117.441757, 13.727663, 100.772420
1759228125.558057, 0.863409, 0.412102, -3.605668, -1.246930, -1.408283, -0.222223, -61.271805, 4.407974, -117.367035, 13.727663, 100.772420
1759228125.578169, 1.329829, 0.332794, -6.060024, -1.939109, -3.152939, -0.014190, -61.411499, 4.215302, -115.562866, 13.727663, 100.772420
1759228125.598065, -0.698508, 0.646734, -9.271396, -1.130645, -3.713311, 0.215400, -61.371613, 4.025146, -114.799744, 13.727663, 100.772420
1759228125.617195, -0.090680, 4.354305, -18.212542, -1.162229, -2.879332, -0.266181, -61.310883, 3.837631, -113.267044, 13.727663, 100.772420
1759228125.638050, -4.544344, 15.968278, -7.439383, -2.016859, -2.473347, 0.184906, -60.931580, 3.190262, -112.493561, 13.727663, 100.772420
1759228125.658056, -12.625074, 20.199281, -7.896526, -0.654151, -2.774556, 0.079838, -60.439575, 3.367813, -111.706467, 13.727663, 100.772420
1759228125.678117, -4.784363, 14.078953, -0.845602, -1.746649, -0.314396, -0.104117, -60.503387, 2.999496, -111.280273, 13.727663, 100.772420
1759228125.698058, -3.133112, 3.135955, -7.182156, -2.008098, -1.083954, -0.146715, -60.491058, 2.843796, -109.728973, 13.727663, 100.772420
1759228125.718042, -3.467552, 0.385018, -1.990928, -1.848162, -0.907589, 0.620758, -59.927750, 2.327454, -108.792557, 13.727663, 100.772420
1759228125.737788, 0.413449, 7.313987, -3.027917, -1.621837, -1.155917, 2.033312, -58.820663, 1.639038, -107.994522, 13.727663, 100.772420
1759228125.758059, -1.816152, 13.359945, -3.308936, -1.937652, -1.453135, 2.276178, -57.387878, 1.536301, -107.274445, 13.727663, 100.772420
1759228125.778054, -4.066252, 13.266571, -1.796549, -1.965407, -1.755698, 1.293882, -55.869400, 0.963593, -105.668671, 13.727663, 100.772420
1759228125.798065, -4.689493, 11.543344, -1.910573, -1.662739, -1.985260, 0.054431, -55.508759, 0.844360, -104.817001, 13.727663, 100.772420
1759228125.818052, -5.235072, 10.508450, -1.528099, -1.540758, -1.686726, -0.626620, -55.270615, 0.440674, -104.043030, 13.727663, 100.772420
1759228125.838050, -4.708796, 9.007884, -1.669656, -1.369425, -1.079768, -0.456752, -54.900238, 0.062805, -103.914505, 13.727663, 100.772420
1759228125.858056, -4.103961, 8.009652, -1.848623, -1.314370, -0.697179, 0.034265, -54.798264, -0.182098, -102.738586, 13.727663, 100.772420
1759228125.877609, -4.129399, 7.605032, -1.419762, -1.396444, -0.513322, 0.462381, -53.777924, -0.587540, -102.863327, 13.727663, 100.772420
1759228125.897354, -3.597138, 7.708731, -1.536778, -1.413942, -0.340630, 0.536424, -53.966537, -1.053406, -101.616241, 13.727663, 100.772420
1759228125.917326, -3.216909, 8.205827, -2.236783, -1.308644, -0.119004, 0.251439, -53.912460, -1.800186, -101.922653, 13.727663, 100.772420
1759228125.938048, -2.726696, 8.396316, -2.287360, -1.183411, -0.007274, -0.081658, -53.691162, -2.021957, -101.207932, 13.727663, 100.772420
1759228125.958055, -2.421585, 7.559841, -2.065897, -1.154336, -0.096108, -0.105684, -53.724304, -2.387543, -100.486389, 13.727663, 100.772420
1759228125.978057, -2.817676, 6.938396, -1.742979, -1.235547, -0.239410, 0.101392, -53.941742, -2.371780, -100.313095, 13.727663, 100.772420
1759228125.998050, -3.441066, 7.462128, -1.673996, -1.279226, -0.219148, 0.347274, -53.231750, -3.171967, -99.101379, 13.727663, 100.772420
1759228126.018044, -4.189554, 8.148965, -1.792958, -1.340984, -0.139833, 0.298654, -52.921585, -3.854477, -98.642639, 13.727663, 100.772420
1759228126.038078, -4.158130, 8.526351, -2.217180, -1.375984, -0.424878, 0.133445, -53.370850, -4.321686, -98.138626, 13.727663, 100.772420
1759228126.058058, -3.801693, 8.851962, -2.085050, -1.282494, -0.649064, 0.025366, -52.916306, -4.907730, -97.656906, 13.727663, 100.772420
1759228126.078051, -4.278438, 9.758167, -2.050334, -1.123217, -0.779822, 0.031352, -52.834991, -5.278000, -97.083008, 13.727663, 100.772420
1759228126.098047, -4.468777, 8.894758, -2.180519, -1.004668, -0.964284, -0.020458, -52.490341, -5.372452, -96.836258, 13.727663, 100.772420
1759228126.118085, -4.191798, 7.908497, -2.635268, -0.908860, -0.890220, -0.041551, -52.049957, -5.988358, -96.723770, 13.727663, 100.772420
1759228126.137405, -4.349067, 7.921815, -1.741782, -0.909971, -0.651167, 0.009908, -51.797394, -6.431122, -96.987259, 13.727663, 100.772420
1759228126.158063, -4.969166, 8.265981, -1.179294, -0.914852, -0.307597, 0.132169, -51.379532, -6.549133, -96.358093, 13.727663, 100.772420
1759228126.178181, -5.076007, 8.006959, -1.071555, -1.015369, -0.243429, 0.131243, -51.215698, -7.254471, -96.669098, 13.727663, 100.772420
1759228126.198072, -4.900482, 9.374497, -1.055693, -1.183232, -0.227119, 0.326779, -51.303848, -7.848190, -96.134995, 13.727663, 100.772420
1759228126.218042, -6.792799, 10.357167, -0.940173, -1.067390, -0.296185, 0.325712, -50.598892, -8.398453, -96.288269, 13.727663, 100.772420
1759228126.237832, -7.180211, 11.791294, -0.657508, -0.629175, -0.069363, 0.017625, -51.124786, -8.667038, -95.774780, 13.727663, 100.772420
1759228126.258055, -7.187693, 15.204976, 0.098611, -0.056478, 0.499412, -0.195585, -51.103348, -8.804581, -95.610489, 13.727663, 100.772420
1759228126.278070, -6.256348, 15.847969, 0.262464, 0.475755, 1.073231, -0.340551, -51.988831, -8.809158, -96.430206, 13.727663, 100.772420
1759228126.298054, -3.642927, 14.330793, -2.213290, 0.628000, 1.247600, -0.593053, -52.222321, -8.664215, -96.457138, 13.727663, 100.772420
1759228126.318088, -0.029329, 13.651289, -4.480000, 0.837196, 1.177426, -0.213383, -52.671143, -8.165421, -96.485718, 13.727663, 100.772420
1759228126.338150, -0.132280, 12.683283, -5.050419, 1.476867, 1.367704, 0.669065, -53.165558, -7.781937, -96.325958, 13.727663, 100.772420
1759228126.358056, -4.648642, 11.996896, -4.402937, 1.918043, 1.427303, 0.847580, -53.623947, -6.849991, -96.916870, 13.727663, 100.772420
1759228126.378048, -8.485799, 12.231677, -7.472453, 2.638713, 1.734212, 0.282873, -54.307678, -6.408081, -98.301773, 13.727663, 100.772420
1759228126.398058, -8.493430, 10.953622, -8.031798, 3.856985, 1.533225, -0.062061, -54.988251, -4.795807, -99.144714, 13.727663, 100.772420
1759228126.417571, -7.479037, 10.497826, -0.854131, 4.087142, -0.658862, -0.161973, -55.082733, -3.818192, -100.669495, 13.727663, 100.772420
1759228126.437195, -4.655375, 10.970531, 8.421754, 2.623921, -2.405775, -0.587572, -53.850006, -2.474274, -101.706406, 13.727663, 100.772420
1759228126.458059, -3.114557, 11.669339, 8.095245, 0.889102, -0.728081, -0.892979, -54.493607, -1.976456, -102.862167, 13.727663, 100.772420
1759228126.478044, -4.739023, 10.729315, -2.738518, 1.984649, 3.310581, -1.123446, -56.361176, -1.398056, -103.344391, 13.727663, 100.772420
1759228126.498052, -4.793641, 9.790788, -1.089811, 2.721049, 5.502319, -1.113914, -58.219681, -1.082748, -104.895950, 13.727663, 100.772420
1759228126.518057, -3.919907, 9.809343, -3.766977, 2.560135, 4.730840, -0.911308, -59.658630, -0.245453, -106.323395, 13.727663, 100.772420
1759228126.538052, -2.644994, 9.418640, -5.216367, 2.031560, 2.495726, -0.855077, -60.554672, -0.179031, -107.650955, 13.727663, 100.772420
1759228126.558054, -1.324891, 8.121581, -2.638710, 1.982182, 1.169364, -0.820732, -61.147232, 0.199036, -108.745834, 13.727663, 100.772420
1759228126.578053, -0.435595, 7.284209, -0.472556, 2.218913, 1.697684, -0.763778, -61.699432, 0.283127, -110.002213, 13.727663, 100.772420
1759228126.598055, -0.312144, 6.646304, -2.230049, 2.587771, 2.746625, -0.623387, -62.669220, 0.526108, -111.116409, 13.727663, 100.772420
1759228126.617827, -0.917877, 5.968146, -4.179827, 2.387890, 2.018894, -0.477364, -63.019409, 1.010529, -112.903885, 13.727663, 100.772420
1759228126.638049, -1.386243, 5.713164, -3.647566, 1.938099, 1.416110, -0.431610, -63.384094, 0.689514, -114.383667, 13.727663, 100.772420
1759228126.658055, -0.992696, 5.388001, -2.210746, 1.703472, 1.554708, -0.360266, -63.745636, 1.047165, -115.128082, 13.727663, 100.772420
1759228126.678067, -0.708384, 4.593126, -1.917606, 1.551414, 1.576995, -0.119784, -63.715256, 1.009842, -116.247849, 13.727663, 100.772420
1759228126.698074, -1.304241, 3.799448, -2.024746, 1.169790, 1.162224, -0.062416, -63.971893, 1.021667, -116.951675, 13.727663, 100.772420
1759228126.718054, -1.900996, 2.279879, -2.299930, 0.617092, 0.721337, -0.128112, -63.858093, 0.961716, -117.183487, 13.727663, 100.772420
1759228126.738045, -0.889745, -0.551415, -2.461987, -0.020411, 0.221573, 0.004564, -63.546585, 0.912140, -117.456818, 13.727663, 100.772420
1759228126.757599, 0.529867, -1.442656, -3.777901, -0.536587, 0.065405, 0.102500, -63.785187, 0.793686, -117.072342, 13.727663, 100.772420
1759228126.778051, 1.029806, 0.411653, -4.247014, -1.089938, -0.122922, -0.001216, -63.679382, 0.756805, -116.238693, 13.727663, 100.772420
1759228126.798051, 0.208296, 1.958906, -4.337695, -1.751040, -1.023830, -0.102821, -63.867874, 0.442719, -115.351593, 13.727663, 100.772420
1759228126.818040, 0.954089, 1.607108, -9.880421, -1.762434, -2.729034, -0.053781, -63.942200, 0.660858, -114.524155, 13.727663, 100.772420
1759228126.838047, 1.267281, 6.984634, -22.293758, -0.222988, -3.337415, 0.115497, -63.344452, 0.320618, -113.113739, 13.727663, 100.772420
1759228126.857149, -1.767819, 14.560637, -10.282348, -2.365100, -1.454034, 0.135213, -63.130005, 0.137650, -111.909103, 13.727663, 100.772420
1759228126.878048, -14.988002, 18.997691, -6.220734, -0.467468, -4.544833, 0.325070, -62.167877, 0.010391, -111.252319, 13.727663, 100.772420
1759228126.898047, -9.831789, 17.130214, -0.811784, -0.897505, -1.600665, 0.131185, -61.762527, -0.184128, -110.628052, 13.727663, 100.772420
1759228126.918065, -2.724302, 7.275530, -5.753716, -1.886209, -0.891188, -0.092984, -62.083023, -0.892517, -109.933304, 13.727663, 100.772420
1759228126.938139, -4.335450, 0.169988, -6.082769, -1.890313, -1.070125, 0.143439, -61.597916, -1.220001, -108.613876, 13.727663, 100.772420
1759228126.957437, -1.290774, 3.615693, -1.469741, -1.342055, -0.818091, 1.603628, -60.923813, -1.386459, -108.783630, 13.727663, 100.772420
1759228126.978096, 0.314239, 10.565462, -5.337873, -1.384906, -1.223105, 2.751799, -59.698669, -1.454971, -107.914185, 13.727663, 100.772420
1759228126.998044, -2.147150, 13.460202, -1.879149, -1.942700, -1.917318, 2.240036, -58.198349, -1.757996, -106.481262, 13.727663, 100.772420
1759228127.018143, -4.687248, 12.352285, -2.536208, -1.583388, -2.312851, 0.664623, -57.477570, -1.981430, -106.001617, 13.727663, 100.772420
1759228127.038118, -5.569811, 10.655843, -2.338237, -1.362628, -2.271336, -0.616126, -56.662949, -2.635284, -105.580414, 13.727663, 100.772420
1759228127.057886, -5.446360, 8.789862, -1.817498, -1.186168, -1.879190, -0.620498, -56.453842, -2.598373, -104.052872, 13.727663, 100.772420
1759228127.078088, -4.663456, 7.568820, -2.997989, -1.042223, -1.338612, 0.018587, -56.240143, -3.165192, -104.252121, 13.727663, 100.772420
1759228127.098107, -4.142119, 7.145944, -2.186355, -1.196166, -1.005148, 0.608773, -55.484268, -3.452347, -103.354950, 13.727663, 100.772420
1759228127.118056, -4.495263, 7.071724, -2.547879, -1.283621, -0.812816, 0.839576, -55.344757, -3.687241, -102.884354, 13.727663, 100.772420
1759228127.138042, -3.951181, 7.906552, -2.485181, -1.280310, -0.607341, 0.655571, -54.620468, -4.288834, -102.040344, 13.727663, 100.772420
1759228127.158152, -3.552995, 8.465448, -2.149395, -1.234717, -0.417016, 0.226303, -54.495560, -4.448151, -102.270584, 13.727663, 100.772420
1759228127.178193, -2.922722, 8.279898, -2.102558, -1.161326, -0.288177, -0.020273, -53.851654, -4.622375, -102.043854, 13.727663, 100.772420
1759228127.198133, -2.709039, 7.942016, -2.097470, -1.139606, -0.265251, 0.001499, -53.816895, -5.291489, -101.391754, 13.727663, 100.772420
1759228127.218075, -3.321207, 7.703045, -1.657985, -1.111853, -0.124001, 0.186307, -54.138199, -5.577698, -101.336456, 13.727663, 100.772420
1759228127.238071, -4.003853, 7.258920, -2.497901, -1.087622, -0.192783, 0.332488, -53.959885, -5.898758, -100.988266, 13.727663, 100.772420
1759228127.258103, -4.498106, 7.534553, -2.541295, -1.015104, -0.424961, 0.223654, -53.588089, -6.528961, -100.509460, 13.727663, 100.772420
1759228127.277518, -4.693832, 8.423400, -2.251447, -0.934577, -0.528119, 0.007808, -53.227234, -6.923508, -100.325897, 13.727663, 100.772420
1759228127.298168, -4.138378, 8.797344, -2.459743, -0.816705, -0.669005, -0.039505, -53.308289, -7.150772, -100.116013, 13.727663, 100.772420
1759228127.317315, -4.318092, 8.866028, -2.166004, -0.698070, -0.866966, -0.028766, -52.873962, -7.587769, -99.753006, 13.727663, 100.772420
1759228127.338048, -4.801721, 8.753949, -1.363348, -0.695775, -0.839330, -0.069975, -52.772537, -7.872803, -99.890915, 13.727663, 100.772420
1759228127.358051, -5.087230, 7.982119, -1.077540, -0.825415, -0.612637, -0.126317, -52.241486, -7.821945, -99.741287, 13.727663, 100.772420
1759228127.378061, -4.149750, 7.589320, -1.406294, -0.895963, -0.049427, 0.103955, -52.166382, -8.490173, -99.098572, 13.727663, 100.772420
1759228127.398173, -4.154688, 7.879168, -1.506851, -0.759118, 0.053290, 0.183451, -52.136826, -8.631271, -98.728607, 13.727663, 100.772420
1759228127.418110, -4.209605, 8.014889, -0.909647, -0.779384, -0.136837, 0.216863, -52.423035, -8.946045, -98.456345, 13.727663, 100.772420
1759228127.438111, -3.869479, 8.071153, -0.477045, -0.990476, -0.454276, 0.211232, -51.758636, -9.583191, -98.903000, 13.727663, 100.772420
1759228127.458083, -4.491822, 8.530092, -0.990152, -1.093125, -0.592275, 0.252006, -52.023880, -10.120041, -98.689041, 13.727663, 100.772420
1759228127.478063, -5.168932, 9.354296, -1.272219, -1.010177, -0.362822, 0.425039, -51.820084, -10.889633, -98.526062, 13.727663, 100.772420
1759228127.498092, -6.133346, 11.018415, -0.806846, -0.708829, -0.021144, 0.453533, -51.369995, -11.283386, -98.080109, 13.727663, 100.772420
1759228127.518179, -7.352893, 12.209531, 0.115670, -0.291244, 0.328453, 0.103233, -51.293335, -11.437500, -97.685822, 13.727663, 100.772420
1759228127.538114, -7.739107, 13.421595, 1.346589, 0.055138, 0.614061, -0.280996, -51.755051, -11.466064, -98.408005, 13.727663, 100.772420
1759228127.558061, -6.556970, 13.823372, 2.677316, -0.069053, 0.444611, -0.566542, -52.156052, -10.926697, -98.124191, 13.727663, 100.772420
1759228127.578164, -3.989189, 13.805565, 0.913837, -0.343518, 0.512164, -0.553234, -52.335022, -11.305450, -98.358871, 13.727663, 100.772420
1759228127.598124, -1.342848, 13.242479, -1.549946, -0.204209, 1.168490, 0.026163, -52.798874, -11.391098, -98.333145, 13.727663, 100.772420
1759228127.618066, -0.195427, 12.688670, -3.408296, 0.360668, 1.919834, 0.663558, -53.330368, -11.873108, -97.522812, 13.727663, 100.772420
1759228127.638237, -3.995174, 11.586440, -5.831677, 1.044957, 2.426336, 0.675840, -53.853119, -11.814194, -98.311203, 13.727663, 100.772420
1759228127.658114, -6.878242, 11.869404, -8.889521, 2.335475, 2.095858, 0.360882, -54.911774, -11.353577, -98.224899, 13.727663, 100.772420
1759228127.677241, -8.646510, 11.452065, -11.539453, 3.256384, 1.686053, 0.156385, -55.344360, -10.579575, -98.784943, 13.727663, 100.772420
1759228127.698080, -6.365135, 10.016292, -5.656152, 4.584473, 0.132922, 0.198298, -55.222763, -9.126068, -100.273331, 13.727663, 100.772420
1759228127.718100, -4.103213, 10.368988, 4.906916, 4.101501, -1.978305, 0.026918, -54.972504, -8.169281, -101.281616, 13.727663, 100.772420
1759228127.738091, -3.119645, 12.787880, 10.623222, 2.020628, -1.154100, -0.554986, -54.501373, -7.603287, -101.905365, 13.727663, 100.772420
1759228127.758096, -3.958064, 12.432640, 2.029385, 1.572761, 1.171570, -1.018739, -55.012894, -7.165253, -101.850906, 13.727663, 100.772420
1759228127.777582, -5.170129, 11.197083, -1.659182, 2.432408, 3.992495, -1.230626, -56.276413, -6.571609, -102.548203, 13.727663, 100.772420
1759228127.797341, -6.592584, 10.615292, -5.527314, 3.028766, 5.189338, -1.225891, -58.465668, -6.057175, -103.642593, 13.727663, 100.772420
1759228127.818040, -5.623680, 10.178499, -7.427562, 2.988380, 3.904521, -0.883098, -60.235321, -4.984116, -105.091995, 13.727663, 100.772420
1759228127.838046, -4.275595, 9.367314, -4.146009, 2.326123, 1.723816, -0.551308, -60.629013, -4.615814, -105.852982, 13.727663, 100.772420
1759228127.858057, -2.652327, 8.639028, -1.285237, 2.322115, 1.635492, -0.675934, -61.510406, -3.953903, -106.746674, 13.727663, 100.772420
1759228127.877879, -1.760636, 7.597550, -4.319289, 3.195453, 2.950516, -0.804640, -62.177628, -3.072205, -108.159256, 13.727663, 100.772420
1759228127.898118, -1.489642, 7.761852, -5.869236, 3.357739, 2.987609, -0.697687, -63.083176, -2.768585, -109.630508, 13.727663, 100.772420
1759228127.918126, -2.157026, 8.332121, -5.825841, 3.052187, 2.601917, -0.552233, -63.485886, -2.218277, -110.965561, 13.727663, 100.772420
1759228127.938114, -2.363077, 7.701548, -4.165312, 2.945145, 2.274985, -0.508800, -64.609085, -1.886337, -111.989151, 13.727663, 100.772420
1759228127.958053, -0.804003, 5.683535, -3.586813, 2.881671, 2.355092, -0.386243, -64.972076, -1.519852, -113.279724, 13.727663, 100.772420
1759228127.978048, -0.047585, 3.578583, -3.792116, 2.703596, 2.249453, -0.178930, -65.480850, -0.992294, -115.253464, 13.727663, 100.772420
1759228127.997179, -1.410783, 2.015768, -3.055750, 2.314496, 2.034118, -0.038832, -65.685883, -0.720657, -115.869965, 13.727663, 100.772420
1759228128.017281, -2.405125, 1.308581, -2.931850, 1.922746, 2.019810, 0.034548, -65.711624, -0.551224, -117.707031, 13.727663, 100.772420
1759228128.038047, -1.614440, 0.393248, -3.027019, 1.312867, 1.873848, 0.099336, -65.563599, -0.463547, -117.836624, 13.727663, 100.772420
1759228128.058058, -0.462679, -0.056413, -2.603245, 0.569619, 1.973681, 0.197867, -65.685623, -0.117645, -118.310196, 13.727663, 100.772420
1759228128.078046, 0.279373, -0.036512, -2.972102, 0.167247, 1.614700, 0.080687, -65.761948, -0.526886, -118.338089, 13.727663, 100.772420
1759228128.097519, 0.800412, -0.290147, -2.558504, -0.217605, 0.862765, -0.228723, -65.867111, -0.287445, -118.665451, 13.727663, 100.772420
1759228128.118045, 1.058536, -1.754950, -2.439093, -0.792500, 0.055851, -0.403505, -66.254669, -0.528717, -117.933167, 13.727663, 100.772420
1759228128.138048, 1.358560, -1.976862, -3.494188, -1.172068, -0.840520, -0.606021, -66.301651, -0.671524, -118.131897, 13.727663, 100.772420
1759228128.158057, 2.514959, 0.239869, -5.603928, -1.116795, -1.648941, -0.775439, -66.369324, -0.981812, -115.963806, 13.727663, 100.772420
1759228128.178049, -0.127491, 2.654721, -8.731803, -0.931551, -1.973453, -0.877046, -66.460297, -1.466019, -115.085648, 13.727663, 100.772420
1759228128.197934, -2.208202, 3.025822, -10.992827, -1.144876, -1.873792, -1.009790, -67.157074, -1.992462, -114.304596, 13.727663, 100.772420
1759228128.218046, -1.762731, 3.024026, -11.670087, -1.520150, -0.845256, -0.837008, -67.551758, -2.322220, -113.374313, 13.727663, 100.772420
1759228128.238048, -1.364695, 5.774515, -12.262053, -1.076069, 0.420797, -0.760152, -67.581863, -3.011551, -112.611237, 13.727663, 100.772420
1759228128.258058, -0.987907, 8.301595, -11.811794, -0.891329, 0.364674, -0.752726, -68.046371, -3.105377, -112.054108, 13.727663, 100.772420
1759228128.278072, 1.341052, 6.992864, -9.544186, -1.374385, -0.058565, -0.465760, -68.194458, -3.355331, -111.549301, 13.727663, 100.772420
1759228128.298048, 3.480720, 2.621950, -5.709423, -1.678727, -0.804148, -0.420980, -67.836868, -3.498474, -110.066635, 13.727663, 100.772420
1759228128.318136, 7.105691, 0.404470, -12.778453, -1.277048, -1.303654, -0.400955, -68.104538, -4.297333, -109.398880, 13.727663, 100.772420
1759228128.338171, 0.524929, 16.644041, -34.188601, 0.728035, -0.197204, -0.631688, -68.207108, -4.250107, -109.149490, 13.727663, 100.772420
1759228128.358048, -9.756970, 26.779594, -9.854085, -1.090174, -1.416622, 1.807540, -67.559158, -3.896912, -108.058762, 13.727663, 100.772420
1759228128.378073, -5.671116, 7.753622, 1.430087, -1.491066, 0.216724, 1.554264, -66.696091, -3.615356, -107.607361, 13.727663, 100.772420
1759228128.398116, 1.039383, -4.070741, -0.728286, -1.547502, -1.516455, 0.690574, -66.257843, -3.576233, -106.586960, 13.727663, 100.772420
1759228128.418058, 2.989161, -8.244733, -9.269002, -0.255593, -2.309661, 0.401412, -65.451584, -3.745224, -105.440216, 13.727663, 100.772420
1759228128.438078, -1.194108, -5.385607, -2.518850, -1.212461, -0.566341, 0.109978, -65.639694, -3.997971, -104.701111, 13.727663, 100.772420
1759228128.458085, -8.466945, 4.491822, -2.912696, -1.297619, -2.457899, -0.545698, -64.964584, -4.172195, -103.250580, 13.727663, 100.772420
1759228128.478200, -5.213823, 19.191771, -8.155848, -0.939214, -2.229105, -0.236418, -64.448410, -4.934494, -102.918198, 13.727663, 100.772420
1759228128.497362, -2.263119, 16.643742, -4.845715, -0.985251, -1.243131, -0.125868, -63.773270, -5.064941, -102.487122, 13.727663, 100.772420
1759228128.518099, -2.927510, 5.739650, -2.622399, -0.953891, -1.949464, -0.422086, -63.392227, -5.532898, -100.953796, 13.727663, 100.772420
1759228128.538215, -4.258686, 2.398691, -3.604022, -0.898188, -2.131244, -0.700795, -63.102386, -5.542969, -100.867905, 13.727663, 100.772420
1759228128.558151, -4.660164, 4.072836, -3.134609, -1.069797, -1.421444, -0.440565, -63.069000, -6.075470, -99.807465, 13.727663, 100.772420
1759228128.578236, -4.378995, 7.225102, -3.901202, -1.221180, -0.805714, 0.273997, -62.431320, -6.609741, -99.214798, 13.727663, 100.772420
1759228128.597577, -3.454683, 10.297910, -3.370886, -1.466019, -0.627647, 0.994927, -61.716980, -7.000214, -98.669266, 13.727663, 100.772420
1759228128.618054, -3.128174, 10.372579, -3.544466, -1.240325, -0.436412, 1.172899, -61.411362, -7.527328, -97.871109, 13.727663, 100.772420
1759228128.638195, -2.834884, 9.408015, -4.223970, -1.024672, -0.430017, 0.847118, -60.516541, -7.697205, -97.580032, 13.727663, 100.772420
1759228128.658086, -1.843685, 8.804527, -3.795707, -1.125584, -1.034888, 0.277467, -60.024918, -7.878296, -97.291794, 13.727663, 100.772420
1759228128.678230, -1.566855, 8.249671, -3.487155, -1.119129, -1.677913, 0.049195, -59.558441, -8.807251, -96.400497, 13.727663, 100.772420
1759228128.698211, -2.326565, 7.926753, -3.605817, -1.036303, -1.814141, 0.168679, -58.929398, -9.102402, -95.887283, 13.727663, 100.772420
1759228128.718072, -2.227505, 6.849362, -2.850447, -0.999037, -1.494058, 0.523780, -58.008133, -9.672012, -95.529221, 13.727663, 100.772420
1759228128.738238, -2.503886, 6.901735, -2.660407, -0.991866, -1.091488, 0.770630, -57.043121, -10.348129, -94.791306, 13.727663, 100.772420
1759228128.758122, -3.599832, 7.965808, -2.569427, -0.995489, -0.935978, 0.688048, -56.261383, -10.752457, -95.067551, 13.727663, 100.772420
1759228128.778235, -4.547636, 9.166949, -2.523788, -0.914863, -1.035125, 0.410518, -55.834152, -11.254654, -94.451218, 13.727663, 100.772420
1759228128.798150, -4.908413, 9.850943, -2.632125, -0.806864, -0.977369, 0.095449, -55.566132, -11.273819, -94.203308, 13.727663, 100.772420
1759228128.817197, -5.040992, 9.819220, -2.473659, -0.704314, -0.664447, -0.168020, -54.655869, -11.804581, -93.959564, 13.727663, 100.772420
1759228128.838234, -5.071218, 9.230096, -2.480543, -0.669466, -0.388348, -0.194342, -54.321411, -11.873138, -93.793930, 13.727663, 100.772420
1759228128.858154, -4.324676, 8.367585, -1.725471, -0.661394, -0.292246, -0.046042, -54.358215, -12.511307, -94.099319, 13.727663, 100.772420
1759228128.878234, -4.229806, 8.160936, -1.434127, -0.667220, -0.236133, 0.060699, -54.434845, -12.847473, -93.186142, 13.727663, 100.772420
1759228128.898084, -4.499902, 8.327931, -1.314267, -0.672887, -0.182371, 0.013420, -53.951843, -13.140564, -92.881226, 13.727663, 100.772420
1759228128.918136, -4.574422, 8.486098, -1.635240, -0.608708, -0.235446, -0.098289, -53.792313, -13.585129, -93.432236, 13.727663, 100.772420
1759228128.938107, -4.651036, 8.461857, -2.388665, -0.482808, -0.322338, -0.149523, -53.814301, -13.623703, -93.135513, 13.727663, 100.772420
1759228128.958079, -4.711789, 8.472481, -2.250998, -0.439348, -0.344383, -0.129888, -53.697144, -13.829224, -93.236237, 13.727663, 100.772420
1759228128.978238, -4.730643, 8.576629, -1.861043, -0.495862, -0.202638, -0.096977, -53.515121, -14.102997, -93.078781, 13.727663, 100.772420
1759228128.998123, -4.480449, 8.677784, -2.043750, -0.518284, -0.074116, -0.063642, -53.444016, -14.470886, -93.086212, 13.727663, 100.772420
1759228129.018058, -3.886687, 8.708909, -1.939004, -0.470919, 0.053751, -0.034488, -53.457123, -14.564682, -92.620285, 13.727663, 100.772420
1759228129.038237, -3.540426, 8.949376, -1.461510, -0.447268, 0.087105, -0.065291, -53.578934, -14.709167, -92.939499, 13.727663, 100.772420
1759228129.058113, -3.170372, 8.853159, -0.905308, -0.618275, -0.190624, -0.059300, -53.523560, -15.084335, -92.729813, 13.727663, 100.772420
1759228129.078236, -3.040636, 8.867674, -0.929250, -0.784548, -0.367468, 0.037218, -53.140549, -15.579559, -92.110718, 13.727663, 100.772420
1759228129.098149, -3.654001, 9.165303, -1.268328, -0.724982, -0.109137, 0.107986, -53.280151, -15.626251, -92.515533, 13.727663, 100.772420
1759228129.118096, -4.152294, 9.008034, -1.542315, -0.554694, 0.152723, 0.199340, -53.020599, -16.102783, -92.007828, 13.727663, 100.772420
1759228129.138199, -4.487033, 8.643218, -1.285986, -0.552134, 0.091154, 0.174664, -52.830322, -16.335892, -92.389160, 13.727663, 100.772420
1759228129.158081, -4.967071, 8.774899, -0.693870, -0.589939, 0.042678, 0.156627, -52.958878, -17.048599, -91.747559, 13.727663, 100.772420
1759228129.177722, -5.224298, 8.675839, -0.491260, -0.580547, 0.082698, 0.115110, -53.088104, -17.081253, -91.700729, 13.727663, 100.772420
1759228129.198114, -5.124489, 8.473678, -0.131083, -0.571681, 0.244118, -0.055694, -52.781525, -17.788818, -91.381454, 13.727663, 100.772420
1759228129.218057, -4.756830, 8.051551, 0.112976, -0.603673, 0.204751, -0.098290, -52.958344, -18.049713, -91.419937, 13.727663, 100.772420
1759228129.238054, -4.492570, 8.240842, 0.195726, -0.706126, 0.095495, -0.122445, -53.300629, -18.325394, -91.410919, 13.727663, 100.772420
1759228129.258057, -4.113987, 8.736292, 0.041749, -0.651951, 0.167287, -0.114465, -53.380981, -18.655014, -90.816589, 13.727663, 100.772420
1759228129.278048, -3.606566, 8.786421, 0.127192, -0.519681, 0.357461, -0.049859, -53.279572, -19.121765, -90.495453, 13.727663, 100.772420
1759228129.298097, -3.472341, 8.442105, 0.362722, -0.450776, 0.325233, 0.006411, -53.824921, -18.978516, -90.616791, 13.727663, 100.772420
1759228129.317341, -3.648913, 8.421604, 0.765995, -0.438248, 0.182749, 0.082383, -53.813522, -19.396851, -90.940063, 13.727663, 100.772420
1759228129.338238, -3.922899, 8.744073, 0.973842, -0.521359, 0.131840, 0.080441, -53.667679, -19.658234, -91.049759, 13.727663, 100.772420
1759228129.358111, -3.869030, 8.908375, 0.490961, -0.593750, 0.016404, 0.063250, -53.790573, -19.937057, -90.487656, 13.727663, 100.772420
1759228129.378039, -3.682282, 9.271995, -0.035165, -0.489479, -0.146860, 0.079755, -53.476685, -20.424850, -90.746490, 13.727663, 100.772420
1759228129.398164, -3.631555, 9.193136, 0.142904, -0.319891, -0.022390, 0.089161, -53.399246, -20.148590, -90.621048, 13.727663, 100.772420
1759228129.417775, -3.506907, 8.916456, 0.333692, -0.216563, 0.089017, 0.130566, -53.775681, -20.319336, -90.494568, 13.727663, 100.772420
1759228129.438113, -3.609259, 8.745719, 0.478990, -0.176295, 0.085968, 0.165828, -53.119446, -20.239807, -90.468048, 13.727663, 100.772420
1759228129.458139, -4.159327, 8.887725, 0.751031, -0.130282, -0.005834, 0.134732, -54.031174, -20.504196, -90.656296, 13.727663, 100.772420
1759228129.478236, -4.267515, 9.015965, 0.628478, -0.179924, -0.044236, 0.062357, -53.709930, -20.888779, -90.783676, 13.727663, 100.772420
1759228129.498090, -3.710564, 9.237728, -0.105046, -0.122355, -0.135607, 0.022561, -53.146729, -20.935211, -90.451782, 13.727663, 100.772420
1759228129.518173, -3.226486, 9.397092, -0.314089, 0.101877, -0.251972, 0.039205, -53.003189, -21.010956, -90.368942, 13.727663, 100.772420
1759228129.538083, -3.512593, 9.296835, 0.264859, 0.191149, -0.195992, 0.065394, -53.284134, -21.011322, -90.288788, 13.727663, 100.772420
1759228129.558087, -3.187580, 9.075072, 0.416591, 0.169434, -0.103072, 0.068013, -53.164078, -20.617020, -90.332443, 13.727663, 100.772420
1759228129.578242, -3.405901, 8.956409, 0.704643, 0.155173, -0.067372, 0.106643, -52.465286, -20.817184, -90.380325, 13.727663, 100.772420
1759228129.598131, -3.911826, 8.741679, 1.056741, 0.117663, -0.035764, 0.103593, -52.938797, -20.505005, -89.601654, 13.727663, 100.772420
1759228129.618170, -4.085406, 8.716091, 1.012598, 0.021973, -0.077653, 0.091438, -52.682922, -20.629440, -89.896286, 13.727663, 100.772420
1759228129.638100, -3.815609, 8.987234, 0.657957, -0.082906, -0.078399, 0.104413, -52.910538, -20.558762, -90.343338, 13.727663, 100.772420
1759228129.658117, -5.065532, 8.979453, 0.685789, -0.178469, -0.062880, 0.048661, -52.884033, -20.555664, -90.339706, 13.727663, 100.772420
1759228129.678230, -1.868974, 9.154230, 0.174777, 0.066018, -0.474427, -0.012293, -52.693375, -20.618851, -90.044250, 13.727663, 100.772420
1759228129.698146, -2.691831, 9.464728, -0.122404, 0.102582, -0.034833, 0.105321, -52.630081, -20.295837, -89.754593, 13.727663, 100.772420
1759228129.718177, -3.169773, 9.292794, 0.147692, 0.157261, -0.114149, 0.162710, -52.469208, -20.167496, -90.266846, 13.727663, 100.772420
1759228129.738109, -3.648314, 8.970475, 0.493056, 0.161449, -0.212423, 0.166088, -52.380524, -20.441971, -90.169662, 13.727663, 100.772420
1759228129.758146, -3.692158, 9.074024, 0.109535, 0.234532, -0.236875, 0.214115, -52.339279, -20.576859, -90.318634, 13.727663, 100.772420
1759228129.778245, -3.752462, 9.714324, -0.603488, 0.245226, -0.028268, 0.242977, -52.471313, -20.233566, -89.778168, 13.727663, 100.772420
1759228129.798077, -3.812168, 9.320029, -0.890344, 0.224128, 0.233075, 0.304450, -52.524521, -19.990540, -89.981247, 13.727663, 100.772420
1759228129.818072, -4.381539, 7.988852, -0.316484, 0.251033, 0.289990, 0.366332, -52.797165, -19.968216, -89.794281, 13.727663, 100.772420
1759228129.838059, -5.751770, 7.410503, 0.307356, 0.219623, 0.303927, 0.314856, -52.496552, -20.231506, -90.292542, 13.727663, 100.772420
1759228129.858167, -6.574029, 7.726538, 0.519093, 0.015112, 0.414231, 0.157342, -52.591049, -20.010300, -89.957245, 13.727663, 100.772420
1759228129.878206, -5.946149, 7.988104, 0.139911, -0.210579, 0.636857, 0.094898, -53.300537, -20.043488, -89.987564, 13.727663, 100.772420
1759228129.898098, -4.776432, 8.386888, -0.746093, -0.307560, 0.919040, 0.088619, -53.680344, -20.096863, -89.756622, 13.727663, 100.772420
1759228129.918179, -4.258985, 9.021352, -1.765125, -0.281920, 1.245298, 0.138790, -54.048431, -20.119644, -89.777115, 13.727663, 100.772420
1759228129.938062, -4.638766, 9.547478, -2.262820, -0.139194, 1.447167, 0.182636, -54.554123, -20.445221, -89.759979, 13.727663, 100.772420
1759228129.958104, -5.727529, 9.389311, -2.820818, 0.047918, 1.649233, 0.154580, -55.560974, -20.564713, -89.460251, 13.727663, 100.772420
1759228129.978091, -6.233753, 9.169044, -2.955792, 0.317445, 1.729706, 0.043024, -56.727386, -20.352646, -89.545502, 13.727663, 100.772420
1759228129.998094, -6.470480, 8.815899, -2.718616, 0.594292, 1.763561, -0.110759, -57.691803, -20.066162, -89.569260, 13.727663, 100.772420
1759228130.018101, -6.075885, 8.638130, -2.499696, 0.835636, 1.926313, -0.271068, -58.542267, -19.867508, -89.489517, 13.727663, 100.772420
1759228130.038118, -5.648371, 8.527697, -2.425925, 1.010702, 2.128731, -0.350263, -59.839203, -18.997986, -89.521469, 13.727663, 100.772420
1759228130.058128, -5.411045, 8.764723, -2.521543, 1.183610, 2.144009, -0.381644, -61.378479, -18.431152, -90.371582, 13.727663, 100.772420
1759228130.078173, -6.162675, 9.427169, -3.286790, 1.441921, 2.123916, -0.563575, -62.361008, -18.073212, -90.064514, 13.727663, 100.772420
1759228130.098087, -6.127510, 9.294740, -2.685845, 1.597726, 2.174493, -0.772494, -63.457779, -17.373581, -90.302261, 13.727663, 100.772420
1759228130.118172, -5.271882, 9.359383, -1.483806, 1.358825, 2.154740, -0.991865, -64.789444, -16.470474, -91.081741, 13.727663, 100.772420
1759228130.137443, -4.917241, 10.079290, 1.224335, 0.657351, 1.853618, -1.151692, -65.895584, -16.033630, -90.744766, 13.727663, 100.772420
1759228130.158119, -4.977545, 10.222942, 1.003919, 0.072175, 1.647242, -1.214013, -67.416931, -16.257401, -91.385727, 13.727663, 100.772420
1759228130.177938, -5.670367, 9.059210, -1.851466, -0.002617, 1.969183, -1.370308, -68.281311, -16.534973, -91.911331, 13.727663, 100.772420
1759228130.198052, -6.443694, 8.302792, -3.566612, 0.001089, 2.347106, -1.636055, -70.003418, -16.818893, -92.145477, 13.727663, 100.772420
1759228130.218047, -6.594529, 8.535329, -1.916708, -0.233338, 2.456516, -1.774816, -71.130630, -17.272873, -92.986816, 13.727663, 100.772420
1759228130.237868, -5.531204, 8.286781, -1.440711, -0.325792, 2.798119, -1.666589, -72.466370, -17.795273, -93.644211, 13.727663, 100.772420
1759228130.258052, -3.293524, 7.808539, -1.946336, -0.183396, 2.495970, -1.317904, -73.882156, -18.701309, -94.500763, 13.727663, 100.772420
1759228130.278051, -2.610428, 7.541137, -1.895011, -0.278546, 2.314484, -1.193601, -75.067108, -18.930099, -95.369720, 13.727663, 100.772420
1759228130.298102, -1.849521, 8.258200, -2.093729, -0.377893, 2.044221, -1.240419, -75.860168, -19.525589, -96.095322, 13.727663, 100.772420
1759228130.318085, -1.395520, 8.678083, -2.551022, -0.336783, 1.763064, -1.271991, -77.211700, -19.693771, -96.866562, 13.727663, 100.772420
1759228130.338190, -1.345691, 7.688230, -2.842067, -0.452415, 1.506185, -1.187787, -77.823273, -20.939224, -97.336777, 13.727663, 100.772420
1759228130.358076, -1.630152, 6.388927, -3.207632, -0.569102, 1.122486, -1.053818, -78.527588, -21.265274, -98.724991, 13.727663, 100.772420
1759228130.378082, -2.059911, 5.982511, -3.378667, -0.623871, 0.947168, -0.816570, -78.999405, -22.231110, -98.592789, 13.727663, 100.772420
1759228130.398232, -2.931101, 6.457012, -3.751714, -0.618975, 0.981173, -0.556598, -79.793091, -22.463791, -99.469452, 13.727663, 100.772420
1759228130.418096, -4.413711, 7.046135, -2.874538, -0.791478, 0.687780, -0.571894, -79.745483, -23.327560, -99.043900, 13.727663, 100.772420
1759228130.438209, -3.912275, 6.893804, -2.807052, -1.013512, 0.379475, -0.606675, -79.681427, -23.974640, -99.658493, 13.727663, 100.772420
1759228130.458122, -2.130690, 6.173299, -2.738667, -1.196747, 0.291510, -0.473743, -79.966812, -24.172745, -99.678436, 13.727663, 100.772420
1759228130.478128, -0.953341, 5.987599, -2.963273, -1.159190, 0.312870, -0.156713, -79.764755, -24.860733, -100.184113, 13.727663, 100.772420
1759228130.498066, -1.131410, 6.569240, -3.204340, -1.195111, 0.443483, 0.018479, -80.134125, -25.229706, -99.922928, 13.727663, 100.772420
1759228130.518106, -1.769914, 7.260566, -4.446631, -1.497779, 0.329410, -0.052157, -79.993530, -25.785446, -100.216995, 13.727663, 100.772420
1759228130.538030, -2.908356, 7.066636, -5.692813, -1.807723, -0.360460, 0.001011, -80.311523, -26.149033, -100.288391, 13.727664, 100.772421
1759228130.557910, -4.014478, 7.670424, -6.669947, -1.629011, -0.290972, 0.145774, -79.858627, -26.815094, -99.998352, 13.727664, 100.772421
1759228130.578066, -5.864447, 8.936956, -8.439710, -1.045720, 0.434521, 0.309647, -79.815857, -27.602173, -100.455093, 13.727664, 100.772421
1759228130.598095, -8.255956, 11.237784, -10.746673, -0.558793, 0.894177, 0.408876, -80.213669, -27.540192, -101.195358, 13.727664, 100.772421
1759228130.618086, -10.389040, 12.296620, -9.828946, -0.297472, 0.565679, 0.004767, -80.604279, -27.600998, -101.171509, 13.727664, 100.772421
1759228130.638161, -7.611017, 11.241226, -5.822399, -0.175479, 0.447648, -0.190556, -80.715424, -27.715042, -101.875137, 13.727664, 100.772421
1759228130.658094, -5.090671, 12.749573, -2.090437, -0.132521, -0.018054, -0.394161, -80.981537, -27.704361, -101.972366, 13.727664, 100.772421
1759228130.678063, -3.743185, 7.492355, 1.828871, -0.620126, -0.491367, -0.467650, -80.771500, -28.077835, -101.495743, 13.727664, 100.772421
1759228130.698083, -3.232621, 8.348581, -4.951658, 0.143080, 1.112871, -0.437242, -80.188812, -28.452271, -101.540482, 13.727664, 100.772421
1759228130.718136, -4.782268, 8.184429, -7.862558, 0.288575, -0.352594, -0.114625, -80.425659, -28.396866, -101.575195, 13.727664, 100.772421
1759228130.738110, 0.783353, 4.378845, 4.854094, -0.654652, -1.129639, 0.388666, -80.219025, -28.443542, -100.898438, 13.727664, 100.772421
1759228130.758087, 1.373823, 4.548085, 2.044050, -0.688777, -0.732817, 0.587447, -80.451630, -27.860504, -100.777939, 13.727664, 100.772421
1759228130.778171, 2.428768, 8.961497, -3.536535, -0.114424, 0.760345, 0.859849, -80.295395, -27.820908, -101.104721, 13.727664, 100.772421
1759228130.798102, -3.491345, 11.034576, 1.400907, -0.840315, -0.490825, 0.766495, -80.119888, -27.781494, -101.162628, 13.727664, 100.772421
1759228130.818191, -5.275174, 10.460566, 2.405424, -1.215214, -1.274763, 0.349324, -79.687561, -28.103897, -100.226944, 13.727664, 100.772421
1759228130.838142, -7.731476, 9.647585, -1.696442, -0.953310, -1.103120, -0.299066, -79.251266, -28.647339, -100.063583, 13.727664, 100.772421
1759228130.857340, -6.338499, 8.313716, -0.654964, -0.462332, -0.543661, -0.461196, -78.857574, -29.083740, -99.957657, 13.727664, 100.772421
1759228130.878233, -4.447379, 8.388385, -0.161758, -0.255780, -0.256139, 0.248963, -78.939774, -29.026505, -99.455002, 13.727664, 100.772421
1759228130.898074, -4.538209, 10.040833, -0.199766, -0.439479, -0.461595, 0.557280, -78.929489, -28.854752, -99.705307, 13.727664, 100.772421
1759228130.918145, -4.454263, 9.754726, -0.049380, -0.751061, -0.850608, 0.201582, -78.522888, -28.936539, -99.248856, 13.727664, 100.772421
1759228130.938164, -3.491195, 8.575282, 0.061800, -0.778969, -0.745682, 0.131567, -78.250946, -28.982559, -98.548828, 13.727664, 100.772421
1759228130.957779, -3.289483, 8.220940, -0.025738, -0.786310, -0.348313, 0.228229, -78.318054, -29.295349, -98.771347, 13.727664, 100.772421
1759228130.978236, -3.310732, 7.715913, -0.220865, -0.971085, -0.380686, 0.310900, -78.255707, -29.836075, -98.356918, 13.727664, 100.772421
1759228130.998162, -3.975422, 8.240992, -0.139612, -1.084080, -0.310706, 0.424405, -78.299164, -29.877090, -98.646408, 13.727664, 100.772421
1759228131.018169, -5.292981, 8.735843, -0.124498, -1.030824, -0.073826, 0.359000, -77.920364, -30.197968, -98.872711, 13.727664, 100.772421
1759228131.038108, -5.348497, 8.549694, -0.427964, -1.018534, -0.143729, 0.248691, -78.040375, -30.469025, -98.958710, 13.727664, 100.772421
1759228131.058168, -4.782867, 8.665065, -0.972345, -1.091139, -0.532916, 0.102951, -77.686600, -30.486771, -98.499557, 13.727664, 100.772421
1759228131.078077, -4.290409, 8.914810, -1.284040, -0.947846, -0.566761, 0.048401, -77.644089, -31.329025, -98.492294, 13.727664, 100.772421
1759228131.098070, -3.957166, 8.597429, -0.649128, -0.696528, -0.312356, 0.074202, -77.602646, -31.101822, -98.640564, 13.727664, 100.772421
1759228131.118174, -3.613150, 8.084770, 0.028730, -0.565431, -0.103252, 0.024980, -77.303833, -31.285416, -98.971725, 13.727664, 100.772421
1759228131.138049, -3.276914, 7.761254, 0.600346, -0.559016, -0.147582, 0.074693, -76.993698, -31.465042, -98.990204, 13.727664, 100.772421
1759228131.158052, -3.090615, 7.684340, 1.197699, -0.638016, -0.310155, 0.175035, -76.745621, -31.962585, -99.205322, 13.727664, 100.772421
1759228131.178046, -3.341557, 8.432977, 1.149666, -0.879518, -0.453256, 0.174253, -76.774399, -32.112213, -98.567795, 13.727664, 100.772421
1759228131.198117, -3.945644, 9.052925, 0.484975, -1.034114, -0.647350, 0.331801, -76.888977, -32.185730, -98.787796, 13.727664, 100.772421
1759228131.218117, -5.374833, 8.640225, -0.986261, -0.952071, -0.853224, 0.319391, -76.343933, -32.339661, -99.112091, 13.727664, 100.772421
1759228131.238143, -5.090671, 8.593538, -1.998859, -0.660723, -0.731112, 0.230020, -75.931580, -32.641479, -98.345657, 13.727664, 100.772421
1759228131.258119, -3.854515, 9.037213, -1.282394, -0.323093, -0.579579, 0.259716, -75.859207, -32.723068, -97.898590, 13.727664, 100.772421
1759228131.277644, -3.579631, 9.046491, -0.049081, -0.028994, -0.346589, 0.371540, -75.677170, -32.537918, -97.982666, 13.727664, 100.772421
1759228131.298139, -4.151396, 8.677185, 0.727688, 0.009046, -0.335302, 0.377062, -75.069946, -32.442841, -98.017624, 13.727664, 100.772421
1759228131.318199, -5.268141, 9.173384, 0.664990, -0.102097, -0.673498, 0.358267, -74.960281, -32.470215, -97.469131, 13.727664, 100.772421
1759228131.338068, -6.390723, 9.416096, -0.499341, -0.077530, -1.120648, 0.220649, -74.557678, -32.130310, -97.417725, 13.727664, 100.772421
1759228131.358120, -7.606528, 9.194034, -1.923442, 0.070252, -0.870968, 0.195818, -73.911484, -32.019913, -96.057205, 13.727664, 100.772421
1759228131.378118, -9.012224, 8.783428, -1.524358, 0.269009, 0.005558, 0.267982, -74.439392, -31.868683, -96.510437, 13.727664, 100.772421
1759228131.398113, -10.420314, 10.586262, 0.548721, 0.305781, 0.822809, 0.127922, -74.593170, -31.733002, -96.727936, 13.727664, 100.772421
1759228131.418058, -9.035268, 11.110592, 0.975338, 0.099437, 0.885764, -0.270132, -74.618439, -31.348846, -97.279404, 13.727664, 100.772421
1759228131.438117, -6.097583, 10.451139, -1.068861, 0.398989, 1.481567, -0.339174, -75.100433, -31.666656, -97.716293, 13.727664, 100.772421
1759228131.457856, -5.307646, 9.509769, -1.653795, 1.108814, 2.524576, -0.318854, -75.545959, -30.904861, -98.412369, 13.727664, 100.772421
1759228131.478074, -6.075736, 10.078841, 1.159392, 1.463600, 2.450390, -0.603818, -76.297043, -30.779190, -99.564590, 13.727664, 100.772421
1759228131.498118, -4.661361, 10.407595, 1.900996, 1.515256, 1.476170, -0.514375, -77.286224, -30.305878, -99.813614, 13.727664, 100.772421
1759228131.518042, -1.370232, 9.987562, 0.948702, 1.844530, 1.230852, -0.326334, -77.615051, -29.791122, -100.155533, 13.727664, 100.772421
1759228131.538077, -1.048062, 10.123433, 0.191536, 2.216759, 1.482602, -0.489785, -78.134048, -29.203308, -100.675293, 13.727664, 100.772421
1759228131.558084, -2.041955, 10.766426, 0.756119, 2.346442, 0.932702, -0.740707, -78.372665, -28.540466, -100.645447, 13.727664, 100.772421
1759228131.578118, -2.663400, 10.770615, 1.374870, 2.054319, 0.414483, -0.787253, -78.430588, -28.145386, -100.621979, 13.727664, 100.772421
1759228131.598144, -4.260332, 10.637737, 1.506701, 1.616701, 1.027332, -0.731992, -78.113007, -27.845306, -100.795547, 13.727664, 100.772421
1759228131.618101, -4.935647, 10.522067, 1.625962, 1.227977, 1.848541, -0.498986, -78.495117, -27.749985, -101.954956, 13.727664, 100.772421
1759228131.638146, -5.182399, 9.017910, 1.205929, 0.688050, 2.259180, -0.250703, -79.526398, -27.389755, -102.902557, 13.727664, 100.772421
1759228131.658075, -5.944653, 7.821258, 0.294487, 0.277363, 2.057884, -0.267017, -80.134674, -27.179138, -103.348389, 13.727664, 100.772421
1759228131.677297, -6.522703, 7.380127, -0.808342, 0.047907, 1.993644, -0.581516, -80.488770, -27.279678, -104.351257, 13.727664, 100.772421
1759228131.698232, -6.181679, 7.769783, -0.874183, -0.129095, 2.299937, -0.921267, -80.627136, -27.408859, -105.711075, 13.727664, 100.772421
1759228131.718130, -5.591359, 8.529194, -0.324863, -0.273401, 2.426705, -1.024116, -81.657776, -28.019348, -107.019562, 13.727664, 100.772421
1759228131.738233, -4.744260, 8.555530, 0.589123, -0.420202, 2.487168, -0.833242, -81.866135, -28.565796, -108.402725, 13.727664, 100.772421
1759228131.758082, -4.181324, 7.814525, 0.265307, -0.456244, 2.518148, -0.636872, -82.401398, -28.618622, -110.328537, 13.727664, 100.772421
1759228131.777679, -3.848380, 7.594258, -0.865803, -0.214432, 2.602474, -0.677940, -82.961334, -28.868851, -112.066284, 13.727664, 100.772421
1759228131.798091, -2.135329, 8.336012, -2.240225, -0.059346, 2.414935, -0.830709, -82.591125, -28.902161, -113.286469, 13.727664, 100.772421
1759228131.818054, -1.167473, 8.993968, -2.929605, -0.097507, 1.897517, -0.967707, -83.369949, -29.796463, -114.395737, 13.727664, 100.772421
1759228131.838176, -1.487697, 8.621969, -3.737498, -0.166920, 1.228830, -1.006631, -83.038879, -30.319092, -115.313950, 13.727664, 100.772421
1759228131.858108, -3.095403, 8.014889, -4.179827, -0.130014, 0.844366, -0.948115, -83.077591, -30.452438, -116.094177, 13.727664, 100.772421
1759228131.878057, -4.738424, 7.284807, -2.889652, -0.191761, 1.129626, -0.784648, -82.908737, -31.219742, -117.016800, 13.727664, 100.772421
1759228131.898087, -5.453692, 6.812551, -1.749862, -0.363912, 1.751951, -0.676133, -82.851120, -31.704407, -117.509903, 13.727664, 100.772421
1759228131.918083, -4.601207, 6.833800, -2.491316, -0.493887, 1.788366, -0.694204, -82.166641, -31.771805, -118.591599, 13.727664, 100.772421
1759228131.938121, -3.561974, 6.643012, -2.958934, -0.670889, 1.468395, -0.775755, -82.368881, -32.056335, -119.952850, 13.727664, 100.772421
1759228131.958068, -2.134580, 6.377255, -2.729091, -0.728743, 1.307185, -0.643036, -81.900238, -32.392273, -120.970154, 13.727664, 100.772421
1759228131.978233, -0.667234, 6.249315, -2.410512, -0.809939, 1.559927, -0.403021, -81.907455, -32.565903, -121.719864, 13.727664, 100.772421
1759228131.997261, -0.361674, 7.035661, -2.936339, -0.761140, 1.741752, -0.200939, -81.491013, -32.413773, -122.424179, 13.727664, 100.772421
1759228132.018038, -1.002123, 7.513753, -3.732860, -0.720429, 1.765694, 0.052249, -81.159744, -32.129379, -123.805954, 13.727664, 100.772421
1759228132.038056, -1.625364, 7.156718, -4.295946, -0.698741, 1.683827, 0.081221, -80.453125, -31.750137, -124.710693, 13.727664, 100.772421
1759228132.058052, -2.021754, 6.756287, -4.590433, -0.811201, 1.424476, -0.023839, -80.689514, -31.636261, -125.699768, 13.727664, 100.772421
1759228132.078003, -2.994997, 6.960094, -5.443666, -1.019524, 1.053138, -0.184561, -80.211258, -31.616943, -126.454056, 13.727664, 100.772421
1759228132.097705, -4.998943, 8.525303, -5.528212, -0.889115, 0.379610, -0.479422, -79.992569, -31.290787, -127.095062, 13.727664, 100.772421
1759228132.118039, -6.827964, 11.071537, -6.808960, -0.433733, 0.005755, -0.908595, -79.925156, -31.703110, -126.878220, 13.727664, 100.772421
1759228132.138053, -8.022521, 10.738892, -7.020547, -0.265982, 0.472383, -1.082815, -79.532364, -32.329315, -128.054977, 13.727664, 100.772421
1759228132.158053, -5.382315, 6.985832, -5.953482, -0.324850, 0.577640, -0.744140, -79.072479, -32.441071, -128.451813, 13.727664, 100.772421
1759228132.178055, -2.680758, 4.521151, -3.272125, -0.690280, 0.197279, -0.747043, -78.830322, -32.329941, -128.236832, 13.727664, 100.772421
1759228132.197264, -1.660528, 9.350854, 0.672172, -1.026379, -0.277538, -0.746486, -78.582260, -32.330429, -128.540268, 13.727664, 100.772421
1759228132.218037, -1.341202, 16.763901, -2.172139, -0.039176, 1.829760, 0.549066, -78.549606, -32.160370, -128.521149, 13.727664, 100.772421
1759228132.238047, -11.328315, 23.539491, -20.255844, 0.485983, 1.271629, 0.180678, -78.683853, -31.974091, -129.487076, 13.727664, 100.772421
1759228132.258056, -1.133206, 6.853851, 6.650643, 0.014272, -0.294995, 0.313677, -78.627365, -31.685318, -130.031815, 13.727664, 100.772421
1759228132.278067, 2.698415, 3.286940, 7.159561, -1.164266, -2.066486, 0.613878, -79.254105, -31.118103, -129.208374, 13.727664, 100.772421
1759228132.298032, 3.763984, 2.302474, -5.151723, -0.908569, -0.117499, 0.367887, -79.031387, -30.918091, -129.375870, 13.727664, 100.772421
1759228132.318037, 2.569727, 6.363040, -2.570175, -0.329891, 1.093594, 0.017217, -78.793289, -30.785095, -129.415024, 13.727664, 100.772421
1759228132.338048, -2.372803, 10.870124, 2.973449, -0.632949, 0.005973, 0.145052, -78.585571, -30.640778, -129.963760, 13.727664, 100.772421
1759228132.358052, -4.832546, 12.594698, 5.048922, -1.492875, -0.009348, 0.198490, -78.668854, -29.984146, -130.780258, 13.727664, 100.772421
1759228132.378047, -9.512612, 11.241675, -2.498798, -1.653565, -1.013886, 0.257875, -78.796249, -29.745255, -130.023727, 13.727664, 100.772421
1759228132.398047, -12.535591, 7.718906, -7.078607, -0.670187, -1.414793, -0.425667, -79.134384, -29.738800, -129.423294, 13.727664, 100.772421
1759228132.418038, -5.926697, 6.393416, -0.515352, -0.516769, 0.559014, -0.074951, -79.149384, -29.612549, -129.780960, 13.727664, 100.772421
1759228132.438047, -4.082263, 8.400206, -1.456722, -0.561530, 0.629423, 0.026873, -78.930695, -29.145325, -130.083481, 13.727664, 100.772421
1759228132.458052, -2.666991, 10.025271, -0.729334, -0.832242, -0.414537, -0.305801, -79.076111, -29.280441, -130.331497, 13.727664, 100.772421
1759228132.478069, -2.536806, 8.796746, -0.689829, -0.745958, -0.280695, 0.015327, -78.983078, -29.144806, -129.999496, 13.727664, 100.772421
1759228132.497308, -2.945616, 7.691971, -1.376516, -0.799319, -0.122105, 0.147704, -79.362762, -28.902649, -130.036484, 13.727664, 100.772421
1759228132.518038, -3.949236, 7.499238, -1.324143, -0.942161, -0.175455, 0.261570, -78.991241, -28.904022, -130.120590, 13.727664, 100.772421
1759228132.538048, -5.239710, 8.211962, -1.073351, -0.925472, -0.105366, 0.152336, -79.047150, -28.322601, -130.411285, 13.727664, 100.772421
1759228132.558054, -5.270236, 8.547749, -1.307533, -0.875416, 0.101495, 0.117928, -79.191574, -28.094788, -130.302917, 13.727664, 100.772421
1759228132.578047, -5.400122, 8.595184, -0.802656, -1.026201, 0.433519, 0.171933, -78.801544, -27.625534, -130.470657, 13.727664, 100.772421
1759228132.597729, -4.868160, 8.607155, -0.847996, -1.220951, 0.626469, 0.017997, -78.621063, -26.674713, -130.698334, 13.727664, 100.772421
1759228132.618033, -3.952079, 8.505551, -1.133056, -1.199600, 0.556548, -0.029187, -78.632751, -26.369568, -131.563293, 13.727664, 100.772421
1759228132.638059, -3.693056, 8.402750, -0.884209, -1.139388, 0.418927, -0.113268, -78.116516, -26.601852, -132.006012, 13.727664, 100.772421
1759228132.658035, -3.221398, 7.660996, -1.223437, -1.212764, 0.085339, -0.111829, -78.742935, -26.128952, -131.950989, 13.727664, 100.772421
1759228132.678048, -3.930082, 7.854478, -0.878971, -1.041907, 0.176605, -0.109806, -78.548676, -25.927765, -131.847687, 13.727664, 100.772421
1759228132.698044, -4.518307, 8.834305, -1.148469, -0.791538, 0.264473, -0.141618, -78.009766, -25.438019, -131.970459, 13.727664, 100.772421
1759228132.718044, -4.306421, 10.971728, -1.977461, -0.676865, -0.207601, -0.101222, -77.968201, -25.636215, -132.157028, 13.727664, 100.772421
1759228132.737794, -2.112135, 8.940248, -1.986738, -0.563062, -0.321709, 0.064313, -78.054932, -25.024033, -132.546082, 13.727664, 100.772421
1759228132.757530, -2.618808, 8.833557, -0.613664, -0.378133, 0.099029, 0.267652, -78.166519, -24.624496, -132.011139, 13.727664, 100.772421
1759228132.778046, -4.286519, 8.466496, 0.342820, -0.489254, 0.027951, 0.351833, -78.293060, -24.499329, -132.111755, 13.727664, 100.772421
1759228132.798047, -5.491850, 7.945906, 0.991648, -0.710645, -0.179416, 0.376305, -78.120605, -23.711670, -131.399612, 13.727664, 100.772421
1759228132.817236, -6.162825, 7.691522, -0.014216, -0.794498, -0.344502, 0.166424, -77.876282, -23.387466, -131.760345, 13.727664, 100.772421
1759228132.838047, -5.514295, 7.688979, -1.392528, -0.565227, -0.403967, -0.006323, -78.034546, -23.241928, -131.802811, 13.727664, 100.772421
1759228132.858055, -6.047753, 8.431929, -1.177648, -0.183518, 0.218122, -0.104332, -77.768478, -23.109390, -131.845520, 13.727664, 100.772421
1759228132.878048, -7.329100, 9.885808, -0.153528, 0.048926, 1.048854, -0.252002, -77.735611, -23.204636, -132.184753, 13.727664, 100.772421
1759228132.897408, -9.068338, 12.802993, 0.155922, -0.008781, 1.434973, -0.623856, -76.793839, -22.765625, -132.602875, 13.727664, 100.772421
1759228132.918036, -7.132626, 13.456910, -1.007510, -0.009334, 1.547280, -0.577245, -76.540054, -22.949005, -133.423508, 13.727664, 100.772421
1759228132.938047, -5.024681, 11.031284, -1.784578, 0.405277, 1.577871, -0.488065, -75.919952, -22.773071, -133.813797, 13.727664, 100.772421
1759228132.958051, -2.940229, 10.525210, -2.149694, 1.118243, 1.485301, -0.611368, -75.679260, -22.900482, -134.417664, 13.727664, 100.772421
1759228132.978040, -2.058565, 10.732308, -1.813458, 1.859394, 1.446418, -0.541718, -74.737534, -23.440582, -135.036270, 13.727664, 100.772421
1759228132.998043, -0.962319, 10.405350, -1.094001, 2.466132, 1.168815, -0.407052, -74.863968, -24.015625, -135.315659, 13.727664, 100.772421
1759228133.018045, 0.570269, 9.872341, -0.295235, 2.675744, 0.779313, -0.186152, -74.150436, -25.022888, -135.750824, 13.727664, 100.772421
1759228133.038033, 0.378284, 9.951649, -0.466271, 2.703540, 0.624996, -0.229885, -73.814377, -25.809509, -136.029816, 13.727665, 100.772419
1759228133.058051, -1.675492, 10.540024, 1.047613, 2.213024, 1.116048, -0.521767, -73.247482, -26.515472, -135.968689, 13.727665, 100.772419
1759228133.078148, -3.064877, 11.569830, 3.060688, 1.817372, 1.304161, -0.396258, -73.174942, -27.567123, -136.938553, 13.727665, 100.772419
1759228133.098045, -2.238579, 12.444312, 0.564882, 1.747081, 0.771784, -0.002729, -72.505005, -27.891983, -136.737122, 13.727665, 100.772419
1759228133.118039, -2.907908, 11.437850, 0.273837, 1.293645, 0.257985, -0.092141, -72.658508, -28.347702, -137.153168, 13.727665, 100.772419
1759228133.137174, -4.196437, 8.618527, 0.874781, 0.688151, 0.428685, -0.261340, -71.999451, -28.450439, -137.194885, 13.727665, 100.772419
1759228133.157602, -5.021988, 6.487688, 0.155473, 0.314976, 0.772667, -0.260668, -71.829620, -28.490494, -137.863449, 13.727665, 100.772419
1759228133.178155, -5.946598, 5.174618, -1.324592, 0.038802, 0.950504, -0.363149, -71.647873, -28.487274, -138.616043, 13.727665, 100.772419
1759228133.197381, -6.280889, 5.485266, -1.634641, -0.365858, 0.842112, -0.465568, -71.047958, -28.547028, -138.597717, 13.727665, 100.772419
1759228133.217117, -5.004929, 6.126912, -1.091157, -0.843365, 0.601324, -0.284228, -71.256393, -28.734253, -138.739319, 13.727665, 100.772419
1759228133.238034, -2.941576, 6.318897, -1.055394, -1.238354, 0.374130, 0.048308, -70.732849, -28.129257, -139.060699, 13.727665, 100.772419
1759228133.258039, -1.982399, 6.844274, 0.415993, -1.555369, 0.221630, 0.300034, -70.524475, -27.223892, -139.684937, 13.727665, 100.772419
1759228133.278071, -0.718560, 7.928698, 0.781707, -1.558632, 0.205690, 0.311044, -70.360672, -26.524506, -139.237076, 13.727665, 100.772419
1759228133.298032, -0.136469, 8.311471, -0.265457, -1.496463, 0.513466, 0.122016, -70.096283, -25.471985, -139.393707, 13.727665, 100.772419
1759228133.317426, -0.757166, 9.520094, -1.321150, -1.713656, 0.927745, -0.242018, -69.752289, -24.779190, -139.845779, 13.727665, 100.772419
1759228133.338092, -2.010232, 10.203040, -2.954744, -2.039873, 0.490777, -0.367535, -69.228256, -24.407318, -140.484833, 13.727665, 100.772419
1759228133.358085, -3.794959, 9.866056, -6.012140, -1.832261, 0.053659, -0.333010, -69.234283, -23.525269, -140.591507, 13.727665, 100.772419
1759228133.378044, -4.486884, 9.873089, -5.907244, -1.270161, 0.132893, -0.184342, -69.190659, -22.437881, -140.699997, 13.727665, 100.772419
1759228133.397932, -4.863821, 9.745747, -4.530129, -0.336244, 0.239494, -0.186460, -68.671097, -22.449051, -140.555634, 13.727665, 100.772419
1759228133.417890, -4.518158, 10.123283, -4.446332, 0.487468, 0.763844, -0.222845, -69.002975, -22.738403, -140.986572, 13.727665, 100.772419
1759228133.438049, -2.497302, 8.845378, -2.977639, 0.336510, 0.038394, -0.238630, -68.855270, -22.765457, -141.261993, 13.727665, 100.772419
1759228133.457348, -0.641496, 8.248923, 1.659631, -0.604308, -0.897322, -0.408036, -68.811615, -22.472549, -141.200211, 13.727665, 100.772419
1759228133.478061, -1.688211, 9.333945, 1.111658, -0.887581, -0.424877, -0.320784, -69.180878, -21.970291, -140.749496, 13.727665, 100.772419
1759228133.498045, -1.439514, 12.527511, -2.750788, -0.794027, 0.268581, 0.185167, -68.978989, -21.778061, -140.767227, 13.727665, 100.772419
1759228133.518036, -4.113388, 10.834062, -4.394557, -0.207488, -0.426377, 0.604167, -69.202438, -21.867279, -140.112885, 13.727665, 100.772419
1759228133.538117, -7.247398, 7.477241, -0.134674, -0.273513, 0.113510, 0.271175, -68.939728, -21.232788, -140.391708, 13.727665, 100.772419
1759228133.558051, -6.782923, 6.519860, 1.738639, -0.844546, 0.047475, -0.115595, -68.998718, -21.076935, -140.178177, 13.727665, 100.772419
1759228133.578057, -4.746654, 7.328801, 0.109984, -0.963242, -0.190488, -0.206936, -68.869339, -20.243439, -140.122772, 13.727665, 100.772419
1759228133.597123, -2.612373, 9.340679, -2.410811, -0.621537, 0.270104, -0.076120, -69.164215, -20.297882, -140.986557, 13.727665, 100.772419
1759228133.618051, -2.335693, 9.958682, -1.039233, -0.585514, 0.217631, 0.072690, -69.130020, -20.151001, -140.811279, 13.727665, 100.772419
1759228133.637588, -3.350835, 9.574712, 0.212485, -0.640940, -0.017216, 0.037234, -68.691574, -19.768753, -140.707886, 13.727665, 100.772419
1759228133.658051, -3.604022, 8.934562, -1.209221, -0.423687, 0.005044, 0.014525, -68.623840, -19.390198, -140.839630, 13.727665, 100.772419
1759228133.678046, -3.439869, 8.915708, -1.447145, -0.184359, -0.009426, 0.019952, -68.922150, -19.485992, -140.895676, 13.727665, 100.772419
1759228133.698046, -3.502567, 9.414450, -0.723647, -0.069614, -0.109967, -0.002951, -68.975830, -19.224533, -140.561325, 13.727665, 100.772419
1759228133.717177, -3.537732, 9.438242, -0.650026, -0.038061, -0.115655, -0.017747, -69.008072, -19.134384, -140.520218, 13.727665, 100.772419
1759228133.738052, -3.604770, 8.890120, -0.451756, 0.023067, -0.126093, 0.000391, -68.922562, -19.455109, -140.826202, 13.727665, 100.772419
1759228133.758055, -4.046799, 8.762628, -0.017657, 0.030184, -0.148617, -0.043660, -69.215347, -18.953278, -140.332962, 13.727665, 100.772419
1759228133.778040, -4.173393, 8.846276, 0.217423, -0.007287, -0.184163, -0.072371, -69.063416, -19.599655, -140.535263, 13.727665, 100.772419
1759228133.798035, -4.103662, 8.743026, 0.170437, -0.088433, -0.270086, -0.064834, -68.993332, -19.017227, -140.895462, 13.727665, 100.772419
1759228133.818040, -3.912874, 8.778640, -0.322319, -0.091483, -0.265737, -0.054925, -69.437866, -19.352173, -140.358871, 13.727665, 100.772419
1759228133.838058, -3.549703, 9.031677, -0.432602, -0.054069, -0.109282, -0.005486, -69.386078, -19.498611, -140.589630, 13.727665, 100.772419
1759228133.858049, -3.715053, 8.942343, -0.028880, -0.078988, -0.058770, 0.036514, -69.314255, -19.118301, -140.552292, 13.727665, 100.772419
1759228133.878048, -4.144064, 8.752154, -0.268899, -0.122112, -0.092724, 0.051072, -69.365906, -19.224808, -140.582840, 13.727665, 100.772419
1759228133.898045, -4.388572, 8.695142, -0.544531, -0.103229, -0.095819, 0.028747, -69.317474, -18.811172, -140.366135, 13.727665, 100.772419
1759228133.918037, -4.366425, 8.788366, -0.170288, -0.117447, -0.025290, 0.007892, -69.342850, -18.837616, -140.343155, 13.727665, 100.772419
1759228133.938073, -4.163666, 8.784775, -0.365714, -0.165690, 0.004123, 0.008983, -69.034821, -19.081818, -140.496948, 13.727665, 100.772419
1759228133.958051, -3.981857, 8.857948, -0.872387, -0.125434, -0.015021, 0.002490, -69.209061, -18.547165, -140.733597, 13.727665, 100.772419
1759228133.978048, -3.922151, 9.019706, -0.548571, -0.079882, 0.046105, -0.001353, -69.177734, -18.517349, -140.084534, 13.727665, 100.772419
1759228133.998067, -4.020912, 8.857499, -0.286556, -0.111716, 0.033419, 0.000675, -69.623840, -18.754761, -140.222702, 13.727665, 100.772419
1759228134.018042, -4.131045, 8.841787, -0.691326, -0.086355, 0.021413, -0.014064, -69.059586, -18.921005, -140.396576, 13.727665, 100.772419
1759228134.037149, -4.005350, 9.052327, -0.702848, -0.019655, 0.063268, -0.019725, -69.341751, -18.702011, -140.441055, 13.727668, 100.772417
1759228134.057193, -3.901501, 9.081357, -0.164003, 0.011792, 0.082960, -0.029678, -69.423080, -18.515610, -140.138718, 13.727668, 100.772417
1759228134.078143, -3.900753, 8.916755, -0.103699, -0.013919, 0.061968, -0.040445, -69.418945, -18.789825, -140.535919, 13.727668, 100.772417
1759228134.098044, -3.737199, 8.945785, -0.446369, 0.007757, 0.003632, -0.048798, -69.095169, -18.865906, -140.395569, 13.727668, 100.772417
1759228134.118036, -3.483863, 9.056217, -0.189591, 0.038816, -0.039664, -0.063757, -68.580261, -18.807556, -140.287384, 13.727668, 100.772417
1759228134.137568, -3.411438, 9.171438, -0.114772, 0.028339, -0.064031, -0.056698, -69.266205, -18.590927, -140.876083, 13.727668, 100.772417
1759228134.157552, -3.559729, 9.140014, -0.514005, -0.000312, -0.134915, -0.034303, -69.545334, -18.458649, -140.378738, 13.727668, 100.772417
1759228134.178046, -3.458424, 8.993669, -0.548721, -0.025946, -0.175979, -0.011648, -69.303146, -18.478760, -140.481247, 13.727668, 100.772417
1759228134.198045, -3.407548, 8.828619, -0.261417, -0.009584, -0.169652, 0.015376, -69.323761, -18.630997, -140.359802, 13.727668, 100.772417
1759228134.217731, -3.836110, 8.929025, -0.365415, -0.036756, -0.206371, 0.031271, -69.475311, -18.671402, -140.522537, 13.727668, 100.772417
1759228134.237991, -4.233697, 8.681824, -0.786944, -0.091424, -0.286973, 0.001359, -69.523041, -18.365097, -140.177658, 13.727668, 100.772417
1759228134.258051, -4.251354, 8.377312, -0.771831, -0.088892, -0.251024, -0.040603, -69.846344, -18.166000, -139.906250, 13.727668, 100.772417
1759228134.278072, -4.097676, 8.502558, -1.064971, -0.031173, -0.057357, -0.066582, -69.835770, -18.803467, -139.973389, 13.727668, 100.772417
1759228134.297846, -4.082263, 8.744971, -1.446996, -0.000736, -0.077458, -0.070805, -69.699799, -18.507736, -140.291840, 13.727668, 100.772417
1759228134.318036, -4.037821, 8.882339, -1.218499, -0.049249, -0.160654, -0.091301, -69.632233, -18.661240, -139.894150, 13.727668, 100.772417
1759228134.338046, -3.946991, 8.727464, -0.993594, -0.091137, 0.007125, -0.087293, -69.850327, -18.648193, -140.327698, 13.727668, 100.772417
1759228134.358050, -4.126855, 8.664616, -0.738013, -0.148748, 0.088745, -0.073042, -69.885117, -18.329056, -139.867157, 13.727668, 100.772417
1759228134.378059, -4.153491, 8.687959, -1.006463, -0.174544, 0.085126, -0.068720, -69.580994, -18.332581, -140.394867, 13.727668, 100.772417
1759228134.398061, -3.809175, 8.919449, -1.033996, -0.178754, 0.131736, -0.067838, -69.787918, -18.226868, -140.108109, 13.727668, 100.772417
1759228134.418037, -3.660734, 9.017461, -0.420332, -0.249016, 0.152724, -0.036438, -69.640533, -18.221527, -140.835281, 13.727668, 100.772417
1759228134.438051, -3.695450, 8.905233, -0.541688, -0.295757, 0.136623, -0.026602, -69.625946, -17.823242, -139.972153, 13.727668, 100.772417
1759228134.457734, -3.577237, 9.086743, -0.685789, -0.294921, 0.139505, -0.043281, -69.711838, -17.682129, -140.476257, 13.727668, 100.772417
1759228134.477779, -3.575441, 9.317036, -0.283863, -0.316328, 0.077692, 0.000833, -69.542175, -17.734039, -140.431992, 13.727668, 100.772417
1759228134.498052, -3.635296, 9.198672, -0.263811, -0.305872, 0.031853, 0.024142, -69.242615, -17.467300, -139.683853, 13.727668, 100.772417
1759228134.518036, -3.550152, 8.768464, -0.219518, -0.287012, 0.017229, -0.004795, -69.582230, -17.462982, -140.494370, 13.727668, 100.772417
1759228134.538042, -3.635595, 8.452280, 0.169539, -0.231416, -0.027513, 0.043417, -69.408203, -17.301666, -140.113449, 13.727668, 100.772417
1759228134.558051, -3.857508, 8.677784, 0.208595, -0.130594, 0.089554, 0.071133, -69.233261, -17.064774, -140.090805, 13.727668, 100.772417
1759228134.578071, -4.312107, 9.052177, -0.469563, -0.058774, 0.051252, 0.040682, -69.708801, -16.942581, -139.896362, 13.727668, 100.772417
1759228134.598056, -3.942652, 8.528296, -0.062399, -0.014584, -0.047085, 0.058882, -69.490967, -16.902252, -139.841507, 13.727668, 100.772417
1759228134.618023, -4.472668, 7.959523, 0.706738, 0.023664, 0.168956, 0.060267, -68.911575, -16.971481, -140.410950, 13.727668, 100.772417
1759228134.638041, -5.152921, 8.747964, 0.755520, -0.081669, 0.215228, -0.005507, -69.356918, -17.274658, -140.469482, 13.727668, 100.772417
1759228134.658049, -5.557241, 8.260145, 0.819864, -0.142563, 0.249011, -0.059097, -69.384781, -16.722275, -140.243103, 13.727668, 100.772417
1759228134.678046, -6.249465, 8.204480, 0.366313, -0.055333, 0.287621, -0.153304, -69.421646, -16.841660, -140.224121, 13.727668, 100.772417
1759228134.697804, -6.522703, 8.350377, -0.543185, -0.008101, 0.164188, -0.287935, -69.285873, -16.799271, -140.159164, 13.727668, 100.772417
1759228134.718049, -4.505439, 8.598925, -0.535703, 0.034556, 0.105299, -0.265487, -68.876907, -16.939590, -140.225967, 13.727668, 100.772417
1759228134.738106, -3.687819, 8.688259, -0.002394, 0.035429, 0.199431, -0.243042, -68.736023, -16.790710, -140.685486, 13.727668, 100.772417
1759228134.758036, -3.510349, 9.175179, 0.292841, -0.083212, 0.076812, -0.223890, -68.580521, -16.721024, -140.454300, 13.727668, 100.772417
1759228134.777801, -3.547010, 9.379884, 0.287304, -0.189804, -0.123354, -0.156067, -68.967300, -17.037476, -140.709869, 13.727668, 100.772417
1759228134.797630, -3.367145, 8.987234, 0.139762, -0.239550, -0.076825, -0.035002, -68.736588, -16.645416, -140.650879, 13.727668, 100.772417
1759228134.818023, -3.556886, 8.776395, -0.083199, -0.197287, 0.015162, 0.037878, -68.799194, -16.588837, -140.780777, 13.727668, 100.772417
1759228134.838048, -4.269460, 8.925434, 0.257975, -0.352116, -0.163846, 0.054392, -68.972122, -16.280716, -140.587845, 13.727668, 100.772417
1759228134.857326, -4.468777, 9.069236, -0.242413, -0.431722, -0.273291, 0.127920, -69.083649, -16.174454, -140.081070, 13.727668, 100.772417
1759228134.878045, -5.248539, 8.589947, -1.254711, -0.233801, -0.333037, 0.121899, -69.388123, -16.172577, -140.414124, 13.727668, 100.772417
1759228134.898047, -5.907094, 8.100931, -1.035043, -0.100215, -0.559149, 0.000179, -69.404099, -15.821594, -140.203003, 13.727668, 100.772417
1759228134.918049, -7.494599, 8.428039, -0.332345, -0.159657, -0.561572, -0.287020, -69.517990, -15.531250, -139.515076, 13.727668, 100.772417
1759228134.938043, -6.655432, 7.374440, 0.202609, -0.473978, -0.322213, -0.303190, -69.687607, -15.541580, -139.339020, 13.727668, 100.772417
1759228134.957694, -4.812645, 7.110929, 0.379780, -0.670255, -0.104997, -0.094120, -69.785797, -15.117111, -139.237885, 13.727668, 100.772417
1759228134.978039, -4.300136, 7.138163, 0.062698, -0.661468, -0.066936, -0.011045, -69.663132, -14.766357, -139.593018, 13.727668, 100.772417
1759228134.998113, -3.967940, 7.131728, 0.661398, -0.795455, -0.093950, 0.055768, -69.873032, -14.639847, -139.183594, 13.727668, 100.772417
1759228135.018045, -3.921553, 7.632266, 1.252916, -0.969873, 0.012617, 0.159933, -69.823669, -13.919647, -138.620941, 13.727668, 100.772417
1759228135.038079, -3.915866, 8.478766, 1.325340, -1.101951, -0.137800, 0.218439, -69.741837, -13.449753, -138.887085, 13.727682, 100.772410
1759228135.058092, -3.214365, 8.721777, 0.266804, -1.008300, -0.162885, 0.280110, -69.614746, -12.620071, -138.317566, 13.727682, 100.772410
1759228135.078058, -3.401263, 8.348581, -0.955286, -0.669347, -0.099504, 0.334846, -69.804047, -12.540207, -138.407089, 13.727682, 100.772410
1759228135.098037, -4.220978, 8.579322, -0.254234, -0.465336, -0.245507, 0.380657, -69.867188, -12.010010, -138.350037, 13.727682, 100.772410
1759228135.118215, -4.761319, 9.065345, 0.584036, -0.470421, -0.293036, 0.395549, -69.498703, -11.195892, -137.969513, 13.727682, 100.772410
1759228135.137822, -4.777929, 9.024195, 0.649278, -0.456950, -0.299312, 0.405093, -69.786880, -11.287689, -138.000900, 13.727682, 100.772410
1759228135.158050, -5.435287, 8.463204, 0.334590, -0.285732, -0.400186, 0.356040, -70.003296, -10.625381, -137.519516, 13.727682, 100.772410
1759228135.177453, -6.506842, 8.825177, 1.386841, -0.203650, -0.409637, 0.234022, -69.592316, -10.324875, -136.906998, 13.727682, 100.772410
1759228135.198039, -7.432949, 9.988310, 2.775628, -0.328685, -0.350397, 0.097267, -69.437302, -10.037018, -137.012436, 13.727682, 100.772410
1759228135.218042, -6.095039, 11.054927, 3.313874, -0.528126, 0.004752, 0.082686, -69.520020, -9.591904, -137.276520, 13.727682, 100.772410
1759228135.238041, -5.345504, 12.595446, 1.837699, -0.544632, 0.182372, 0.147914, -69.547012, -9.072708, -136.537338, 13.727682, 100.772410
1759228135.258069, -5.479579, 12.525116, -0.628777, -0.148844, 0.136569, 0.156691, -69.511566, -8.846039, -136.618851, 13.727682, 100.772410
1759228135.278077, -4.732439, 12.514642, -1.499070, 0.372167, 0.302582, 0.212840, -69.355774, -8.815552, -136.926575, 13.727682, 100.772410
1759228135.298128, -4.040066, 12.701988, -0.781707, 0.765090, 0.566212, 0.319884, -69.188095, -8.249573, -137.638611, 13.727682, 100.772410
1759228135.318081, -3.732710, 12.983606, -0.173131, 1.091343, 0.893129, 0.390741, -68.463013, -8.901367, -137.911423, 13.727682, 100.772410
1759228135.338173, -4.162320, 12.420819, -0.919972, 1.304804, 1.140505, 0.402717, -68.050522, -9.160385, -138.962860, 13.727682, 100.772410
1759228135.358077, -4.448127, 11.032781, -1.616535, 1.629322, 1.538720, 0.432741, -67.196716, -9.270294, -139.733017, 13.727682, 100.772410
1759228135.378186, -5.270386, 9.891345, -2.096572, 1.841411, 1.450613, 0.479908, -66.442307, -9.879501, -141.011642, 13.727682, 100.772410
1759228135.398098, -6.966528, 9.795876, -2.666243, 2.147082, 1.074685, 0.344313, -65.747528, -10.103241, -142.119720, 13.727682, 100.772410
1759228135.418175, -7.331794, 9.138069, -2.509872, 2.530259, 0.529184, 0.144414, -65.648499, -11.445847, -142.835297, 13.727682, 100.772410
1759228135.438175, -7.839364, 10.303297, -1.329829, 2.831607, -0.458485, -0.260430, -65.625031, -12.683716, -144.120087, 13.727682, 100.772410
1759228135.458175, -6.308422, 12.446257, 2.799720, 2.554108, -1.466309, -0.760498, -66.907516, -13.952606, -143.836334, 13.727682, 100.772410
1759228135.478135, -5.981464, 13.609241, 3.500921, 1.483914, -0.275685, -1.100082, -67.297943, -14.927078, -144.304489, 13.727682, 100.772410
1759228135.498138, -6.269666, 12.137555, -1.594089, 1.441683, 2.866635, -1.323939, -65.993027, -15.851822, -145.722641, 13.727682, 100.772410
1759228135.518206, -7.062745, 11.596016, -2.401684, 2.289590, 4.453077, -1.424062, -64.416367, -17.520889, -146.683609, 13.727682, 100.772410
1759228135.538165, -8.119636, 12.936620, -4.924574, 3.090087, 3.528270, -1.381637, -62.207275, -19.639725, -147.699066, 13.727682, 100.772410
