SamplingTime, AccelerationX, AccelerationY, AccelerationZ, GyroX, GyroY, GyroZ, MagneticFieldX, MagneticFieldY, MagneticFieldZ, Latitude, Longitude
1759228309.766652, 1.305738, -1.241244, -9.513360, 0.591137, 0.294435, 0.201166, 43.815887, 26.640015, -264.517212, , 
1759228309.786668, 0.744148, -1.498022, -9.062801, 0.760231, 0.133431, 0.390915, 43.608704, 26.392365, -264.578156, 13.727865, 100.772403
1759228309.806653, 0.709282, -1.025317, -8.905682, 0.908530, 0.444514, 0.444613, 43.936111, 26.293823, -264.698700, 13.727865, 100.772403
1759228309.826657, 0.926107, -0.827646, -8.635586, 0.990736, 1.335122, 0.545974, 44.386978, 26.216125, -265.098755, 13.727865, 100.772403
1759228309.846618, 1.009006, -1.306187, -8.295310, 0.768233, 1.753364, 0.652803, 44.788788, 25.591949, -265.179291, 13.727865, 100.772403
1759228309.866647, 0.500837, -1.377564, -7.653365, 0.285141, 1.886103, 0.600415, 45.403442, 25.537964, -265.317932, 13.727865, 100.772403
1759228309.886668, 0.844555, -1.304840, -7.659350, 0.307013, 2.166258, 0.576517, 46.373764, 25.669220, -264.736877, 13.727865, 100.772403
1759228309.906619, 1.010802, -1.024718, -8.354716, 0.800298, 2.104287, 0.597456, 46.927032, 25.103088, -264.376862, 13.727865, 100.772403
1759228309.926664, 1.539921, -0.808791, -8.665963, 1.176789, 1.387420, 0.637530, 47.407837, 24.938339, -264.659851, 13.727865, 100.772403
1759228309.946668, 2.997241, -1.432481, -8.873360, 1.154014, 0.618769, 0.597705, 47.900360, 24.819550, -265.319153, 13.727865, 100.772403
1759228309.966674, 3.319112, -2.702605, -8.100033, 0.610117, 0.547039, 0.262070, 48.276184, 24.357819, -265.319885, 13.727865, 100.772403
1759228309.986730, 3.463362, -2.768595, -7.105991, -0.222411, 0.798975, -0.247578, 48.254059, 24.100464, -264.838196, 13.727865, 100.772403
1759228310.006850, 3.200449, -2.186505, -6.842179, -0.816648, 0.792906, -0.598956, 48.210251, 24.414932, -264.540802, 13.727865, 100.772403
1759228310.026663, 3.301604, -1.610101, -7.913435, -0.354306, 0.125462, -0.426981, 48.031219, 24.884872, -264.320129, 13.727865, 100.772403
1759228310.046682, 3.887286, -2.538752, -8.637531, 0.045268, 0.029218, -0.376644, 47.577713, 24.817169, -264.219452, 13.727861, 100.772405
1759228310.066662, 4.959140, -1.809717, -8.463204, 0.016843, -0.686287, -0.004941, 47.818298, 24.814209, -264.716064, 13.727861, 100.772405
1759228310.086691, 4.013430, -1.927183, -7.397036, -0.645146, -0.646733, 0.120101, 47.685257, 24.713745, -264.257324, 13.727861, 100.772405
1759228310.106704, 2.607735, -1.915511, -6.741324, -1.184156, -0.485413, -0.382313, 47.310043, 24.624207, -263.707092, 13.727861, 100.772405
1759228310.126685, 1.843535, -1.004517, -3.012205, -2.152993, -0.979926, -0.307989, 47.447723, 25.172516, -262.830627, 13.727861, 100.772405
1759228310.146875, 0.865205, 1.234510, -1.659032, -3.431545, -2.422465, -0.081937, 47.042114, 25.541901, -262.106964, 13.727861, 100.772405
1759228310.165834, 0.446070, 3.073407, -2.745401, -4.560432, -2.624170, 0.167104, 47.478302, 25.606766, -260.595581, 13.727861, 100.772405
1759228310.186728, 0.675165, 4.455460, -5.582829, -4.611636, -1.863485, -0.032223, 46.968018, 25.365967, -258.085754, 13.727861, 100.772405
1759228310.206684, 0.499341, 6.213103, -9.021202, -3.386270, -0.269270, -0.342961, 46.923355, 25.140961, -256.258423, 13.727861, 100.772405
1759228310.226726, 0.471508, 6.536320, -10.906786, -2.074135, 0.865159, -0.587143, 46.996109, 25.117203, -254.914810, 13.727861, 100.772405
1759228310.246831, 1.025018, 4.473865, -10.349236, -1.518840, 1.452767, -0.978726, 46.627426, 25.023682, -253.609940, 13.727861, 100.772405
1759228310.266065, 2.206107, 5.225794, -9.627085, -1.394230, 2.003073, -1.201011, 45.480865, 25.139297, -252.827225, 13.727861, 100.772405
1759228310.286656, 3.923199, 6.294805, -8.660127, -1.621371, 2.398720, -1.245942, 44.885101, 25.217651, -250.793976, 13.727861, 100.772405
1759228310.306809, 5.494094, 6.230910, -8.575432, -1.909328, 2.527294, -1.265245, 43.727310, 25.123367, -249.256317, 13.727861, 100.772405
1759228310.326732, 5.948544, 5.859958, -9.764751, -1.867808, 2.277189, -1.232194, 42.631607, 24.663940, -248.127808, 13.727861, 100.772405
1759228310.346752, 5.967398, 5.956624, -10.808623, -1.495757, 1.136814, -1.110574, 41.582352, 24.699799, -247.578995, 13.727861, 100.772405
1759228310.366171, 8.725818, 6.602161, -10.350732, -1.291934, 0.236488, -0.653913, 41.705780, 24.450073, -246.679916, 13.727861, 100.772405
1759228310.386756, 10.900351, 6.002862, -8.935610, -1.619516, 0.340455, -0.164767, 41.143692, 24.302963, -246.086121, 13.727861, 100.772405
1759228310.406704, 10.392182, 4.772542, -8.350826, -2.206189, 1.272720, -0.146332, 40.922363, 23.360336, -244.960815, 13.727861, 100.772405
1759228310.426680, 9.853337, 4.137180, -9.204658, -2.443559, 2.460875, -0.303342, 40.262039, 22.966919, -243.548279, 13.727861, 100.772405
1759228310.446671, 10.508301, 4.033931, -9.360730, -2.370865, 3.741714, -0.440843, 39.052368, 22.429459, -242.439102, 13.727861, 100.772405
1759228310.466338, 10.914866, 6.236895, -9.720908, -1.878484, 4.282320, -0.279695, 37.731247, 21.637390, -240.612671, 13.727861, 100.772405
1759228310.486676, 10.944494, 5.504868, -8.811710, -1.453920, 4.916987, -0.178590, 35.832809, 21.076553, -240.077866, 13.727861, 100.772405
1759228310.506698, 9.780015, 4.848258, -7.450756, -1.242181, 4.776328, -0.255180, 34.075424, 20.822174, -239.562759, 13.727861, 100.772405
1759228310.526696, 9.878626, 4.635773, -6.452373, -1.228694, 4.269927, -0.356979, 31.935898, 20.745697, -238.819092, 13.727861, 100.772405
1759228310.546679, 13.176339, 5.362563, -5.052364, -1.341799, 4.884927, 0.147306, 30.548309, 20.024231, -238.582397, 13.727861, 100.772405
1759228310.566495, 13.147459, 5.169680, -4.075829, -1.462629, 3.738610, 0.416111, 28.748642, 19.232529, -238.302567, 13.727861, 100.772405
1759228310.586717, 12.538434, 2.858527, -4.019116, -1.288681, 2.981106, 0.805681, 28.142731, 19.281586, -238.118164, 13.727861, 100.772405
1759228310.606671, 10.836007, 0.815076, -3.730615, -1.102776, 2.256853, 0.861475, 27.352737, 18.820541, -237.825745, 13.727861, 100.772405
1759228310.626484, 10.345345, -0.248997, -4.012682, -0.847264, 1.293264, 1.186230, 27.125198, 18.763672, -237.886368, 13.727861, 100.772405
1759228310.646245, 9.382278, -0.793977, -4.277989, -0.557776, 0.088430, 1.450882, 27.498184, 18.601059, -236.950958, 13.727861, 100.772405
1759228310.666711, 9.226655, 0.766145, -3.561525, -0.069763, 0.153906, 1.238605, 28.004089, 19.196121, -237.265457, 13.727861, 100.772405
1759228310.686701, 10.658088, 0.509666, -2.412308, 0.419373, 1.363382, 0.610522, 27.781891, 19.078049, -237.447250, 13.727861, 100.772405
1759228310.706847, 10.100688, -0.217274, -1.098939, 0.539551, 1.473173, 0.717789, 27.548553, 19.634247, -237.889923, 13.727861, 100.772405
1759228310.726696, 7.790882, 1.006313, 0.072724, 0.441937, 0.498965, 0.902309, 27.711136, 19.732712, -237.690948, 13.727861, 100.772405
1759228310.746854, 6.762123, 1.464952, 0.881216, -0.052164, 0.023051, 0.838201, 27.717133, 20.064346, -237.679626, 13.727861, 100.772405
1759228310.766661, 7.939921, 1.782034, 1.266682, -0.618197, -0.216561, 0.759351, 28.481247, 19.610596, -238.538132, 13.727861, 100.772405
1759228310.786739, 7.736264, 3.002030, 0.752079, -0.954754, -0.894850, 0.850403, 28.637985, 19.538651, -237.963760, 13.727861, 100.772405
1759228310.806681, 9.172187, 2.274641, -3.549254, -0.811063, -1.037642, 1.229495, 29.516418, 19.326324, -237.659012, 13.727861, 100.772405
1759228310.826736, 6.845920, 2.171840, -6.915951, 0.571759, 0.007221, 0.791065, 29.860596, 19.290588, -237.510910, 13.727861, 100.772405
1759228310.846669, 7.274931, 6.074838, -5.543624, 1.742706, -0.100823, 0.589478, 30.438995, 19.935410, -238.351074, 13.727861, 100.772405
1759228310.866673, 10.467450, 4.724807, -1.111957, 1.782295, -0.305009, 1.016422, 30.725281, 20.694611, -239.314331, 13.727861, 100.772405
1759228310.886649, 10.995521, 5.026776, 7.109283, -0.948008, -1.019350, 1.118161, 31.754654, 20.652451, -238.895477, 13.727861, 100.772405
1759228310.906663, 11.964275, 4.432715, 1.873612, -2.671483, -1.715258, 1.018225, 32.699905, 19.647110, -237.766800, 13.727861, 100.772405
1759228310.926661, 10.623971, 5.358523, -4.128801, -2.097990, -1.239132, 1.072512, 33.931870, 18.322388, -236.815536, 13.727861, 100.772405
1759228310.946662, 9.115025, 5.571607, -4.386477, -0.491923, 0.144825, 1.193765, 34.333725, 18.304428, -237.003891, 13.727861, 100.772405
1759228310.966662, 6.019023, 7.716961, -2.538602, 0.584432, 0.601101, 1.171559, 34.516083, 18.333466, -236.741669, 13.727861, 100.772405
1759228310.986720, 4.458901, 9.179818, -0.165649, 0.925443, 0.547073, 0.267314, 34.452377, 18.727982, -237.078491, 13.727861, 100.772405
1759228311.006728, 6.265177, 9.000552, 2.331952, 0.248093, 0.748461, -0.339576, 33.928116, 18.970901, -236.782349, 13.727861, 100.772405
1759228311.026684, 6.397756, 7.386411, 2.681057, -0.766696, 0.345921, -0.417278, 33.860687, 18.782471, -236.611206, 13.727848, 100.772408
1759228311.046664, 4.574122, 5.932832, 0.841113, -1.416952, -0.532387, -0.433407, 33.494141, 18.049316, -236.128296, 13.727848, 100.772408
1759228311.066748, 4.429722, 5.383961, -0.785149, -1.334306, -0.851318, -0.763181, 33.971390, 17.769852, -235.553726, 13.727848, 100.772408
1759228311.086665, 5.940912, 4.251803, -1.034445, -0.955962, -1.004207, -1.180976, 33.727280, 17.501068, -234.991867, 13.727848, 100.772408
1759228311.106668, 9.631724, 3.870526, 0.310049, -0.814182, -0.453622, -1.632531, 33.495560, 16.629105, -235.252869, 13.727848, 100.772408
1759228311.126685, 14.068179, 3.028665, 1.058686, -1.022310, 0.180299, -1.543115, 33.162521, 16.385666, -234.890900, 13.727848, 100.772408
1759228311.146668, 16.352098, 1.245583, 0.014216, -0.951713, 0.174991, -0.847409, 32.849823, 15.697357, -234.558212, 13.727848, 100.772408
1759228311.166675, 15.831359, 0.388160, 0.367510, -0.910723, -0.206066, -0.172035, 32.552078, 15.549911, -233.710373, 13.727848, 100.772408
1759228311.186666, 14.640244, -0.659902, -1.456572, -0.854299, -0.119025, 0.215366, 32.818863, 14.731064, -233.283173, 13.727848, 100.772408
1759228311.206732, 13.477560, -0.766593, -2.958335, -0.353714, 0.343996, 0.368246, 32.853821, 14.894241, -233.372879, 13.727848, 100.772408
1759228311.226375, 12.424410, -0.933589, -2.426374, -0.127541, 0.489998, 0.576693, 32.887527, 15.117752, -233.052750, 13.727848, 100.772408
1759228311.246684, 10.783185, -0.683993, -2.600702, -0.110226, 0.277816, 0.825143, 32.755310, 14.812775, -233.200394, 13.727848, 100.772408
1759228311.266746, 8.584560, -0.898574, -5.342811, 0.179347, 0.168905, 0.867528, 33.053009, 14.996628, -233.624466, 13.727848, 100.772408
1759228311.286668, 6.738929, -0.554258, -6.591536, 1.059378, 0.298978, 0.707454, 33.073456, 15.359329, -234.169678, 13.727848, 100.772408
1759228311.306690, 8.528446, 0.103848, -3.861249, 1.625814, 0.332968, 0.699702, 33.190842, 16.172394, -234.681549, 13.727848, 100.772408
1759228311.326722, 9.600599, 0.425270, 0.211288, 1.159795, 0.099022, 0.775434, 33.466476, 16.828079, -235.028076, 13.727848, 100.772408
1759228311.346668, 9.013421, 1.530493, 2.126500, 0.338075, -0.196885, 0.709941, 33.692871, 16.854309, -234.762985, 13.727848, 100.772408
1759228311.365815, 8.588450, 4.019565, 2.013374, -0.205059, -0.493981, 0.618686, 34.205856, 17.080246, -234.751022, 13.727848, 100.772408
1759228311.386067, 7.965509, 4.078223, -1.568950, 0.447308, -0.307004, 0.636651, 34.078720, 16.732620, -234.454819, 13.727848, 100.772408
1759228311.405918, 6.565350, 3.200000, 3.908085, 0.576187, -0.222737, 0.553490, 34.741745, 16.952911, -235.135712, 13.727848, 100.772408
1759228311.425739, 5.840954, 5.453842, 2.830994, -0.346108, -0.725332, 0.132315, 34.719299, 16.833786, -234.976105, 13.727848, 100.772408
1759228311.446691, 7.711574, 7.483676, -1.932719, 0.107382, -0.243204, 0.095420, 35.197250, 16.910065, -234.706467, 13.727848, 100.772408
1759228311.465915, 8.192060, 6.113444, -1.716643, 0.180911, -0.087133, -0.084836, 35.208572, 17.189331, -235.069412, 13.727848, 100.772408
1759228311.486670, 7.596802, 4.803367, -1.329829, -0.092438, 0.060312, -0.303664, 35.214569, 17.074432, -235.167282, 13.727848, 100.772408
1759228311.506679, 6.032640, 2.631377, -1.571344, -0.410898, 0.612201, -0.961075, 34.812393, 16.970078, -235.105835, 13.727848, 100.772408
1759228311.526674, 7.094468, 6.099229, -1.310975, -1.024750, 1.896995, -1.905587, 33.877106, 16.612839, -234.893173, 13.727848, 100.772408
1759228311.546670, 9.130288, 7.125593, -0.077662, -0.727055, 2.549413, -2.369230, 31.892868, 16.125000, -234.795456, 13.727848, 100.772408
1759228311.566113, 10.337714, 5.785738, -1.151461, -0.109734, 1.155715, -1.960767, 29.999786, 15.518845, -234.288010, 13.727848, 100.772408
1759228311.586674, 9.396793, 4.573524, 0.085293, 0.039186, 0.503622, -1.767858, 29.333344, 15.213898, -234.841064, 13.727848, 100.772408
1759228311.606668, 7.520936, 3.733309, 0.450858, 0.363047, 0.341487, -2.268288, 28.098022, 14.814087, -234.598160, 13.727848, 100.772408
1759228311.626683, 9.546729, 3.569755, 0.700903, 0.614410, -0.026244, -2.207897, 27.020493, 15.135117, -234.367828, 13.727848, 100.772408
1759228311.646478, 11.372608, 3.808277, 1.029357, 0.548930, 0.339844, -2.062044, 26.627289, 14.618637, -234.893341, 13.727848, 100.772408
1759228311.666251, 11.449222, 4.295347, -0.038906, 0.302334, 1.616248, -1.986879, 25.449524, 15.297562, -235.614532, 13.727848, 100.772408
1759228311.686672, 11.358242, 6.294655, 0.673668, 0.634328, 1.216112, -1.743195, 24.257385, 15.036789, -235.795303, 13.727848, 100.772408
1759228311.706673, 6.806117, 6.496517, 0.433949, 0.772955, -0.094673, -2.131598, 23.244492, 14.669144, -236.325989, 13.727848, 100.772408
1759228311.726716, 4.406827, 3.751265, -0.180613, 0.235587, -0.200175, -3.331230, 22.499283, 14.301300, -236.003479, 13.727848, 100.772408
1759228311.746681, 5.567866, 4.163517, -0.241066, -0.423024, 0.316907, -4.188987, 21.731400, 13.049454, -236.275223, 13.727848, 100.772408
1759228311.766420, 8.732551, 8.313716, 0.108487, -0.676629, 0.660816, -3.041179, 19.821243, 12.125061, -236.257843, 13.727848, 100.772408
1759228311.786665, 9.284714, 10.272322, 0.601394, 0.115987, -0.545009, -1.801823, 19.829666, 11.302826, -236.862457, 13.727848, 100.772408
1759228311.806744, 5.124789, 7.927800, 1.618630, 0.511416, -1.758765, -1.518466, 19.980484, 11.099701, -236.079590, 13.727848, 100.772408
1759228311.826686, 4.563348, 7.569119, 0.444424, 0.414562, -1.638110, -1.514254, 20.158478, 11.228424, -235.488480, 13.727848, 100.772408
1759228311.846677, 6.314707, 6.616077, -0.940173, 0.428177, -0.963050, -1.438279, 20.541443, 10.575211, -235.770309, 13.727848, 100.772408
1759228311.866577, 6.587347, 7.425018, -0.405518, 0.330786, -1.042644, -0.593066, 20.371613, 10.664276, -235.441956, 13.727848, 100.772408
1759228311.886676, 3.880103, 9.553762, -0.293439, 0.184344, -1.108913, -0.069501, 21.036942, 10.629013, -235.067688, 13.727848, 100.772408
1759228311.906684, 3.988291, 6.581960, 0.337732, -0.190294, -0.968179, 0.139123, 21.337463, 10.488159, -235.150772, 13.727848, 100.772408
1759228311.926683, 5.615750, 8.503306, -0.047136, -0.476720, -1.093670, 0.142180, 21.715622, 10.277573, -234.538132, 13.727848, 100.772408
1759228311.946690, 7.035362, 9.730185, -1.370830, -0.051828, -1.158724, 0.223488, 22.530380, 10.208450, -233.824829, 13.727848, 100.772408
1759228311.966089, 7.936629, 9.776573, -1.230021, 0.081572, -0.628123, 0.095059, 23.263367, 10.383774, -233.544800, 13.727848, 100.772408
1759228311.986671, 8.392425, 9.517101, -0.067935, -0.307729, 0.111371, -0.022568, 22.725601, 10.205688, -233.480774, 13.727848, 100.772408
1759228312.006675, 7.144148, 10.579079, 0.145897, -0.567594, 0.471714, -0.142013, 22.527328, 9.963425, -233.709106, 13.727848, 100.772408
1759228312.026672, 6.534225, 9.596708, -0.123152, -0.767752, 0.938449, 0.031831, 22.279663, 9.459198, -233.593948, 13.727848, 100.772408
1759228312.046680, 6.324583, 10.089465, 0.242413, -0.787145, 1.167185, 0.293694, 22.017212, 9.311478, -234.209106, 13.727844, 100.772406
1759228312.066680, 5.232528, 8.959252, -0.655413, -0.452649, 1.035319, -0.035535, 21.467667, 9.068527, -234.335236, 13.727844, 100.772406
1759228312.086750, 2.677466, 7.760505, -1.647061, -0.085375, 1.046359, -0.345069, 20.841934, 8.765381, -234.607986, 13.727844, 100.772406
1759228312.106692, 1.542614, 7.054216, -0.114772, -0.137950, 1.072233, -0.811379, 20.228989, 8.624771, -234.948181, 13.727844, 100.772406
1759228312.126669, 0.941819, 6.706458, 0.332644, -0.389516, 0.687165, -1.273428, 19.331253, 8.479370, -233.955292, 13.727844, 100.772406
1759228312.146687, 1.179593, 6.757634, 1.240945, -0.941219, 0.226864, -2.091827, 19.078445, 7.459045, -234.548401, 13.727844, 100.772406
1759228312.166164, 1.259051, 4.810699, 0.561590, -0.894460, 1.417531, -3.004574, 18.137711, 6.360245, -234.342941, 13.727844, 100.772406
1759228312.185887, 2.410961, 4.634875, -0.905457, -0.220476, 2.424064, -3.244309, 16.856247, 4.837906, -235.230530, 13.727844, 100.772406
1759228312.205713, 3.465757, 6.316503, -0.551564, 0.131112, 2.158481, -3.200840, 16.192337, 3.776321, -235.959335, 13.727844, 100.772406
1759228312.226697, 2.828749, 6.507290, 0.957681, 0.299299, 1.416429, -2.974686, 14.526016, 2.405228, -236.668152, 13.727844, 100.772406
1759228312.246680, 1.870021, 5.536891, 0.902464, 1.555741, 1.417624, -2.172705, 14.159988, 2.107468, -237.113922, 13.727844, 100.772406
1759228312.266677, 1.215806, 4.106056, 1.147421, 2.069563, 0.601421, -1.201591, 13.534927, 2.272171, -237.644104, 13.727844, 100.772406
1759228312.286672, 1.034445, 3.182642, 1.685967, 1.716557, -0.479082, -0.759881, 13.367554, 2.735565, -237.751236, 13.727844, 100.772406
1759228312.306698, 0.197821, 2.447173, 1.099986, 0.916082, -1.715717, -0.915014, 14.432465, 2.874741, -237.247208, 13.727844, 100.772406
1759228312.326688, -0.081403, 18.906711, 1.427692, 0.127624, -2.447781, -1.731671, 15.342606, 2.427002, -235.873993, 13.727844, 100.772406
1759228312.346681, 0.098462, 41.512165, 4.804714, -0.744663, -5.834863, -2.894521, 17.363358, 1.203644, -235.163620, 13.727844, 100.772406
1759228312.366453, 2.473510, 34.191444, 4.923376, -1.420431, -7.730950, -1.142115, 20.574860, 0.190765, -232.702621, 13.727844, 100.772406
1759228312.386069, 2.180968, 13.404686, 2.155081, -1.531974, -7.180535, 0.192575, 24.615417, -0.891312, -231.140610, 13.727844, 100.772406
1759228312.406684, -0.564433, 5.735609, -8.224083, -0.647796, -3.399783, 0.213176, 27.262100, -1.403503, -230.388763, 13.727844, 100.772406
1759228312.426689, -0.879719, 7.205200, -3.633800, 0.423659, 0.639968, -0.075488, 27.562012, -1.130814, -230.476685, 13.727844, 100.772406
1759228312.446684, -0.300772, 8.862437, -0.359430, 0.847781, 2.034045, 0.189349, 26.135468, -0.968155, -230.909531, 13.727844, 100.772406
1759228312.466683, -0.457741, 9.978284, 1.260996, 0.984322, 1.965896, 0.643326, 25.210007, -0.160751, -231.121857, 13.727844, 100.772406
1759228312.486676, -1.430685, 10.524462, 1.985092, 0.748889, 1.646638, 0.588861, 24.959778, 0.166092, -231.539413, 13.727844, 100.772406
1759228312.506705, -1.724424, 10.375123, 1.837999, 0.418303, 1.038680, 0.311763, 23.424667, 0.559189, -231.588913, 13.727844, 100.772406
1759228312.526625, -1.307982, 10.075998, 1.603666, 0.046182, 0.417798, 0.016323, 23.524033, 0.791992, -231.629883, 13.727844, 100.772406
1759228312.546716, -0.401777, 9.700707, 0.708085, -0.298028, -0.076639, -0.109404, 22.820648, 0.400635, -231.673096, 13.727844, 100.772406
1759228312.566679, 0.377835, 9.796924, -0.152630, -0.503554, -0.415495, -0.173957, 23.237808, 0.562683, -231.894852, 13.727844, 100.772406
1759228312.586566, 1.000477, 9.595511, -0.757017, -0.399858, -0.679931, -0.131588, 23.586456, 0.323685, -231.827957, 13.727844, 100.772406
1759228312.606684, 1.367089, 9.608829, -0.535553, -0.197026, -0.687799, 0.007824, 23.838745, -0.111176, -231.976318, 13.727844, 100.772406
1759228312.626712, 1.373972, 9.537003, 0.104148, -0.048459, -0.641598, 0.168539, 23.938751, 0.113708, -231.624969, 13.727844, 100.772406
1759228312.646488, 0.962020, 9.643844, 0.547075, 0.039430, -0.566880, 0.205863, 24.565567, 0.144379, -230.918915, 13.727844, 100.772406
1759228312.666690, 0.820613, 9.664045, 0.918775, 0.047047, -0.472635, 0.116037, 24.776230, 0.145767, -231.096298, 13.727844, 100.772406
1759228312.686680, 0.993444, 9.764452, 1.143680, 0.053213, -0.475204, 0.031350, 25.374054, 0.261551, -231.222977, 13.727844, 100.772406
1759228312.706691, 1.203386, 9.902418, 1.178695, -0.027931, -0.349159, 0.057315, 25.216949, -0.236511, -231.254578, 13.727844, 100.772406
1759228312.726675, 1.070507, 9.949554, 0.808642, -0.112662, -0.113683, 0.133308, 25.692886, 0.057495, -230.956024, 13.727844, 100.772406
1759228312.746684, 0.694169, 10.002376, 0.053570, -0.090313, 0.135383, 0.178306, 25.595932, -0.074493, -230.893417, 13.727844, 100.772406
1759228312.766689, 0.087688, 10.022727, -0.707936, 0.065090, 0.271906, 0.199352, 25.683609, 0.258438, -230.658859, 13.727844, 100.772406
1759228312.786708, -0.186299, 9.944766, -0.615459, 0.228575, 0.205112, 0.151890, 25.252121, 0.223495, -231.147751, 13.727844, 100.772406
1759228312.806687, -0.227898, 9.782109, -0.064344, 0.307447, -0.090882, 0.125599, 25.508942, 0.258575, -231.345764, 13.727844, 100.772406
1759228312.826701, -0.232238, 9.460837, 0.316783, 0.335433, -0.387045, 0.079470, 25.719620, 1.175034, -231.086243, 13.727844, 100.772406
1759228312.846682, -0.169539, 9.448717, 0.693421, 0.298626, -0.498148, 0.000581, 25.912598, 0.980942, -230.795517, 13.727844, 100.772406
1759228312.866685, 0.111480, 9.639954, 0.887201, 0.214625, -0.453210, -0.048784, 26.174850, 1.348114, -230.773315, 13.727844, 100.772406
1759228312.886680, 0.492008, 9.661202, 0.839766, 0.119485, -0.279232, -0.046559, 26.049423, 1.008408, -230.590790, 13.727844, 100.772406
1759228312.906693, 0.782156, 9.863812, 0.705990, 0.007622, 0.012023, -0.034471, 26.220596, 1.458694, -230.890961, 13.727844, 100.772406
1759228312.926697, 1.078289, 9.789292, 0.252289, -0.063692, 0.283105, 0.023390, 26.339249, 1.138367, -230.911026, 13.727844, 100.772406
1759228312.946691, 0.989553, 9.859023, -0.141707, -0.042710, 0.409495, 0.073863, 25.971954, 1.086212, -231.125870, 13.727844, 100.772406
1759228312.966691, 0.595408, 9.653720, -0.209642, -0.007668, 0.394787, 0.103910, 25.512711, 1.407898, -230.774933, 13.727844, 100.772406
1759228312.986686, 0.263811, 9.646388, -0.246303, -0.000708, 0.254886, 0.101339, 25.619553, 0.911835, -230.764221, 13.727844, 100.772406
1759228313.006686, 0.107739, 9.790190, -0.146046, 0.078053, 0.205789, 0.133075, 25.347504, 1.141586, -230.892212, 13.727844, 100.772406
1759228313.026709, 0.196175, 9.679009, -0.019154, 0.202118, 0.377685, 0.075377, 25.042343, 1.186218, -231.276917, 13.727844, 100.772406
1759228313.046697, 0.520440, 9.851691, 0.167145, 0.238282, 0.485896, 0.097363, 25.360535, 1.210373, -230.833252, 13.727850, 100.772406
1759228313.066163, 0.658854, 9.927108, 0.166846, 0.081725, 0.623853, 0.060244, 24.603790, 1.458878, -231.318207, 13.727850, 100.772406
1759228313.086691, 1.000477, 9.861567, 0.103549, -0.060375, 0.625523, 0.024119, 24.740982, 1.101593, -231.169830, 13.727850, 100.772406
1759228313.106703, 1.103577, 9.750087, -0.073472, 0.013649, 0.483601, 0.006914, 24.499649, 1.418182, -231.584793, 13.727850, 100.772406
1759228313.126116, 1.444153, 9.732879, 0.048483, 0.036511, 0.339244, -0.029824, 24.026428, 1.726746, -231.001923, 13.727850, 100.772406
1759228313.146712, 1.542913, 9.514557, 0.150386, -0.062077, 0.129149, -0.062542, 23.906815, 1.593399, -231.561905, 13.727850, 100.772406
1759228313.166732, 1.597830, 9.339481, 0.038607, -0.172817, -0.219627, -0.003798, 24.429825, 1.597992, -231.185028, 13.727850, 100.772406
1759228313.186714, 1.570297, 9.632621, -0.183007, -0.188774, -0.420360, 0.050073, 24.410660, 1.448166, -231.314621, 13.727850, 100.772406
1759228313.206877, 1.249025, 9.775675, 0.005986, 0.038036, -0.062194, 0.097934, 24.449738, 1.387711, -231.509018, 13.727850, 100.772406
1759228313.226723, 1.094300, 9.960178, 0.459088, 0.041123, 0.125552, 0.125504, 24.444809, 1.389801, -231.349625, 13.727850, 100.772406
1759228313.246763, 0.727837, 9.866505, 0.550367, 0.035043, 0.247042, 0.116951, 24.652512, 1.733429, -231.476105, 13.727850, 100.772406
1759228313.266707, 0.463278, 9.707590, 0.359430, 0.058739, 0.304400, 0.082817, 23.927979, 1.398712, -231.173218, 13.727850, 100.772406
1759228313.286703, 0.283713, 9.739163, 0.204854, 0.115357, 0.263066, 0.021706, 24.208191, 1.428940, -231.429764, 13.727850, 100.772406
1759228313.306760, 0.486472, 9.743353, 0.322170, 0.158065, 0.060653, -0.022340, 23.694168, 1.746216, -231.747284, 13.727850, 100.772406
1759228313.326701, 0.923264, 9.831939, 0.687286, 0.138802, -0.147869, -0.049049, 23.684189, 1.554337, -231.443100, 13.727850, 100.772406
1759228313.346705, 1.311574, 9.821015, 0.766145, 0.132063, -0.226785, -0.038380, 23.813339, 1.867905, -231.840240, 13.727850, 100.772406
1759228313.366714, 1.645864, 9.857228, 0.669778, 0.157333, -0.105157, 0.005311, 24.215042, 2.064240, -231.374268, 13.727850, 100.772406
1759228313.385809, 1.888427, 9.894936, 0.536451, 0.179184, 0.105507, 0.077027, 24.472275, 1.858887, -231.540482, 13.727850, 100.772406
1759228313.406720, 1.845331, 9.445574, 0.309899, 0.238639, 0.220842, 0.154965, 24.056732, 2.237076, -231.646469, 13.727850, 100.772406
1759228313.426705, 1.623119, 9.102306, 0.151733, 0.300149, 0.263296, 0.229899, 24.379089, 2.470154, -231.146286, 13.727850, 100.772406
1759228313.446729, 1.120935, 9.471312, -0.112378, 0.331005, 0.264331, 0.237505, 23.970551, 2.588821, -232.098755, 13.727850, 100.772406
1759228313.466692, 0.832434, 9.787347, -0.546925, 0.412042, 0.121451, 0.219184, 23.600586, 2.813187, -232.045822, 13.727850, 100.772406
1759228313.485962, 0.976086, 9.875932, -0.825850, 0.544572, -0.107002, 0.196131, 23.896027, 3.046463, -232.753006, 13.727850, 100.772406
1759228313.506699, 1.153706, 9.371354, -0.661847, 0.619755, -0.243771, 0.183091, 23.774277, 3.231720, -232.226425, 13.727850, 100.772406
1759228313.526708, 0.826897, 9.350255, -0.717961, 0.642935, -0.203164, 0.144774, 24.153641, 3.801987, -232.087341, 13.727850, 100.772406
1759228313.546741, 0.430058, 9.714922, -0.727538, 0.602288, -0.097908, 0.043126, 24.097382, 3.913712, -232.341415, 13.727850, 100.772406
1759228313.566698, 0.705541, 9.896433, 0.047585, 0.515830, -0.140546, -0.074672, 24.607544, 3.971329, -232.099854, 13.727850, 100.772406
1759228313.586209, 1.380557, 9.988160, 0.589722, 0.354288, -0.266199, -0.121831, 24.650208, 4.611694, -232.169250, 13.727850, 100.772406
1759228313.606168, 2.157924, 10.025719, 0.434099, 0.162094, -0.383565, -0.107839, 24.529297, 4.712509, -231.944962, 13.727850, 100.772406
1759228313.626708, 2.569577, 9.421333, -0.321422, 0.128502, -0.535624, -0.017554, 24.463470, 5.052231, -232.008087, 13.727850, 100.772406
1759228313.646388, 2.192640, 9.307609, -0.886004, 0.181921, -0.640064, 0.092684, 25.319275, 4.855820, -231.773132, 13.727850, 100.772406
1759228313.666694, 1.327435, 9.294889, -1.208024, 0.247499, -0.507079, 0.155970, 25.346436, 4.744324, -231.834793, 13.727850, 100.772406
1759228313.686346, 0.581791, 9.502437, -1.207276, 0.283065, -0.204082, 0.195200, 25.510620, 5.018692, -231.943817, 13.727850, 100.772406
1759228313.706695, -0.070779, 9.378986, -1.431583, 0.333255, 0.048083, 0.216577, 25.933365, 5.399307, -232.324219, 13.727850, 100.772406
1759228313.726712, -0.622193, 9.266758, -2.028487, 0.415934, 0.187699, 0.205640, 25.784042, 5.572159, -231.864685, 13.727850, 100.772406
1759228313.746802, -1.057639, 9.791088, -2.065747, 0.426927, 0.345760, 0.125393, 25.375809, 5.613266, -232.128067, 13.727850, 100.772406
1759228313.766584, -0.958429, 10.237008, -1.439364, 0.367948, 0.513201, -0.002821, 25.094421, 6.205536, -232.363403, 13.727850, 100.772406
1759228313.786479, -0.174029, 10.399963, -1.074398, 0.198527, 0.581468, -0.106253, 24.896835, 5.980804, -232.601654, 13.727850, 100.772406
1759228313.806697, 0.969502, 10.270527, -1.421857, 0.120415, 0.448368, -0.121143, 24.689392, 5.932648, -233.008896, 13.727850, 100.772406
1759228313.826712, 1.591695, 9.922619, -1.854608, 0.102592, 0.316585, -0.089811, 24.604401, 6.338028, -231.739105, 13.727850, 100.772406
1759228313.846790, 1.690755, 9.637859, -1.487697, 0.059371, 0.367261, -0.054396, 24.569901, 6.091156, -232.536545, 13.727850, 100.772406
1759228313.866705, 1.761235, 9.449465, -1.027262, -0.024779, 0.497899, -0.032375, 24.251297, 6.549530, -232.042419, 13.727850, 100.772406
1759228313.886652, 1.925237, 9.320029, -1.206977, -0.061039, 0.558865, -0.014892, 23.842117, 6.432068, -232.800156, 13.727850, 100.772406
1759228313.906718, 1.906682, 9.323470, -1.581071, -0.056922, 0.523466, -0.002284, 23.450912, 6.224442, -232.270599, 13.727850, 100.772406
1759228313.926730, 1.733103, 9.421782, -1.863437, -0.058045, 0.493254, -0.012025, 23.024689, 5.910065, -232.574951, 13.727850, 100.772406
1759228313.946726, 1.702577, 9.620501, -1.839645, -0.050477, 0.335574, -0.044404, 23.176758, 6.045609, -233.123077, 13.727850, 100.772406
1759228313.966706, 1.680580, 9.670330, -1.578078, -0.060196, 0.093498, -0.078479, 22.886703, 6.021667, -232.840530, 13.727850, 100.772406
1759228313.986777, 1.680879, 9.607333, -1.275062, -0.097897, -0.017446, -0.086169, 23.098343, 5.893158, -233.236069, 13.727850, 100.772406
1759228314.006905, 1.657985, 9.563639, -1.399561, -0.104900, 0.023062, -0.056775, 23.160263, 5.828201, -233.486893, 13.727850, 100.772406
1759228314.026789, 1.443404, 9.402778, -1.646463, -0.093892, 0.064292, -0.038057, 22.734634, 6.016815, -233.715652, 13.727850, 100.772406
1759228314.046793, 1.227328, 9.487473, -1.674295, -0.070215, 0.073009, -0.062627, 22.652527, 5.911346, -232.963074, 13.727849, 100.772407
1759228314.066079, 1.341052, 9.587730, -1.639280, -0.048843, 0.021522, -0.080499, 22.708618, 5.927872, -233.032959, 13.727849, 100.772407
1759228314.085811, 1.489044, 9.644293, -1.399112, -0.068342, -0.028887, -0.082911, 22.681290, 5.647247, -233.175262, 13.727849, 100.772407
1759228314.105811, 1.682974, 9.594015, -1.199944, -0.081300, -0.020186, -0.061938, 22.668869, 5.552551, -232.411530, 13.727849, 100.772407
1759228314.126728, 1.665167, 9.578602, -0.785448, -0.107217, 0.022514, -0.041441, 22.970718, 5.962677, -233.110657, 13.727849, 100.772407
1759228314.146707, 1.444302, 9.585486, -0.823007, -0.155078, 0.077545, -0.020048, 22.858551, 5.458160, -232.935425, 13.727849, 100.772407
1759228314.166709, 1.284639, 9.665392, -1.130662, -0.183489, 0.066022, -0.020399, 22.796631, 5.519485, -233.190247, 13.727849, 100.772407
1759228314.186699, 1.458368, 9.602694, -1.701679, -0.169165, -0.108182, -0.022437, 22.904373, 5.105850, -232.818405, 13.727849, 100.772407
1759228314.206711, 1.528548, 9.579650, -1.359607, 0.014129, 0.119344, -0.042483, 22.724350, 5.363022, -232.384506, 13.727849, 100.772407
1759228314.226176, 1.410484, 9.591770, -0.850839, 0.001570, 0.214460, -0.047926, 22.521164, 5.851929, -232.844925, 13.727849, 100.772407
1759228314.246718, 1.351078, 9.627683, -1.006463, -0.021986, 0.181191, -0.068828, 22.908890, 5.396072, -233.211090, 13.727849, 100.772407
1759228314.266706, 1.400309, 9.577704, -1.251868, 0.006216, 0.125384, -0.070195, 22.891281, 5.746719, -233.100235, 13.727849, 100.772407
1759228314.286701, 1.532289, 9.651476, -1.122432, 0.007360, 0.044595, -0.068727, 22.691498, 5.282257, -233.223358, 13.727849, 100.772407
1759228314.306209, 1.586308, 9.732280, -0.842011, -0.016251, -0.041849, -0.056196, 22.404343, 5.403915, -233.314545, 13.727849, 100.772407
1759228314.326719, 1.513584, 9.643844, -0.956932, -0.033995, 0.015137, -0.036224, 22.657364, 5.239639, -232.989197, 13.727849, 100.772407
1759228314.346765, 1.286135, 9.637260, -1.140837, -0.025113, 0.065912, -0.013191, 22.814804, 5.400070, -233.431107, 13.727849, 100.772407
1759228314.366780, 0.886603, 9.673622, -0.950199, -0.033960, -0.054368, -0.024512, 22.956741, 5.181778, -232.771332, 13.727849, 100.772407
1759228314.386718, 0.656011, 9.699809, -0.832883, -0.046966, -0.117787, -0.069910, 22.775803, 5.488708, -232.751221, 13.727849, 100.772407
1759228314.406708, 0.728286, 9.670779, -0.886304, -0.040762, -0.131631, -0.099678, 22.677170, 5.036102, -232.362335, 13.727849, 100.772407
1759228314.426717, 0.804601, 9.713575, -0.965761, -0.032295, -0.104961, -0.098542, 22.763077, 5.169937, -233.202164, 13.727849, 100.772407
1759228314.446279, 0.754323, 9.685892, -0.830040, -0.052229, -0.064372, -0.092946, 22.767303, 5.244339, -233.234528, 13.727849, 100.772407
1759228314.466737, 0.741604, 9.647885, -0.870741, -0.064553, -0.007186, -0.093405, 23.047791, 5.119812, -233.160294, 13.727849, 100.772407
1759228314.486702, 0.832434, 9.656264, -1.005565, -0.049186, 0.057292, -0.096020, 22.849762, 5.032181, -232.778854, 13.727849, 100.772407
1759228314.506481, 0.824503, 9.729886, -0.989553, -0.025472, 0.112518, -0.099400, 22.927475, 5.111618, -233.058182, 13.727849, 100.772407
1759228314.526719, 0.786346, 9.759514, -0.935534, -0.027905, 0.140095, -0.102126, 22.685059, 5.174820, -233.495316, 13.727849, 100.772407
1759228314.546741, 0.742352, 9.700557, -1.046416, -0.052861, 0.049917, -0.122165, 22.395554, 5.248032, -233.609741, 13.727849, 100.772407
1759228314.566719, 0.827197, 9.656563, -0.971896, -0.045152, 0.074545, -0.129952, 22.639893, 5.068771, -232.981445, 13.727849, 100.772407
1759228314.586715, 0.754772, 9.723601, -0.944961, -0.059203, 0.064893, -0.135862, 22.341492, 5.117889, -233.646942, 13.727849, 100.772407
1759228314.606641, 0.814777, 9.709386, -0.936133, -0.084841, 0.063713, -0.158121, 22.008270, 4.749512, -233.933243, 13.727849, 100.772407
1759228314.626721, 1.101632, 9.656713, -0.938527, -0.131012, 0.057619, -0.171841, 22.093689, 4.572952, -234.187714, 13.727849, 100.772407
1759228314.646529, 1.394922, 9.658359, -1.076194, -0.141043, 0.070820, -0.172728, 22.439133, 4.641113, -233.770538, 13.727849, 100.772407
1759228314.666729, 1.570746, 9.744401, -1.058237, -0.121369, 0.155708, -0.177505, 21.899750, 4.276108, -233.971451, 13.727849, 100.772407
1759228314.686704, 1.666065, 9.735722, -0.909048, -0.143127, 0.199145, -0.170115, 22.148041, 4.095261, -233.800140, 13.727849, 100.772407
1759228314.706780, 1.521515, 9.749189, -0.828244, -0.203884, 0.176594, -0.164502, 21.908844, 4.302460, -234.156784, 13.727849, 100.772407
1759228314.726731, 1.560571, 9.721207, -0.758812, -0.268479, 0.118902, -0.184742, 22.340576, 3.663345, -233.293488, 13.727849, 100.772407
1759228314.746743, 1.816301, 9.630826, -0.642095, -0.328944, 0.087986, -0.209348, 21.803085, 3.617401, -233.654266, 13.727849, 100.772407
1759228314.766711, 2.085200, 9.548974, -0.590021, -0.376514, 0.107995, -0.178800, 21.718277, 3.625443, -233.250336, 13.727849, 100.772407
1759228314.786727, 2.056769, 9.611523, -0.738013, -0.417794, 0.242423, -0.099974, 21.754807, 3.207886, -233.090775, 13.727849, 100.772407
1759228314.806255, 1.661726, 9.589675, -1.123180, -0.397705, 0.397372, -0.051044, 21.447128, 2.957443, -233.402039, 13.727849, 100.772407
1759228314.826003, 1.283292, 9.514557, -1.700332, -0.316888, 0.472161, -0.064442, 20.995758, 2.885971, -233.036270, 13.727849, 100.772407
1759228314.845930, 1.473781, 9.463232, -2.434305, -0.252867, 0.383787, -0.081111, 20.970779, 2.648071, -233.588760, 13.727849, 100.772407
1759228314.866719, 1.816750, 9.294889, -3.319860, -0.113214, 0.130948, -0.100057, 20.963669, 2.706512, -233.987717, 13.727849, 100.772407
1759228314.886707, 2.511069, 9.385271, -3.668515, 0.113782, -0.127942, -0.070426, 21.054962, 2.211411, -233.027557, 13.727849, 100.772407
1759228314.906773, 3.484312, 9.778368, -4.004302, 0.276327, -0.290918, 0.081559, 21.502869, 2.372879, -234.029129, 13.727849, 100.772407
1759228314.926125, 4.261978, 10.106524, -4.507085, 0.560013, -0.171578, 0.283069, 20.961929, 2.966156, -233.243988, 13.727849, 100.772407
1759228314.946750, 5.099201, 10.458920, -4.030938, 0.869900, 0.111577, 0.641844, 21.440765, 3.087631, -233.088379, 13.727849, 100.772407
1759228314.966732, 4.803517, 10.779294, -3.780145, 1.362535, 0.619870, 1.053217, 20.990417, 3.917664, -233.449448, 13.727849, 100.772407
1759228314.986708, 4.854094, 12.161347, -2.843264, 1.469814, 1.110680, 1.267137, 20.690018, 4.651306, -233.495102, 13.727849, 100.772407
1759228315.006713, 4.945972, 13.449727, -1.543961, 1.413887, 1.372111, 1.267073, 20.402954, 5.184311, -233.859024, 13.727849, 100.772407
1759228315.026729, 3.859303, 12.701090, -1.035791, 1.471011, 0.663983, 1.191950, 19.937668, 6.241898, -234.572784, 13.727849, 100.772407
1759228315.046716, 2.529175, 11.941829, -0.642095, 1.477652, -0.275469, 1.190884, 20.333313, 7.232620, -234.280045, 13.727849, 100.772406
1759228315.066734, 3.248782, 12.163293, 0.328155, 1.092775, -0.351435, 1.279811, 20.288788, 8.378845, -235.115936, 13.727849, 100.772406
1759228315.086705, 3.421613, 11.173590, -2.941426, 1.112060, -0.548702, 1.381510, 20.563614, 9.293396, -235.228439, 13.727849, 100.772406
1759228315.106138, 1.336563, 10.860099, -4.047248, 1.331857, -1.712643, 1.471730, 21.226334, 9.603806, -235.316391, 13.727849, 100.772406
1759228315.126740, 1.016039, 10.773159, -1.773505, 1.361205, -2.758633, 1.442063, 23.416260, 11.445099, -234.579041, 13.727849, 100.772406
1759228315.146716, 3.558233, 10.471340, -1.180641, 1.379457, -1.758044, 1.445840, 24.245499, 11.439285, -235.091476, 13.727849, 100.772406
1759228315.166736, 5.887492, 10.168474, -1.323994, 1.345353, -0.371538, 1.454672, 25.166275, 13.022400, -235.011230, 13.727849, 100.772406
1759228315.186736, 4.722563, 9.469516, -4.504242, 1.516293, -1.123501, 1.484776, 25.421875, 13.237366, -235.245667, 13.727849, 100.772406
1759228315.206362, 2.735675, 9.034819, -5.170428, 1.599850, -1.873922, 1.495299, 26.589996, 14.341644, -234.760071, 13.727849, 100.772406
1759228315.226162, 2.179172, 8.317905, -3.525312, 1.434735, -1.862715, 1.431185, 27.724442, 15.249786, -235.476242, 13.727849, 100.772406
1759228315.246724, 2.613720, 7.816470, -3.343203, 1.416181, -1.484264, 1.405097, 28.822479, 15.889557, -235.563385, 13.727849, 100.772406
1759228315.266787, 2.444031, 7.387908, -3.579331, 1.414472, -1.375459, 1.319485, 30.466354, 17.257629, -235.732208, 13.727849, 100.772406
1759228315.286706, 2.319233, 6.535871, -3.763236, 1.297841, -1.311283, 1.296815, 31.754089, 17.645615, -236.471191, 13.727849, 100.772406
1759228315.305866, 2.470666, 5.498583, -3.598186, 1.097970, -1.224290, 1.225813, 32.127792, 17.931458, -236.872665, 13.727849, 100.772406
1759228315.326709, 2.713828, 4.485986, -3.671508, 0.897184, -1.321843, 1.122653, 33.485855, 18.776505, -237.103210, 13.727849, 100.772406
1759228315.346628, 2.852841, 4.135684, -3.614047, 0.678202, -1.370770, 1.021668, 34.353973, 18.605331, -237.257980, 13.727849, 100.772406
1759228315.366789, 2.555960, 3.865887, -3.558233, 0.432226, -1.469100, 0.905016, 35.277359, 18.913940, -237.755295, 13.727849, 100.772406
1759228315.386738, 2.490419, 3.663428, -3.862595, 0.233714, -1.398641, 0.812501, 36.282043, 18.850098, -237.488297, 13.727849, 100.772406
1759228315.405869, 1.771709, 3.256862, -4.493617, 0.036443, -1.389257, 0.761441, 37.213348, 19.101761, -237.240341, 13.727849, 100.772406
1759228315.426790, 1.840692, 2.699612, -5.086930, -0.175712, -1.154227, 0.761534, 37.988571, 18.747421, -237.040298, 13.727849, 100.772406
1759228315.446786, 2.360384, 2.306065, -5.526416, -0.429204, -0.800970, 0.720183, 38.460297, 18.558365, -236.874176, 13.727849, 100.772406
1759228315.466829, 3.070414, 2.479345, -6.470629, -0.442685, -0.362102, 0.620737, 38.836014, 18.301605, -237.596603, 13.727849, 100.772406
1759228315.486758, 2.853739, 4.118925, -12.101492, 0.211968, -0.179787, 0.462751, 39.254807, 18.290054, -236.616150, 13.727849, 100.772406
1759228315.506051, 7.247997, 9.331102, -11.997195, 0.507126, -1.191961, 0.873788, 39.886551, 17.858322, -236.922607, 13.727849, 100.772406
1759228315.526745, 5.623830, 8.838794, -6.877045, -0.463621, -0.544507, 0.120516, 39.705933, 17.749954, -236.578735, 13.727849, 100.772406
1759228315.546783, -0.622492, 4.849306, -4.948964, -0.603879, -0.542984, -0.336631, 40.297470, 17.556442, -236.587280, 13.727849, 100.772406
1759228315.566793, -3.637541, 6.130054, -8.830564, -0.208508, -0.542881, -0.344638, 40.360565, 17.605026, -235.867493, 13.727849, 100.772406
1759228315.586904, -2.363077, 6.103718, -8.334366, -0.776353, 0.051450, -0.228485, 39.687515, 17.513992, -235.714371, 13.727849, 100.772406
1759228315.606323, 2.520496, 4.690840, -8.680178, -1.083719, 1.394426, -0.443482, 39.557281, 16.806839, -235.497986, 13.727849, 100.772406
1759228315.626738, 1.492186, 6.964583, -7.772776, -1.458767, 1.111285, -0.751201, 38.565292, 16.208099, -233.727005, 13.727849, 100.772406
1759228315.646728, 1.434127, 9.341576, -3.811270, -1.731471, 1.168100, -0.879229, 37.822037, 15.262009, -233.987091, 13.727849, 100.772406
1759228315.666748, -0.780061, 9.505878, -5.535843, -1.627335, 1.698714, -0.964378, 36.672440, 14.256546, -232.600235, 13.727849, 100.772406
1759228315.686595, 1.107468, 10.700136, -3.388544, -1.890950, 2.715000, -1.120246, 34.209503, 13.539520, -231.838562, 13.727849, 100.772406
1759228315.706367, 0.068833, 11.441291, -2.138621, -1.849179, 3.441880, -1.296430, 32.180374, 12.359360, -231.355988, 13.727849, 100.772406
1759228315.726714, -0.825551, 11.354202, -1.910723, -1.882827, 4.225278, -1.469118, 29.582230, 11.075821, -230.775833, 13.727849, 100.772406
1759228315.746742, -0.343119, 10.785280, 0.265158, -1.925266, 4.739078, -1.462309, 26.726257, 10.424011, -230.934082, 13.727849, 100.772406
1759228315.766722, 1.632247, 10.657190, 0.667084, -1.879497, 4.346975, -1.229238, 24.352707, 9.041000, -230.575592, 13.727849, 100.772406
1759228315.786736, 3.581726, 11.081113, 0.783652, -1.625277, 3.997411, -1.169440, 21.585220, 8.049347, -231.240311, 13.727849, 100.772406
1759228315.806520, 5.306149, 11.695825, 0.606631, -1.377729, 4.292979, -1.126670, 19.158554, 7.079849, -232.348480, 13.727849, 100.772406
1759228315.826759, 7.125443, 11.387122, 3.158102, -1.389500, 3.097818, -1.152869, 18.396973, 6.784210, -232.441162, 13.727849, 100.772406
1759228315.846728, 9.802610, 10.562619, 1.016039, -1.315747, 1.616115, -0.976264, 16.563797, 4.968979, -233.578232, 13.727849, 100.772406
1759228315.866801, 9.196727, 9.132832, -2.152387, -0.876617, 1.054938, -1.026902, 15.987015, 4.617813, -233.481873, 13.727849, 100.772406
1759228315.886726, 6.354211, 7.489063, -1.065270, -0.420304, 0.438806, -1.358218, 15.557922, 3.688751, -233.810852, 13.727849, 100.772406
1759228315.906759, 4.676923, 6.681768, -0.246752, -0.441344, -0.359163, -1.160984, 15.328903, 3.071503, -233.490356, 13.727849, 100.772406
1759228315.926803, 2.593669, 6.827665, -1.039233, -0.337303, -1.952943, -1.052109, 16.111816, 2.538406, -232.231522, 13.727849, 100.772406
1759228315.946741, 1.901295, 8.937106, -1.695544, -0.397726, -3.140597, -0.927546, 17.857376, 1.803970, -231.700806, 13.727849, 100.772406
1759228315.966749, 1.916110, 9.055769, -2.182464, -0.645872, -1.740769, -0.723428, 18.636063, 1.307648, -230.868591, 13.727849, 100.772406
1759228315.986724, 3.322104, 8.192659, -0.246303, -0.804578, -0.344285, -0.259927, 18.650192, 1.101761, -230.738205, 13.727849, 100.772406
1759228316.006729, 2.751985, 8.483405, -0.426617, -0.992894, 0.852893, 0.058893, 18.187897, 0.454132, -231.267090, 13.727849, 100.772406
1759228316.026744, 2.452111, 7.417087, -0.785897, -1.119220, 1.512915, 0.010999, 17.644547, -0.157608, -231.361267, 13.727849, 100.772406
1759228316.046727, 1.609352, 7.053617, -2.331803, -0.680098, 1.471191, -0.380806, 16.569824, -1.135315, -231.629272, 13.727858, 100.772406
1759228316.066742, 2.067094, 8.389732, -1.366191, -0.266299, 0.714567, -0.731650, 15.858444, -1.541656, -232.443924, 13.727858, 100.772406
1759228316.086719, 4.408473, 9.923966, 1.410185, -0.463285, 0.300885, -0.685411, 15.989227, -1.890411, -232.259140, 13.727858, 100.772406
1759228316.106799, 4.901679, 11.773786, 2.140416, -1.001521, 0.753223, -0.782627, 15.304794, -3.241333, -232.285477, 13.727858, 100.772406
1759228316.126731, 5.430798, 13.577368, 0.133177, -1.071264, 0.485042, -1.209582, 15.180588, -3.663559, -233.060196, 13.727858, 100.772406
1759228316.146750, 7.460482, 13.420548, -1.748216, -0.823730, -0.040730, -1.112419, 15.541489, -4.844772, -232.979645, 13.727858, 100.772406
1759228316.166734, 8.602217, 13.335554, -1.742380, -0.813735, -0.186756, -0.761726, 15.187653, -5.553391, -232.580399, 13.727858, 100.772406
1759228316.186760, 11.158925, 15.265579, -2.030732, -0.795753, -0.394117, -0.130980, 15.399933, -5.839203, -231.666077, 13.727858, 100.772406
1759228316.206004, 9.851541, 15.748161, -3.339462, 0.129150, -0.147424, 0.350711, 15.219009, -5.458466, -232.171982, 13.727858, 100.772406
1759228316.226756, 6.287922, 17.676092, -3.220052, 1.059336, -0.205872, 0.693488, 14.746902, -4.893921, -231.810150, 13.727858, 100.772406
1759228316.246730, 1.752705, 17.425000, -5.837064, 1.649124, -0.812402, 0.856802, 14.778000, -3.758072, -231.369583, 13.727858, 100.772406
1759228316.266755, -0.438289, 13.583802, -6.727258, 2.319974, -1.877983, 0.796816, 15.132065, -1.897354, -230.102997, 13.727858, 100.772406
1759228316.286725, 1.603517, 12.372486, -7.586327, 3.189222, -1.653215, 0.949511, 15.983932, 0.292236, -229.476013, 13.727858, 100.772406
1759228316.306738, 2.653823, 10.414179, -1.863886, 3.409212, -0.562317, 1.089013, 16.203583, 2.568069, -229.389984, 13.727858, 100.772406
1759228316.326210, 3.132514, 14.494946, 2.207753, 2.813238, 1.101091, 1.315279, 15.159622, 4.759186, -229.724487, 13.727858, 100.772406
1759228316.346738, 0.826448, 12.305748, 5.675904, 2.334563, 1.406823, 1.469764, 14.408951, 7.097488, -230.803162, 13.727858, 100.772406
1759228316.366760, -0.836773, 10.056545, 6.008249, 1.701998, 1.037336, 1.144876, 13.982849, 8.247345, -231.404816, 13.727858, 100.772406
1759228316.386729, 0.209044, 9.665093, 3.672705, 1.509623, 0.368123, 1.808682, 13.870728, 10.338623, -232.027618, 13.727858, 100.772406
1759228316.406802, -0.846051, 9.480141, 3.888632, 1.063475, 0.178795, 2.248968, 13.731552, 12.220047, -232.183212, 13.727858, 100.772406
1759228316.426449, 6.527940, 10.931775, -8.933963, 2.070544, 0.044802, 2.928884, 14.842346, 14.282028, -232.768188, 13.727858, 100.772406
1759228316.446734, 6.539463, 10.556783, -5.859958, 2.182789, 0.850633, 3.472788, 15.741928, 17.061554, -234.084366, 13.727858, 100.772406
1759228316.466733, 1.056890, 10.068815, 4.029142, 0.743589, -2.471110, 2.760365, 18.084061, 18.439407, -233.262772, 13.727858, 100.772406
1759228316.486732, 0.784849, 8.088361, 3.234267, 1.677802, -1.407250, 2.135212, 19.087906, 20.360764, -233.484863, 13.727858, 100.772406
1759228316.506735, 1.472434, 5.280711, 2.591723, 1.752040, -1.649759, 1.655429, 20.829834, 21.556671, -234.224411, 13.727858, 100.772406
1759228316.526727, -0.965911, 4.365827, 1.267281, 1.350185, -2.464974, 1.036864, 22.168213, 23.332932, -234.282364, 13.727858, 100.772406
1759228316.546756, -3.080889, 1.547851, 3.103035, 0.810145, -2.739831, 0.507837, 24.017029, 23.522232, -233.692566, 13.727858, 100.772406
1759228316.565973, -4.152743, -1.838148, 2.051382, -0.003707, -2.530582, -0.045344, 25.028183, 23.329468, -233.726990, 13.727858, 100.772406
1759228316.586752, -5.331887, -4.121469, -0.811934, -0.754138, -1.414826, -0.700022, 25.188370, 23.083069, -233.230438, 13.727858, 100.772406
1759228316.606101, -5.390545, -5.258864, -1.593491, -1.785511, -0.103301, -1.456535, 24.228027, 21.384659, -231.841171, 13.727858, 100.772406
1759228316.626803, -3.605219, -3.451990, -4.768202, -2.257294, 1.511711, -2.128513, 22.195969, 20.053970, -231.372482, 13.727858, 100.772406
1759228316.646737, 5.769427, 0.256628, -24.595334, -0.462099, 2.079661, -1.496478, 20.459335, 19.143539, -230.973602, 13.727858, 100.772406
1759228316.666757, 4.809652, 21.504121, 14.826992, -3.211563, 3.529115, -0.999779, 17.908386, 17.105484, -231.295273, 13.727858, 100.772406
1759228316.686746, -0.600346, 45.022513, -4.972757, -2.258348, 4.635337, -2.737764, 14.491898, 15.251938, -231.844131, 13.727858, 100.772406
1759228316.706821, 9.113379, 19.717747, -4.714183, -0.269743, 1.740949, -0.431011, 13.532837, 15.203766, -232.021423, 13.727858, 100.772406
1759228316.726731, 3.722535, 6.121225, 0.866102, -0.876020, 3.319595, -0.123840, 12.352219, 14.887497, -232.986618, 13.727858, 100.772406
1759228316.746752, 2.514660, 4.176535, -0.672621, -1.403141, 3.709053, -0.434377, 10.527008, 13.872879, -234.646851, 13.727858, 100.772406
1759228316.766750, 0.544382, 4.464887, -3.468001, -1.262985, 2.654794, -1.327721, 8.661789, 12.969101, -235.536743, 13.727858, 100.772406
1759228316.786752, 1.776797, 8.588301, -0.152780, -1.025365, 1.861752, -1.635220, 6.812469, 11.964966, -236.393646, 13.727858, 100.772406
1759228316.806309, 3.290381, 12.197111, 1.450437, -0.505272, 0.960634, -1.615823, 5.867889, 10.618820, -236.823944, 13.727858, 100.772406
1759228316.826762, 4.022408, 12.873323, 1.574487, 0.085310, 0.309483, -1.707568, 5.471237, 9.747864, -236.483643, 13.727858, 100.772406
1759228316.846748, 6.566397, 12.414983, 0.683694, 0.105305, 0.347834, -1.419113, 5.530792, 9.156799, -237.444031, 13.727858, 100.772406
1759228316.866743, 7.734917, 10.030807, 0.831686, -0.473366, 0.093012, -1.001837, 5.228592, 8.511520, -237.395721, 13.727858, 100.772406
1759228316.886752, 6.239888, 7.502530, 1.734599, -1.111927, -0.292660, -0.725402, 4.971252, 7.605347, -236.831894, 13.727858, 100.772406
1759228316.906741, 4.245069, 6.853402, 0.280720, -0.991177, -0.023039, -0.776738, 4.731934, 6.610138, -236.588257, 13.727858, 100.772406
1759228316.926731, 4.120122, 6.365584, -0.660500, -0.723706, 0.068617, -0.669441, 4.389908, 5.710617, -235.937439, 13.727858, 100.772406
1759228316.946746, 3.263746, 6.449231, -1.577779, -0.352118, -0.212710, -0.577872, 4.412552, 5.511093, -236.234283, 13.727858, 100.772406
1759228316.966746, 3.178153, 6.692841, -2.100912, -0.103267, -0.858629, -0.431771, 4.719727, 4.862930, -235.892929, 13.727858, 100.772406
1759228316.986736, 3.129670, 6.893206, -1.343297, -0.117963, -1.176688, -0.352649, 4.946136, 4.674438, -235.367279, 13.727858, 100.772406
1759228317.006768, 2.426224, 6.852804, -0.462231, -0.445275, -1.078025, -0.400223, 5.303177, 4.391647, -234.751617, 13.727858, 100.772406
1759228317.026757, 2.737171, 7.516596, 0.607828, -0.952122, -0.683915, -0.370514, 5.622971, 3.738190, -234.015640, 13.727858, 100.772406
1759228317.046753, 2.193837, 8.827122, -1.585111, -0.628587, 0.426286, -0.768620, 5.833084, 3.124863, -233.792007, 13.727860, 100.772408
1759228317.066755, 3.828777, 9.174880, -0.160711, -0.393543, 0.983415, -0.853094, 5.163345, 2.441010, -234.428757, 13.727860, 100.772408
1759228317.086738, 5.012710, 10.567108, 1.011401, -0.530263, 0.639927, -0.750655, 4.546555, 2.319321, -234.752472, 13.727860, 100.772408
1759228317.106742, 6.030994, 11.950658, 1.403301, -0.813664, -0.069853, -0.861413, 4.662247, 0.912704, -234.961502, 13.727860, 100.772408
1759228317.126755, 6.611438, 12.472294, 0.750433, -0.960356, -0.493526, -0.939324, 4.960999, 0.401871, -233.812302, 13.727860, 100.772408
1759228317.146749, 6.735189, 11.484237, -0.738462, -0.955299, -0.435149, -0.757653, 4.834595, -0.989075, -234.370621, 13.727860, 100.772408
1759228317.166752, 6.507739, 11.252149, -2.210147, -0.862885, -0.536583, -0.558713, 5.139603, -1.446075, -233.845001, 13.727860, 100.772408
1759228317.186739, 7.941866, 13.738977, -2.397194, -0.444299, -0.863598, -0.308046, 5.024780, -1.858948, -233.265030, 13.727860, 100.772408
1759228317.206759, 9.916933, 17.032201, -2.766949, 0.436667, -1.100942, 0.375822, 5.573959, -1.690002, -233.022903, 13.727860, 100.772408
1759228317.226533, 10.120889, 20.274848, -3.544915, 1.293409, -0.904329, 1.247746, 6.094116, -0.077927, -231.922501, 13.727860, 100.772408
1759228317.246527, 3.874267, 18.039861, -6.583007, 2.255165, -0.732107, 1.440584, 6.103226, 1.775391, -232.115845, 13.727860, 100.772408
1759228317.266762, -1.097891, 13.818733, -9.209446, 3.201416, -0.570142, 1.395030, 6.391510, 4.513840, -232.383911, 13.727860, 100.772408
1759228317.286764, -0.718111, 12.062138, -6.977452, 3.352119, 0.396201, 1.383855, 6.613678, 7.180557, -232.552231, 13.727860, 100.772408
1759228317.306742, 0.324115, 9.840917, -1.108515, 2.437175, 1.708930, 1.213797, 5.688904, 9.371384, -233.450928, 13.727860, 100.772408
1759228317.325798, 2.098218, 12.095208, 2.188600, 1.743098, 2.414160, 1.397938, 5.165527, 11.174896, -235.607193, 13.727860, 100.772408
1759228317.346745, 0.762853, 11.211298, 3.593248, 1.732656, 1.073025, 1.033565, 4.926697, 12.959671, -236.720886, 13.727860, 100.772408
1759228317.366767, 1.541417, 10.521618, 6.380996, 1.066792, -0.592291, 1.345411, 5.151001, 14.400726, -237.282074, 13.727860, 100.772408
1759228317.386741, 2.416049, 9.820267, 5.641637, 0.224802, -0.368414, 1.816304, 5.642151, 15.786560, -237.158722, 13.727860, 100.772408
1759228317.406759, 3.226486, 8.576030, 3.707571, 0.304384, -0.726462, 2.071355, 6.600784, 17.308121, -236.260254, 13.727860, 100.772408
1759228317.426088, 4.685602, 8.617630, -2.617162, 1.681838, -0.796816, 2.465141, 8.148804, 19.280930, -236.752869, 13.727860, 100.772408
1759228317.446764, 7.100604, 9.421632, -5.520131, 2.016369, -0.673095, 2.517522, 9.383057, 21.371429, -237.885132, 13.727860, 100.772408
1759228317.466824, 4.579958, 7.963713, -3.627515, 0.604275, -2.363925, 1.763310, 11.178833, 23.001572, -237.509445, 13.727860, 100.772408
1759228317.486769, 0.995539, 6.992864, 0.863858, 0.552264, -4.028777, 1.370755, 13.426086, 24.274887, -235.403320, 13.727860, 100.772408
1759228317.506798, 1.015291, 6.222231, 1.765724, 1.402154, -3.100759, 1.257877, 15.885056, 25.248093, -235.777283, 13.727860, 100.772408
1759228317.526299, 0.030376, 4.535516, 1.831265, 1.287961, -2.626191, 0.910418, 17.502487, 26.168701, -234.954300, 13.727860, 100.772408
1759228317.546904, -0.038906, 3.586215, -0.174178, 0.937424, -2.506926, 0.717426, 19.368057, 26.937836, -235.319321, 13.727860, 100.772408
1759228317.566792, -0.590320, 3.243694, -0.130634, 0.411811, -2.389176, 0.660821, 20.914795, 27.545425, -235.117188, 13.727860, 100.772408
1759228317.586792, -1.691055, 2.187402, 0.136170, -0.356040, -2.036795, 0.401806, 21.929977, 27.853058, -233.914261, 13.727860, 100.772408
1759228317.606820, -2.290802, 1.609801, 0.529418, -1.068170, -1.110172, -0.192866, 22.157028, 26.969894, -233.336441, 13.727860, 100.772408
1759228317.626421, -2.549226, 1.421557, 0.429161, -1.644256, -0.117413, -0.814001, 22.102432, 26.302994, -232.394241, 13.727860, 100.772408
1759228317.646768, -5.055058, 1.086219, -4.270807, -1.889599, 0.853215, -1.353454, 21.002747, 24.708130, -231.746902, 13.727860, 100.772408
1759228317.666776, -5.504270, 2.592172, -14.384364, -1.401491, 1.754149, -1.559743, 19.155411, 23.544373, -231.768494, 13.727860, 100.772408
1759228317.686780, 7.183353, 15.261090, 2.902670, -2.354850, 3.713272, -0.670663, 16.680878, 22.241379, -230.611328, 13.727860, 100.772408
1759228317.706748, 4.728249, 26.625019, 4.875343, -2.466452, 5.421305, -1.141271, 13.648315, 20.981842, -232.064957, 13.727860, 100.772408
1759228317.726556, 11.490223, 26.638037, -6.536470, -0.641378, 4.607697, -0.258110, 10.625916, 20.248627, -233.492798, 13.727860, 100.772408
1759228317.746755, 5.865644, 9.358785, -4.030040, -0.016772, 1.828302, -0.209624, 9.454987, 20.060699, -234.774277, 13.727860, 100.772408
1759228317.766817, 4.164415, 6.733543, -2.279430, -0.598278, 1.561351, -0.336811, 8.696365, 19.397614, -234.968796, 13.727860, 100.772408
1759228317.786755, 0.936282, 7.779659, -1.645415, -1.119005, 1.773960, -0.854423, 7.332642, 18.644882, -235.421432, 13.727860, 100.772408
1759228317.806820, 0.486771, 8.249970, -0.745195, -1.157744, 1.792430, -1.536956, 6.054184, 16.993164, -235.942719, 13.727860, 100.772408
1759228317.826897, 2.169147, 10.894366, -0.288352, -0.978037, 1.922947, -1.868363, 4.543762, 15.759384, -236.488235, 13.727860, 100.772408
1759228317.846848, 3.747075, 13.165416, 0.400580, -0.750544, 1.919295, -1.729051, 3.467880, 14.470901, -237.709351, 13.727860, 100.772408
1759228317.866868, 4.682460, 11.959935, 0.155324, -0.152661, 1.071705, -1.533258, 2.462814, 13.438522, -238.530228, 13.727860, 100.772408
1759228317.886753, 5.699547, 10.738593, -0.385616, 0.264103, 0.200430, -1.440274, 2.186493, 12.948212, -238.056076, 13.727860, 100.772408
1759228317.906773, 6.770353, 9.412654, 0.613065, -0.093201, -0.507167, -1.242498, 2.017456, 12.023636, -238.240356, 13.727860, 100.772408
1759228317.925936, 4.709993, 7.409456, 0.217723, -0.660262, -0.551962, -1.211072, 2.153381, 10.960373, -236.885132, 13.727860, 100.772408
1759228317.946840, 4.047398, 6.561160, 0.468815, -0.824833, -0.726225, -1.112345, 1.981186, 9.785324, -236.541397, 13.727860, 100.772408
1759228317.966807, 3.966743, 6.458658, 0.017508, -0.588604, -1.018636, -0.989056, 2.282578, 9.372696, -236.463150, 13.727860, 100.772408
1759228317.986936, 4.770447, 7.277026, 0.680851, -0.753551, -1.163345, -0.641329, 2.765564, 8.414963, -235.018066, 13.727860, 100.772408
1759228318.006823, 5.051766, 7.751826, 0.211288, -1.063297, -0.981251, -0.330409, 2.966705, 7.868530, -234.184631, 13.727860, 100.772408
1759228318.026957, 4.318092, 6.774992, -1.172860, -0.826018, -0.319148, -0.143936, 3.382874, 7.470993, -234.151810, 13.727860, 100.772408
1759228318.045924, 2.848651, 6.543952, -1.326537, -0.480900, 0.223824, -0.242855, 3.158646, 6.915726, -234.303604, 13.727846, 100.772404
1759228318.066779, 2.301127, 6.270713, -0.474052, -0.469892, 0.776952, -0.071954, 2.396606, 6.681732, -235.005402, 13.727846, 100.772404
1759228318.086775, 2.062605, 7.013066, -0.994940, -0.488449, 1.181788, 0.124386, 1.964020, 6.581787, -235.077484, 13.727846, 100.772404
1759228318.106858, 2.032677, 8.441506, 0.057461, -0.567174, 0.967792, 0.058074, 1.893539, 6.252426, -235.911331, 13.727846, 100.772404
1759228318.126772, 2.650082, 10.687417, 1.313968, -0.796850, 0.476673, -0.349359, 1.175812, 5.736969, -236.241074, 13.727846, 100.772404
1759228318.146857, 3.478326, 12.720693, 1.522114, -0.879563, 0.154263, -0.826563, 1.143921, 4.819031, -236.203079, 13.727846, 100.772404
1759228318.166829, 5.122694, 12.397924, 0.439186, -0.879931, -0.125382, -1.126253, 0.655472, 3.684952, -235.709076, 13.727846, 100.772404
1759228318.186939, 6.395212, 11.351509, -0.196025, -0.851612, -0.532648, -1.087426, 0.742233, 2.237610, -234.691299, 13.727846, 100.772404
1759228318.206823, 5.433940, 10.335320, -0.734721, -0.736458, -0.545545, -1.023645, 1.450821, 1.655762, -234.288834, 13.727846, 100.772404
1759228318.226934, 4.252102, 11.011233, -0.728436, -0.797524, -0.574596, -0.738377, 1.600677, 0.777191, -233.823456, 13.727846, 100.772404
1759228318.246249, 3.925743, 13.264176, -0.036811, -0.910871, -1.099317, -0.473831, 1.624390, 0.450943, -233.123581, 13.727846, 100.772404
1759228318.266792, 5.288193, 14.792425, -0.640898, -0.529542, -1.406770, -0.237377, 2.310379, -0.088943, -232.943878, 13.727846, 100.772404
1759228318.286778, 6.100725, 16.459688, -2.432808, 0.258933, -1.143741, 0.241297, 3.258392, 0.487503, -231.463120, 13.727846, 100.772404
1759228318.306881, 4.778378, 17.570298, -5.337124, 0.901130, -0.498172, 0.738969, 3.251938, 1.825073, -231.828217, 13.727846, 100.772404
1759228318.326770, 3.367445, 15.281740, -9.292794, 1.785109, -0.517778, 1.053598, 3.657806, 3.394409, -231.030975, 13.727846, 100.772404
1759228318.346702, 3.621080, 13.132046, -5.549161, 2.705077, -0.770866, 1.238929, 3.989975, 5.902954, -230.531555, 13.727846, 100.772404
1759228318.366835, 2.371906, 11.775582, -1.493832, 3.035377, -0.037909, 1.181069, 4.480164, 8.569839, -231.721710, 13.727846, 100.772404
1759228318.386941, 2.876035, 10.002975, 3.056947, 2.424278, 0.032092, 0.971476, 4.403229, 10.411118, -232.681061, 13.727846, 100.772404
1759228318.406804, 5.305701, 15.622764, 1.521964, 2.287884, 2.047489, 1.827132, 3.806412, 13.029938, -234.554108, 13.727846, 100.772404
1759228318.426859, -0.072724, 12.490849, 3.782240, 2.189592, 2.801403, 1.760857, 3.109879, 14.881104, -236.328888, 13.727846, 100.772404
1759228318.446543, 0.001646, 11.416751, 2.351256, 1.310920, 2.009213, 1.639017, 2.752441, 16.436539, -238.407944, 13.727846, 100.772404
1759228318.466831, 0.152032, 10.300903, -0.229993, 1.047961, 0.421681, 2.069349, 3.612839, 18.261688, -238.153275, 13.727846, 100.772404
1759228318.486768, 2.543989, 10.234314, -0.375291, 1.125597, -0.383128, 2.465076, 4.351089, 20.204910, -239.632645, 13.727846, 100.772404
1759228318.506793, 5.224298, 9.857826, -0.994192, 1.511872, -1.006895, 2.665707, 6.192551, 22.561356, -239.944107, 13.727846, 100.772404
1759228318.526757, 5.304204, 8.605808, 1.042675, 1.597467, -1.109541, 2.356563, 7.691238, 24.619858, -239.147186, 13.727846, 100.772404
1759228318.546771, 5.111172, 7.404518, 0.279822, 1.303073, -1.466001, 1.808097, 9.379227, 26.312775, -239.824036, 13.727846, 100.772404
1759228318.566774, 4.478803, 6.146065, -0.513407, 1.237363, -2.209132, 1.706759, 10.432236, 27.842911, -239.055527, 13.727846, 100.772404
1759228318.586937, 2.822464, 5.918915, -0.089633, 1.350990, -2.783366, 1.588433, 13.007782, 28.548813, -239.736740, 13.727846, 100.772404
1759228318.606780, 0.980426, 5.264999, 0.140510, 1.237656, -2.642013, 1.380172, 15.220657, 30.099182, -238.917084, 13.727846, 100.772404
1759228318.626836, -0.411054, 4.769399, 0.387711, 1.043326, -2.684153, 1.177266, 17.065872, 30.970245, -238.599030, 13.727846, 100.772404
1759228318.646841, -1.180940, 3.793164, 0.538845, 0.655021, -2.395990, 0.876393, 18.692276, 31.345322, -238.508530, 13.727846, 100.772404
1759228318.666809, -1.426795, 2.477999, 0.476745, 0.062649, -1.794132, 0.447340, 20.000427, 32.054596, -238.503784, 13.727846, 100.772404
1759228318.686770, -1.348983, 1.121833, 0.568623, -0.517321, -1.178650, -0.115840, 20.403229, 31.909027, -238.023941, 13.727846, 100.772404
1759228318.706892, -1.504456, 0.193182, -0.172682, -1.318805, -0.433742, -0.768081, 20.187637, 31.318192, -237.163406, 13.727846, 100.772404
1759228318.726771, -2.673874, 0.020051, -0.396390, -1.958405, 0.719632, -1.337821, 19.578262, 30.106842, -235.745163, 13.727846, 100.772404
1759228318.746848, -3.357868, -0.536301, -6.537517, -1.291903, 1.188280, -1.425651, 17.647659, 29.063889, -235.646988, 13.727846, 100.772404
1759228318.766775, 4.556615, 3.299509, -15.135095, -2.366073, 2.968751, -0.702564, 16.341049, 28.029541, -234.640457, 13.727846, 100.772404
1759228318.786771, 4.711490, 18.965668, 9.558401, -2.176266, 4.702567, -1.547240, 13.623886, 26.529358, -235.246490, 13.727846, 100.772404
1759228318.806773, 4.394856, 33.599777, -10.774506, -1.105159, 0.629331, -0.895753, 11.731583, 25.452469, -235.285034, 13.727846, 100.772404
1759228318.826783, 10.147824, 17.263840, -0.379780, -0.538006, 0.174115, -0.507569, 11.509644, 24.807312, -234.398819, 13.727846, 100.772404
1759228318.846802, 4.730494, 6.748207, -4.863222, -0.410599, 2.234319, -0.597288, 10.313171, 24.199387, -235.477936, 13.727846, 100.772404
1759228318.866875, 1.970578, 4.903026, -3.307440, -0.919107, 1.804474, -0.970668, 9.356552, 23.820618, -236.690643, 13.727846, 100.772404
1759228318.886828, -0.270096, 5.601833, -1.883040, -1.255199, 1.394679, -1.524595, 7.530899, 22.346558, -235.936752, 13.727846, 100.772404
1759228318.906772, -0.949151, 8.646510, -0.990900, -1.157431, 1.842315, -2.101841, 6.391174, 20.811951, -237.042877, 13.727846, 100.772404
1759228318.926771, 0.327407, 11.412261, -0.286706, -0.762622, 2.112239, -2.473718, 4.508530, 19.305038, -237.524918, 13.727846, 100.772404
1759228318.946844, 2.515857, 14.183999, 0.715567, -0.097582, 1.310027, -2.175376, 3.019791, 17.752655, -238.735382, 13.727846, 100.772404
1759228318.966839, 4.747552, 14.711022, 1.139790, 0.154843, 0.355376, -1.672445, 2.102234, 16.554245, -238.880798, 13.727846, 100.772404
1759228318.986777, 5.789180, 13.019818, 0.666486, -0.292121, -0.159412, -1.412281, 1.376404, 15.903259, -238.779480, 13.727846, 100.772404
1759228319.006842, 6.099528, 10.741137, 1.180641, -0.882621, -0.405229, -1.296550, 1.426331, 14.467026, -238.182755, 13.727846, 100.772404
1759228319.026761, 4.792743, 8.249671, 0.444124, -1.039760, -0.054660, -1.253353, 1.223038, 13.301987, -237.546661, 13.727846, 100.772404
1759228319.046797, 4.294599, 6.243779, -0.173879, -0.696298, -0.104631, -1.204335, 0.428665, 12.343796, -237.186005, 13.727846, 100.772401
1759228319.066767, 5.381716, 5.309741, -0.108038, -0.465913, -0.602777, -1.046721, 0.444916, 11.439026, -237.042023, 13.727846, 100.772401
1759228319.086839, 5.908590, 6.476315, -0.215179, -0.643066, -1.415023, -0.564306, 0.935333, 10.654968, -235.908188, 13.727846, 100.772401
1759228319.106953, 5.591658, 7.269245, 0.832883, -1.007299, -2.446317, -0.131484, 1.727524, 9.991531, -234.031570, 13.727846, 100.772401
1759228319.126813, 3.808127, 7.168389, -0.320823, -0.650299, -1.692161, 0.000101, 2.500458, 9.856232, -233.085953, 13.727846, 100.772401
1759228319.146838, 2.039112, 7.633313, 1.087416, -0.736291, 0.645958, 0.016107, 2.584656, 9.235397, -232.808182, 13.727846, 100.772401
1759228319.166850, 2.029236, 8.245780, 2.108394, -0.997512, 2.314859, 0.149926, 1.338455, 9.099335, -233.874176, 13.727846, 100.772401
1759228319.186802, 1.231667, 8.517672, 0.448314, -1.245371, 1.996327, 0.049374, 0.695526, 8.646729, -235.525208, 13.727846, 100.772401
1759228319.206842, -0.274735, 9.966014, -0.408211, -1.284234, 0.578416, -0.399453, -0.207870, 7.471985, -235.661011, 13.727846, 100.772401
1759228319.226805, 0.537349, 11.973851, 0.735020, -1.140027, 0.018231, -0.868804, -0.040894, 6.807938, -235.749466, 13.727846, 100.772401
1759228319.245827, 3.666421, 12.308291, 1.519271, -0.905461, 0.114849, -1.142432, -0.255142, 5.667053, -235.040848, 13.727846, 100.772401
1759228319.266986, 6.389675, 10.978312, 0.059107, -0.631036, 0.146632, -1.129080, -0.745041, 4.730637, -235.073853, 13.727846, 100.772401
1759228319.286834, 7.385214, 10.351181, -1.543811, -0.606960, -0.382661, -0.902449, -0.645798, 3.951004, -234.744675, 13.727846, 100.772401
1759228319.306831, 7.078457, 11.110592, -2.193837, -0.820006, -1.521782, -0.532822, -0.107666, 2.983459, -233.877670, 13.727846, 100.772401
1759228319.326812, 7.489661, 13.979295, -2.343475, -0.576016, -2.048192, -0.329956, 0.806732, 2.588287, -232.322159, 13.727846, 100.772401
1759228319.346183, 8.172757, 15.780782, -4.728399, 0.423293, -1.093419, -0.044920, 1.353195, 2.446915, -231.422958, 13.727846, 100.772401
1759228319.366802, 4.135385, 17.228974, -4.184915, 1.074230, -0.129213, 0.418861, 1.553680, 3.650269, -231.464691, 13.727846, 100.772401
1759228319.386793, 0.298826, 16.129437, -7.168240, 1.687192, -0.777938, 0.834441, 1.573914, 5.220261, -231.216309, 13.727846, 100.772401
1759228319.406794, 1.577031, 12.952930, -6.274754, 2.205062, -1.154288, 1.259650, 2.827576, 6.798401, -230.517746, 13.727846, 100.772401
1759228319.426809, 2.571971, 12.257115, -4.453664, 2.980587, 0.012554, 1.378127, 2.969772, 9.755615, -230.875397, 13.727846, 100.772401
1759228319.446194, 2.421585, 11.344476, -1.624466, 3.094406, 0.538442, 1.237308, 2.941864, 12.079926, -231.871780, 13.727846, 100.772401
1759228319.466869, 2.670133, 13.807211, 3.661483, 2.605053, 0.900291, 1.324049, 2.934799, 14.371552, -233.287170, 13.727846, 100.772401
1759228319.486783, -1.179893, 14.564228, 5.048922, 2.141536, 1.745716, 1.524292, 2.608459, 16.723633, -234.635727, 13.727846, 100.772401
1759228319.506814, -2.442834, 12.104934, 5.990293, 1.309395, 1.185532, 1.195166, 2.102005, 18.210480, -235.735931, 13.727846, 100.772401
1759228319.526831, 0.767940, 10.379912, 2.936039, 0.608668, 0.706012, 1.872525, 2.987076, 19.773254, -236.725464, 13.727846, 100.772401
1759228319.546380, 2.420089, 9.459940, -1.435623, 0.646713, 0.958566, 2.286108, 3.462646, 21.529724, -237.784622, 13.727846, 100.772401
1759228319.566793, 6.222829, 9.050830, -2.845060, 1.196849, -0.222282, 2.598145, 4.975830, 23.707901, -238.323837, 13.727846, 100.772401
1759228319.586888, 4.787805, 8.758588, -1.006463, 1.394433, -0.534937, 2.592127, 6.590607, 25.866562, -238.786972, 13.727846, 100.772401
1759228319.606788, 3.578733, 8.271069, 0.253935, 0.957827, -0.885744, 1.993079, 8.148895, 27.350708, -238.791931, 13.727846, 100.772401
1759228319.626837, 2.924517, 7.551611, 0.279074, 0.687139, -1.939726, 1.679964, 9.918945, 28.774261, -238.524307, 13.727846, 100.772401
1759228319.646524, 1.845929, 6.750302, 0.599598, 1.072808, -2.498126, 1.825979, 12.253067, 30.150681, -237.793869, 13.727846, 100.772401
1759228319.666813, 1.368137, 6.520907, 0.250643, 1.378835, -2.923860, 1.693629, 14.618484, 32.158249, -238.003922, 13.727846, 100.772401
1759228319.686839, 1.317559, 6.451176, -0.343867, 1.274163, -2.680666, 1.365001, 16.649216, 33.437210, -237.544418, 13.727846, 100.772401
1759228319.706978, 0.505925, 5.887940, -0.093972, 0.974649, -2.457052, 1.197703, 18.764359, 33.989471, -237.459000, 13.727846, 100.772401
1759228319.726904, -1.021127, 4.333655, 0.122852, 0.477894, -2.248443, 0.999516, 20.426086, 35.043579, -237.879471, 13.727846, 100.772401
1759228319.746845, -2.282273, 2.332701, 0.420931, -0.131014, -1.682145, 0.646338, 21.710327, 34.765274, -236.972748, 13.727846, 100.772401
1759228319.766858, -3.286341, -0.127042, 1.349432, -0.771623, -0.897537, -0.055791, 22.131699, 35.025131, -236.089417, 13.727846, 100.772401
1759228319.786826, -4.717924, -1.565958, -0.049829, -1.374346, -0.101401, -0.800265, 22.073441, 34.417404, -235.135590, 13.727846, 100.772401
1759228319.806840, -4.916194, -2.311452, -4.493767, -1.888271, 1.033478, -1.419564, 20.223602, 32.909912, -234.385544, 13.727846, 100.772401
1759228319.826838, 0.952743, 1.085172, -20.059370, -0.804666, 2.282676, -1.323629, 17.789444, 31.994995, -234.050842, 13.727846, 100.772401
1759228319.846805, 8.578873, 14.632463, 11.270854, -2.747245, 4.412328, -1.048419, 15.108978, 31.014160, -233.319183, 13.727846, 100.772401
1759228319.866793, 2.287061, 27.471519, -8.054094, -1.394882, 4.557453, -1.797590, 11.775528, 29.324814, -234.190735, 13.727846, 100.772401
1759228319.886841, 11.336994, 29.451673, -1.713799, -0.790736, 0.181153, -1.018813, 10.876266, 28.523865, -233.638382, 13.727846, 100.772401
1759228319.906986, 5.828684, 8.686613, -2.149245, -0.273738, 0.822758, -0.469197, 10.202988, 28.207031, -234.192825, 13.727846, 100.772401
1759228319.926793, 2.905214, 4.641609, -0.905158, -0.343896, 2.161625, -0.381136, 8.865189, 27.891083, -235.475449, 13.727846, 100.772401
1759228319.946802, 0.662745, 4.282479, -2.992602, -0.929111, 2.442246, -0.700295, 7.454498, 26.885101, -235.834671, 13.727846, 100.772401
1759228319.966786, -1.034744, 7.939921, -0.439336, -1.264425, 1.937804, -1.259847, 5.937973, 26.230286, -235.873093, 13.727846, 100.772401
1759228319.986779, -1.375020, 10.322451, -0.410755, -1.136691, 2.167499, -2.109526, 3.521317, 24.455307, -236.386108, 13.727846, 100.772401
1759228320.006787, 0.899322, 12.509704, 1.217152, -0.894863, 2.470513, -2.463794, 1.112366, 22.599625, -237.779190, 13.727846, 100.772401
1759228320.026734, 3.656395, 14.153922, 2.442535, -0.690369, 1.902686, -1.632184, -0.192795, 20.875000, -238.293533, 13.727846, 100.772401
1759228320.046680, 5.454889, 12.932580, 2.592771, -0.722065, 0.084798, -0.942070, -0.397705, 20.055908, -238.746689, 13.727846, 100.772401
1759228320.065922, 8.202385, 11.978191, -1.524658, -0.491911, 0.252024, -0.580421, -1.082458, 19.643829, -238.312546, 13.727846, 100.772401
1759228320.086860, 6.297199, 8.183082, -0.682647, -0.095342, 1.460279, -0.976147, -1.819534, 18.503586, -239.164581, 13.727846, 100.772401
1759228320.106918, 4.943428, 7.401076, 1.033697, -0.106047, 1.173119, -1.412995, -2.470383, 17.758972, -240.461639, 13.727846, 100.772401
1759228320.126789, 4.829853, 7.573907, 1.031003, -0.291974, 0.567532, -1.215104, -3.017487, 16.630127, -241.016571, 13.727846, 100.772401
1759228320.146807, 4.756680, 7.849241, 0.667084, -0.358095, -0.075926, -1.032267, -3.509415, 16.073746, -240.679245, 13.727846, 100.772401
1759228320.166076, 4.788553, 7.718008, 0.185700, -0.269803, -0.600625, -0.869696, -3.519119, 15.075211, -240.035782, 13.727846, 100.772401
1759228320.186823, 4.103512, 7.643190, -0.012121, -0.274793, -0.783128, -0.697119, -3.386520, 14.522690, -239.435257, 13.727846, 100.772401
1759228320.206809, 3.757400, 7.422923, 0.414795, -0.472043, -1.218569, -0.421452, -3.304855, 13.823257, -238.344040, 13.727846, 100.772401
1759228320.226849, 3.050662, 6.874950, 0.269497, -0.514567, -1.353211, -0.165456, -2.640396, 14.059387, -237.112930, 13.727846, 100.772401
1759228320.246796, 2.215534, 6.901885, -0.317980, -0.369512, 0.616210, -0.054605, -2.583206, 13.908401, -236.527267, 13.727846, 100.772401
1759228320.266241, 2.101511, 7.433847, 0.838419, -0.380188, 1.301072, -0.025225, -3.592285, 13.708145, -237.463730, 13.727846, 100.772401
1759228320.286822, 2.089539, 8.443601, 1.517774, -0.607406, 2.203597, 0.098286, -4.120361, 13.815857, -239.709000, 13.727846, 100.772401
1759228320.306873, 1.029656, 9.710134, 1.004817, -0.623996, 1.985247, -0.122146, -4.816238, 13.421097, -240.644867, 13.727846, 100.772401
1759228320.326807, 0.510115, 9.870396, 0.012420, -0.349385, 1.244150, -0.443365, -5.665375, 13.436737, -242.078827, 13.727846, 100.772401
1759228320.346802, 2.367267, 9.444228, 0.491410, -0.165522, 0.423549, -0.639058, -6.383759, 13.325623, -242.291946, 13.727846, 100.772401
1759228320.366448, 5.959916, 9.986963, 1.186028, -0.212507, -0.151860, -0.815423, -6.524338, 12.371750, -242.333557, 13.727846, 100.772401
1759228320.386809, 7.678654, 10.905738, 1.048062, -0.303658, -0.669971, -1.084841, -6.665939, 11.689346, -241.898834, 13.727846, 100.772401
1759228320.406858, 8.331971, 11.632528, 0.809091, -0.708775, -0.917673, -0.990380, -6.914429, 11.001831, -241.085785, 13.727846, 100.772401
1759228320.426799, 7.187543, 13.376554, 0.614113, -0.974521, -1.099324, -0.686572, -6.620987, 9.857910, -240.075378, 13.727846, 100.772401
1759228320.446790, 6.038177, 15.080627, -0.127342, -0.674599, -1.501688, -0.411388, -6.722656, 9.468292, -238.464951, 13.727846, 100.772401
1759228320.466547, 5.245247, 16.663494, -1.561618, -0.281707, -1.439511, 0.057708, -5.806793, 9.614975, -237.182251, 13.727846, 100.772401
1759228320.486802, 4.136432, 16.863859, -4.833594, 0.406400, -1.799820, 0.660932, -4.896835, 10.377762, -236.002060, 13.727846, 100.772401
1759228320.506801, 3.453935, 15.059379, -9.678261, 1.840512, -2.062458, 1.012892, -3.583740, 11.684128, -234.674454, 13.727846, 100.772401
1759228320.526800, 4.411017, 12.762741, -5.318719, 2.625548, -1.749642, 1.126950, -2.760254, 14.259628, -233.823547, 13.727846, 100.772401
1759228320.546797, 4.842871, 12.193370, -1.844882, 2.636261, -1.565706, 1.259727, -1.199554, 16.576675, -233.398254, 13.727846, 100.772401
1759228320.566734, 5.442619, 11.339538, 1.761833, 2.108822, -1.645238, 1.344823, 0.130768, 19.190689, -233.188538, 13.727846, 100.772401
1759228320.586784, 5.199009, 16.351799, 1.320402, 2.269278, 0.338261, 1.817329, 1.585571, 21.638611, -234.075653, 13.727846, 100.772401
1759228320.606793, 0.970699, 15.756690, 2.930503, 2.288149, 1.218627, 1.675771, 1.830612, 24.353760, -235.673309, 13.727846, 100.772401
1759228320.626805, -1.432780, 13.140576, 4.306271, 1.621808, 0.870236, 1.462891, 2.670990, 26.663422, -237.803848, 13.727846, 100.772401
1759228320.646598, -2.608333, 11.653028, 2.619556, 0.966342, 1.189113, 1.719902, 3.340622, 28.008957, -239.178391, 13.727846, 100.772401
1759228320.666853, -0.914884, 11.031583, -0.462829, 0.661384, 1.572465, 2.039514, 4.570602, 29.662689, -240.857803, 13.727846, 100.772401
1759228320.686785, 0.855029, 9.511116, -2.613870, 1.076049, 1.178415, 2.168267, 5.959534, 31.317978, -242.483871, 13.727846, 100.772401
1759228320.706993, 2.891148, 8.737190, -2.300529, 1.578796, -0.411105, 2.185302, 7.896606, 33.398178, -243.160126, 13.727846, 100.772401
1759228320.726871, 4.552574, 8.760833, 3.711611, 1.025690, -1.108984, 2.170817, 9.956512, 34.517944, -244.056946, 13.727846, 100.772401
1759228320.746846, 8.360702, 7.595156, 0.951546, 1.037384, -1.072388, 1.979143, 12.112854, 35.486343, -244.122955, 13.727846, 100.772401
1759228320.766815, 4.780921, 5.987449, -1.531242, 1.226646, -2.136675, 1.509344, 14.417465, 36.261368, -244.070618, 13.727846, 100.772401
1759228320.786917, 2.645593, 5.650316, -0.034716, 1.316056, -3.383121, 1.326092, 16.749588, 37.277344, -244.457458, 13.727846, 100.772401
1759228320.806864, 0.809390, 5.210531, 0.743100, 1.310130, -3.416411, 1.272680, 18.737625, 37.547043, -244.634537, 13.727846, 100.772401
1759228320.826846, -1.019331, 4.884022, 1.186925, 1.100710, -3.064987, 1.145927, 20.901428, 38.402451, -244.976456, 13.727846, 100.772401
1759228320.846823, -2.069039, 4.325574, 1.666364, 0.691140, -2.784980, 0.875157, 22.462830, 38.473389, -245.366867, 13.727846, 100.772401
1759228320.866994, -2.350507, 3.133711, 1.379509, 0.160804, -1.964364, 0.433046, 23.712250, 38.646744, -244.361343, 13.727846, 100.772401
1759228320.886819, -2.811541, 1.469441, 0.552911, -0.482255, -1.120928, -0.208539, 24.052948, 38.900116, -244.187057, 13.727846, 100.772401
1759228320.906799, -2.847903, -0.075118, 0.453701, -1.237540, -0.331335, -0.989839, 23.728958, 38.210434, -243.658371, 13.727846, 100.772401
1759228320.926873, -4.722413, -1.470040, -0.324115, -1.675725, 0.509083, -1.637912, 22.400391, 38.052856, -242.404831, 13.727846, 100.772401
1759228320.946801, -5.614253, -2.332551, -11.242572, -0.717425, 2.088668, -1.597289, 20.739655, 37.242661, -241.725372, 13.727846, 100.772401
1759228320.966865, 14.648175, 6.255600, -11.819276, -2.693823, 4.436073, -0.282874, 19.526337, 36.595337, -242.172226, 13.727846, 100.772401
1759228320.986822, 1.974767, 19.803789, 13.727305, -1.941839, 3.955351, -1.339357, 17.072952, 36.089539, -241.963120, 13.727846, 100.772401
1759228321.006796, 6.960543, 32.212038, -11.057920, -0.598823, 0.975727, -0.849305, 15.457977, 35.632797, -242.184250, 13.727846, 100.772401
1759228321.026816, 8.405593, 16.107441, -2.892196, -0.004520, 0.934517, -0.548958, 15.015152, 35.134720, -242.071671, 13.727846, 100.772401
1759228321.046837, 4.200627, 7.855974, -2.293196, -0.425059, 2.182005, -0.657081, 13.856125, 34.321442, -242.662033, 13.728022, 100.772325
1759228321.066913, 0.855029, 5.915623, -2.060959, -0.943105, 2.751476, -1.122403, 12.397903, 33.901520, -243.199982, 13.728022, 100.772325
1759228321.086793, 0.464026, 5.867889, -0.876427, -1.379223, 2.438257, -1.514015, 10.830963, 33.003967, -243.362137, 13.728022, 100.772325
1759228321.106872, 2.028787, 10.084228, -0.739060, -1.269743, 2.206181, -1.847702, 8.801254, 31.670258, -243.848923, 13.728022, 100.772325
1759228321.126838, 4.023755, 12.794913, 0.506673, -0.846039, 1.885652, -1.789187, 7.142593, 30.268555, -244.129318, 13.728022, 100.772325
1759228321.146799, 4.131045, 14.062643, 0.754922, -0.168018, 1.783135, -1.456101, 5.426147, 29.153595, -244.964661, 13.728022, 100.772325
1759228321.166838, 4.605397, 12.484415, 2.379836, -0.066196, 1.267763, -1.347911, 4.359756, 28.263901, -245.521393, 13.728022, 100.772325
1759228321.186867, 5.163395, 11.184663, 1.796250, -0.310865, 0.489317, -1.364107, 3.420135, 27.558716, -245.616409, 13.728022, 100.772325
1759228321.206801, 5.241955, 9.651925, 0.350302, -0.341210, 0.399236, -1.471621, 2.579788, 26.532593, -245.990707, 13.728022, 100.772325
1759228321.226877, 5.987449, 8.181735, 0.736965, -0.283801, 0.250342, -1.406290, 1.942627, 25.576736, -246.310898, 13.728022, 100.772325
1759228321.246798, 6.986879, 7.128137, 1.245883, -0.459125, -0.085014, -1.240740, 1.422363, 24.144653, -245.706848, 13.728022, 100.772325
1759228321.265931, 6.651691, 7.243059, -0.228646, -0.497161, -0.146707, -1.157509, 0.702042, 23.653412, -245.478058, 13.728022, 100.772325
1759228321.286861, 6.403143, 8.132654, 0.172383, -0.395615, -0.800843, -0.704276, 0.987885, 22.522766, -244.938446, 13.728022, 100.772325
1759228321.307002, 4.535366, 7.273285, 0.642843, -0.613785, -1.927008, -0.261342, 1.136246, 22.066528, -243.396469, 13.728022, 100.772325
1759228321.326827, 2.843114, 6.967725, 1.274314, -0.994164, -2.373603, -0.002585, 1.975189, 22.123993, -241.027466, 13.728022, 100.772325
1759228321.346667, 1.043872, 6.766164, 0.886603, -1.083950, -0.533801, 0.022742, 2.557343, 21.971176, -240.184235, 13.728022, 100.772325
1759228321.366143, 1.371728, 6.575974, 1.799991, -1.122697, 1.689209, 0.134819, 1.852081, 21.620468, -240.738449, 13.728022, 100.772325
1759228321.386884, -0.669928, 6.640169, -1.708113, -1.091144, 2.764259, 0.219023, 1.345169, 21.495422, -242.319687, 13.728022, 100.772325
1759228321.406805, -1.138293, 8.881291, -3.117699, -0.499011, 1.542228, -0.031091, 0.910797, 21.564575, -242.726929, 13.728022, 100.772325
1759228321.426841, 1.043872, 9.145551, 0.634463, -0.172201, 0.423970, -0.046139, 0.760452, 21.245636, -243.353088, 13.728022, 100.772325
1759228321.446872, 1.272817, 9.369409, 0.465672, -0.179953, 0.357476, -0.301261, 0.074280, 21.335480, -243.442612, 13.728022, 100.772325
1759228321.466438, 2.834884, 9.331401, 0.374992, -0.022373, 0.396588, -0.573627, 0.108368, 21.564087, -243.728668, 13.728022, 100.772325
1759228321.486863, 4.192696, 9.391406, 2.414103, -0.028380, 0.402261, -0.585933, -0.330109, 21.055176, -243.884705, 13.728022, 100.772325
1759228321.506997, 4.314501, 9.943269, 2.142212, -0.121941, 0.490287, -0.632232, -0.698730, 20.403397, -244.853729, 13.728022, 100.772325
1759228321.526824, 3.998915, 11.001207, 1.747318, -0.313020, 0.141226, -0.666864, -1.225510, 20.323776, -244.496689, 13.728022, 100.772325
1759228321.547010, 3.713407, 12.101043, 1.847875, -0.558170, -0.413550, -0.798804, -1.138290, 19.507858, -243.956985, 13.728022, 100.772325
1759228321.566463, 5.051616, 12.948142, 3.027318, -0.801641, -0.682736, -0.838717, -0.912445, 19.041794, -243.035278, 13.728022, 100.772325
1759228321.586842, 5.150526, 13.113791, 4.480299, -1.113515, -0.814839, -0.772272, -1.121460, 18.109695, -242.566269, 13.728022, 100.772325
1759228321.606807, 1.839196, 12.757504, 0.391901, -0.680487, -0.042841, -0.834281, -1.303894, 17.303528, -241.849228, 13.728022, 100.772325
1759228321.626905, 1.463156, 14.335881, -1.999757, 0.071729, -0.643587, -0.797219, -1.384872, 16.900543, -241.446686, 13.728022, 100.772325
1759228321.646679, 2.889352, 15.684714, -2.559850, 0.363347, -1.376832, -0.401367, -0.842239, 16.522034, -240.721954, 13.728022, 100.772325
1759228321.666658, 4.374506, 13.191453, -3.145233, 0.516100, -1.467690, 0.092042, 0.448013, 16.888489, -239.407654, 13.728022, 100.772325
1759228321.686805, 3.685275, 10.989685, -2.992154, 0.977387, -0.799315, 0.347165, 0.571533, 16.861542, -239.930817, 13.728022, 100.772325
1759228321.707021, 2.539500, 10.092159, -1.547253, 1.182390, -0.823349, 0.541055, 1.623184, 17.722794, -239.394455, 13.728022, 100.772325
1759228321.726875, 1.737592, 10.284293, -0.994791, 1.258075, -1.204761, 0.658082, 2.453934, 18.825653, -239.331772, 13.728022, 100.772325
1759228321.747009, 1.336563, 10.481665, -0.085443, 1.443416, -1.446523, 0.768097, 3.326569, 19.491257, -239.916443, 13.728022, 100.772325
1759228321.766684, 1.923142, 10.880300, 0.002245, 1.713820, -0.799263, 0.918552, 4.594131, 20.931778, -239.990311, 13.728022, 100.772325
1759228321.786839, 2.042104, 10.909180, 0.536002, 1.944899, 0.233212, 1.075925, 5.567688, 21.956696, -240.969955, 13.728022, 100.772325
1759228321.806854, 1.721281, 10.665271, 1.508347, 1.728542, 0.530416, 1.310756, 6.239288, 23.068695, -242.134583, 13.728022, 100.772325
1759228321.826928, -0.057311, 10.437223, 1.601422, 1.478979, 0.704454, 1.395107, 7.083694, 24.149689, -243.307983, 13.728022, 100.772325
1759228321.846879, -1.425747, 10.037690, 1.500566, 1.444523, 0.873802, 1.190066, 6.961014, 24.484772, -244.590042, 13.728022, 100.772325
1759228321.866980, -1.445200, 9.152434, 3.870676, 0.919449, 0.370778, 0.810773, 7.932632, 25.481430, -245.079742, 13.728022, 100.772325
1759228321.886836, -0.417489, 9.411307, 2.521992, 0.401987, -0.263203, 0.829223, 8.611145, 25.814865, -245.468063, 13.728022, 100.772325
1759228321.906983, 0.407014, 8.302493, 0.898574, 0.338706, -0.234266, 0.699155, 9.170471, 26.018936, -245.107620, 13.728022, 100.772325
1759228321.926853, 2.284817, 7.568969, -0.169839, 0.283859, 0.155168, 0.583807, 8.954239, 26.518494, -245.161987, 13.728022, 100.772325
1759228321.946860, 3.774758, 7.614309, -0.767342, 0.211970, 0.169635, 0.758769, 9.606125, 26.723526, -245.637314, 13.728022, 100.772325
1759228321.966864, 2.049586, 7.002142, -0.704494, 0.067618, 0.259045, 0.523075, 10.752914, 27.025681, -246.063187, 13.728022, 100.772325
1759228321.986817, 0.051625, 7.282114, 0.019603, -0.057614, -0.140028, 0.217414, 10.527374, 27.130508, -246.312729, 13.728022, 100.772325
1759228322.006818, -1.764976, 7.487118, 0.779013, -0.173394, -0.894850, -0.073645, 10.927017, 27.010284, -245.374420, 13.728022, 100.772325
1759228322.026888, -2.888006, 7.486968, 1.077690, -0.172903, -1.353440, -0.374867, 11.077469, 26.915146, -244.924240, 13.728022, 100.772325
1759228322.046882, -2.649034, 7.544429, 1.207875, -0.225471, -1.408708, -0.648961, 11.379364, 26.464203, -243.945496, 13.728022, 100.772325
1759228322.066812, -1.531990, 7.781754, 1.365593, -0.416354, -1.115225, -0.744871, 11.147141, 26.171082, -243.571030, 13.728022, 100.772325
1759228322.086867, -0.447267, 7.604134, 1.283142, -0.761954, -0.675924, -0.658192, 11.112518, 25.373611, -243.327698, 13.728022, 100.772325
1759228322.106915, -0.340575, 7.215974, 0.924461, -1.071577, -0.177018, -0.588027, 10.870483, 24.873535, -242.148682, 13.728022, 100.772325
1759228322.126816, -0.708534, 7.400178, 0.615011, -1.135189, 0.250001, -0.684891, 10.859818, 24.703049, -241.605301, 13.728022, 100.772325
1759228322.147012, -0.418985, 7.915530, 0.495001, -1.133299, 0.512610, -0.809843, 10.199356, 23.683289, -241.937881, 13.728022, 100.772325
1759228322.167022, 0.483778, 8.646510, 0.399083, -1.351404, 0.163460, -0.803375, 9.645386, 23.190430, -241.093445, 13.728022, 100.772325
1759228322.186061, 0.993145, 12.842498, 0.451606, -2.406855, -2.149768, -0.722035, 9.333542, 22.292618, -240.069229, 13.728022, 100.772325
1759228322.206851, 6.276100, 20.488830, -23.521236, -0.337216, -2.788583, 0.010962, 10.501175, 21.602539, -237.981262, 13.728022, 100.772325
1759228322.226904, 4.248960, 14.768184, -3.813814, 1.089651, -1.243480, -0.176715, 11.574051, 21.835022, -236.496307, 13.728022, 100.772325
1759228322.246843, 0.140210, 8.657433, 2.906112, 1.077508, -0.197884, -0.552691, 11.425568, 21.730057, -237.042191, 13.728022, 100.772325
1759228322.266845, 0.307655, 7.616404, 2.153584, 0.844623, 0.549652, -0.576493, 11.057907, 21.918472, -237.590469, 13.728022, 100.772325
1759228322.286810, 0.140959, 6.954108, 1.683722, 0.132135, 1.064123, -0.442368, 10.225006, 21.651627, -238.287109, 13.728022, 100.772325
1759228322.306846, -1.464354, 5.956175, 1.909226, -0.812348, 1.525364, -0.511220, 9.368942, 21.691086, -238.756012, 13.728022, 100.772325
1759228322.326837, 0.550517, 8.135198, 0.730232, -0.556480, 0.686749, -0.694734, 8.614029, 20.953445, -238.656052, 13.728022, 100.772325
1759228322.345972, 2.337639, 9.711032, 1.138443, -0.274284, -0.828276, -0.511989, 8.589584, 20.498672, -238.317902, 13.728022, 100.772325
1759228322.366830, 4.673931, 13.999047, 2.573318, -0.824645, -1.648322, -0.462147, 8.317352, 20.015732, -237.851028, 13.728022, 100.772325
1759228322.386385, 4.620510, 9.426271, 1.526304, -1.117483, -1.429221, -0.655231, 9.320511, 19.415497, -236.194977, 13.728022, 100.772325
1759228322.406827, 4.711639, 7.620744, -0.029928, -0.902932, -0.873856, -0.472938, 9.566116, 18.801605, -235.370789, 13.728022, 100.772325
1759228322.426837, 5.719748, 8.109311, -0.983867, -0.678532, 0.605691, -0.006633, 9.636368, 18.482452, -235.072754, 13.728022, 100.772325
1759228322.446836, 5.695207, 9.001450, -2.307711, -0.439687, 2.317740, 0.719888, 8.725693, 18.235535, -236.009933, 13.728022, 100.772325
1759228322.466613, 1.605013, 10.091111, -2.367566, -0.275180, 3.231309, 0.912667, 8.112778, 18.661942, -236.986252, 13.728022, 100.772325
1759228322.486813, -0.730381, 11.212944, -2.150143, -0.133403, 3.037036, 0.529164, 7.060425, 18.498550, -238.810638, 13.728022, 100.772325
1759228322.506831, -1.379958, 11.025748, -1.632247, -0.010210, 1.132740, 0.039818, 6.677231, 18.668167, -240.039261, 13.728022, 100.772325
1759228322.526830, -1.288829, 9.745149, -1.361553, 0.242849, -0.664311, -0.198220, 6.693344, 18.827316, -239.395157, 13.728022, 100.772325
1759228322.546824, -0.283264, 9.680356, -0.973542, 0.459084, -1.195322, -0.293825, 6.707382, 18.898132, -239.284180, 13.728022, 100.772325
1759228322.566822, 0.484377, 9.584737, 0.138714, 0.450188, -1.373152, -0.400702, 6.740921, 18.317215, -238.728409, 13.728022, 100.772325
1759228322.586754, 1.388487, 9.240122, 1.019780, 0.260888, -1.450451, -0.372673, 7.293686, 18.485901, -238.140091, 13.728022, 100.772325
1759228322.606827, 2.063353, 8.995614, 1.538574, 0.027155, -1.437398, -0.310460, 8.042328, 18.399796, -237.690140, 13.728022, 100.772325
1759228322.626833, 2.687940, 9.232790, 1.682675, -0.129929, -1.161063, -0.191891, 8.432983, 18.168564, -237.165131, 13.728022, 100.772325
1759228322.646839, 3.082684, 9.941324, 1.126472, -0.113491, -0.289251, -0.028147, 8.640076, 18.155701, -236.146591, 13.728022, 100.772325
1759228322.666669, 3.037344, 10.254066, 0.710030, -0.056475, 0.611887, 0.117808, 8.818665, 18.350418, -236.415268, 13.728022, 100.772325
1759228322.686501, 2.432659, 9.957335, 0.648679, -0.057926, 0.972986, 0.208010, 7.990402, 18.188065, -237.016129, 13.728022, 100.772325
1759228322.706835, 1.596184, 9.816676, 0.540940, -0.131239, 1.011680, 0.222075, 7.826523, 18.218262, -237.828812, 13.728022, 100.772325
1759228322.726833, 0.821510, 9.695469, 0.266205, -0.187154, 0.938486, 0.197691, 7.671600, 18.592926, -238.037552, 13.728022, 100.772325
1759228322.746842, 0.192434, 9.581445, -0.040552, -0.165997, 0.733901, 0.130522, 7.542099, 18.448044, -238.351517, 13.728022, 100.772325
1759228322.766839, -0.219668, 9.709236, -0.274435, -0.103210, 0.409901, 0.017147, 6.984894, 18.876022, -238.848801, 13.728022, 100.772325
1759228322.786826, -0.345064, 9.900922, -0.380229, -0.043274, 0.064068, -0.108224, 7.373764, 18.637619, -238.960602, 13.728022, 100.772325
1759228322.806824, 0.169390, 9.856479, -0.377835, 0.020053, -0.205159, -0.191488, 7.160706, 18.164185, -239.209915, 13.728022, 100.772325
1759228322.826866, 1.168071, 9.769989, -0.219069, 0.051609, -0.310447, -0.175289, 7.539734, 18.123962, -238.408081, 13.728022, 100.772325
1759228322.846810, 1.908029, 9.582044, -0.083199, 0.087085, -0.274564, -0.085668, 6.984375, 18.050690, -238.022278, 13.728022, 100.772325
1759228322.866834, 2.185457, 9.653571, 0.168492, 0.147751, -0.127464, 0.019741, 7.275314, 18.062485, -238.574600, 13.728022, 100.772325
1759228322.886847, 1.896507, 9.838822, 0.520589, 0.125747, 0.077027, 0.086986, 7.190964, 18.154678, -237.988174, 13.728022, 100.772325
1759228322.906894, 1.446696, 9.586982, 0.791583, 0.043478, 0.146713, 0.110115, 7.296173, 18.677399, -238.242294, 13.728022, 100.772325
1759228322.926854, 1.037288, 9.311350, 0.848595, 0.003127, 0.047025, 0.084273, 7.261368, 18.668274, -238.269394, 13.728022, 100.772325
1759228322.946837, 0.903811, 9.313744, 0.751181, 0.007437, -0.038742, 0.028525, 7.485947, 18.713913, -238.985443, 13.728022, 100.772325
1759228322.965949, 0.939275, 9.467571, 0.686388, 0.000632, 0.025616, -0.010490, 7.141541, 18.566269, -238.842148, 13.728022, 100.772325
1759228322.986817, 1.010952, 9.782708, 0.459387, -0.058979, 0.178030, -0.038202, 7.083237, 18.628021, -238.616623, 13.728022, 100.772325
1759228323.006833, 0.824054, 9.857377, 0.235081, -0.117099, 0.269532, -0.062598, 6.997894, 18.480499, -238.653076, 13.728022, 100.772325
1759228323.026841, 0.776470, 9.846454, 0.014216, -0.128997, 0.278279, -0.104135, 7.190933, 18.612839, -238.579666, 13.728022, 100.772325
1759228323.046818, 0.920122, 9.663896, -0.139163, -0.116868, 0.229546, -0.132929, 7.000275, 18.396500, -239.452896, 13.727999, 100.772257
1759228323.066670, 1.233163, 9.687389, -0.168043, -0.070929, 0.100544, -0.146235, 6.996536, 18.229279, -239.358749, 13.727999, 100.772257
1759228323.086209, 1.601422, 9.923816, -0.002544, -0.041360, -0.062975, -0.133824, 6.768326, 17.910187, -238.881653, 13.727999, 100.772257
1759228323.106841, 1.814655, 9.859472, 0.086790, -0.023612, -0.159922, -0.113679, 6.813232, 18.083420, -238.377487, 13.727999, 100.772257
1759228323.126838, 1.932420, 9.627085, 0.024690, 0.010181, -0.114220, -0.055956, 6.651550, 18.094406, -238.388596, 13.727999, 100.772257
1759228323.146845, 1.900248, 9.529072, -0.020201, 0.086961, 0.043154, 0.018265, 6.575317, 18.085510, -239.144821, 13.727999, 100.772257
1759228323.166833, 1.696741, 9.574562, 0.017957, 0.162563, 0.216493, 0.081982, 6.573029, 18.200027, -238.876175, 13.727999, 100.772257
1759228323.186820, 1.498321, 9.775076, 0.071078, 0.190477, 0.365594, 0.130849, 6.945221, 18.461517, -239.794693, 13.727999, 100.772257
1759228323.206827, 1.172411, 9.965864, 0.136918, 0.190605, 0.411135, 0.138737, 6.794952, 18.418747, -239.659744, 13.727999, 100.772257
1759228323.226836, 0.928202, 9.772533, 0.128090, 0.157705, 0.310996, 0.101035, 6.781403, 18.477859, -239.553421, 13.727999, 100.772257
1759228323.246709, 1.226879, 9.818172, 0.115371, 0.103042, 0.088143, 0.064529, 6.430161, 18.914780, -239.802872, 13.727999, 100.772257
1759228323.266318, 1.813308, 9.806800, -0.034866, 0.081710, -0.111819, 0.070201, 6.515198, 18.964859, -239.575745, 13.727999, 100.772257
1759228323.285824, 2.214337, 9.608829, -0.081552, 0.125444, -0.119368, 0.104374, 6.521576, 18.646591, -239.302170, 13.727999, 100.772257
1759228323.306762, 2.414552, 9.680206, -0.001646, 0.135293, 0.009231, 0.162791, 7.245331, 18.815048, -239.657715, 13.727999, 100.772257
1759228323.326908, 2.548478, 10.527604, -0.152032, 0.110997, 0.287171, 0.268206, 6.817169, 18.948654, -239.527451, 13.727999, 100.772257
1759228323.346028, 2.986467, 11.454459, -0.314987, 0.110397, 0.568868, 0.436138, 6.585480, 19.329147, -240.306473, 13.727999, 100.772257
1759228323.366832, 3.218106, 11.870003, -0.110881, 0.011393, 0.631932, 0.803413, 6.504913, 19.739075, -240.636276, 13.727999, 100.772257
1759228323.385992, 1.977760, 11.573421, -0.385018, 0.074431, 0.404662, 0.991267, 7.175583, 20.264832, -240.903381, 13.727999, 100.772257
1759228323.406832, 1.349582, 10.941801, -0.896629, 0.544669, 0.537077, 1.018890, 7.239914, 20.936035, -241.200333, 13.727999, 100.772257
1759228323.426845, 1.536180, 10.527454, -2.618209, 0.772519, 1.782443, 1.014485, 7.766983, 21.826111, -242.494583, 13.727999, 100.772257
1759228323.445996, -0.555305, 10.310929, -4.878934, 0.884173, 3.138875, 1.074103, 7.295181, 22.255280, -244.739029, 13.727999, 100.772257
1759228323.466843, -4.059668, 9.044845, -4.543746, 0.984068, 1.840539, 0.879191, 7.268524, 22.783447, -246.404465, 13.727999, 100.772257
1759228323.486227, -4.573224, 7.773225, -1.785925, 1.154250, -0.489345, 0.465006, 7.523270, 23.688354, -247.254227, 13.727999, 100.772257
1759228323.506850, -2.995446, 7.330297, 0.605434, 1.181889, -1.066439, 0.015791, 7.739075, 23.856369, -247.248199, 13.727999, 100.772257
1759228323.526841, 0.426916, 7.853281, 2.060510, 0.867642, 0.149034, -0.179444, 7.306274, 24.016556, -247.463333, 13.727999, 100.772257
1759228323.546846, 3.958214, 8.291569, 1.576731, 0.527523, 1.156425, -0.170737, 7.392822, 23.735596, -247.877365, 13.727999, 100.772257
1759228323.566849, 6.960842, 8.831462, -0.027234, 0.307964, 1.603757, 0.073258, 6.899002, 23.997833, -248.939011, 13.727999, 100.772257
1759228323.586391, 8.365790, 9.284115, -1.437120, 0.263223, 1.648383, 0.456222, 7.106430, 24.177963, -250.410461, 13.727999, 100.772257
1759228323.606838, 6.927174, 8.800936, -1.844283, 0.304833, 0.608194, 0.380822, 6.975143, 24.550812, -250.884995, 13.727999, 100.772257
1759228323.626846, 5.257816, 8.373271, -1.963395, 0.432194, -0.856566, 0.131758, 7.243195, 24.611725, -250.805374, 13.727999, 100.772257
1759228323.646645, 4.010437, 7.902960, -1.328333, 0.530301, -1.364938, -0.023853, 7.819290, 24.192139, -250.255188, 13.727999, 100.772257
1759228323.666849, 2.990358, 7.529315, -1.031751, 0.556447, -1.078544, -0.167942, 7.726822, 24.263229, -249.700378, 13.727999, 100.772257
1759228323.686500, 1.951574, 7.414843, -1.509694, 0.427282, -0.579677, -0.295321, 8.016296, 24.227936, -250.260651, 13.727999, 100.772257
1759228323.706855, 0.992846, 8.108712, -2.761412, 0.311598, -0.413612, -0.392894, 7.359528, 24.678589, -250.211853, 13.727999, 100.772257
1759228323.726906, 0.660201, 8.960749, -4.013281, 0.360062, -0.516699, -0.460176, 7.322876, 23.958939, -250.041443, 13.727999, 100.772257
1759228323.746844, 0.685340, 9.578004, -4.538509, 0.411822, -0.052566, -0.488748, 7.282990, 23.672607, -250.459854, 13.727999, 100.772257
1759228323.766877, 1.137096, 9.713575, -4.741716, 0.462819, 0.559244, -0.462732, 6.665009, 23.602707, -250.435379, 13.727999, 100.772257
1759228323.786686, 1.775749, 9.143456, -4.258537, 0.528806, 0.922550, -0.398813, 6.749344, 23.193848, -251.349045, 13.727999, 100.772257
1759228323.806838, 2.542343, 8.560169, -3.320159, 0.582056, 0.989556, -0.332792, 6.276077, 22.699295, -251.948853, 13.727999, 100.772257
1759228323.826926, 2.421585, 8.876652, -3.213318, 0.520635, 0.987178, -0.339776, 6.220886, 23.077316, -252.628693, 13.727999, 100.772257
1759228323.846836, 2.552518, 8.969727, -3.471892, 0.315067, 1.027495, -0.347204, 5.993042, 23.008331, -254.078247, 13.727999, 100.772257
1759228323.866848, 2.732832, 9.169343, -2.884115, -0.132995, 0.426271, -0.399136, 5.239227, 22.476166, -254.582245, 13.727999, 100.772257
1759228323.886847, 5.312733, 10.799047, -1.533037, -0.408119, -0.112509, -0.236758, 5.462738, 22.090973, -253.776428, 13.727999, 100.772257
1759228323.906834, 8.492233, 11.760019, -2.320580, 0.007494, 0.489172, 0.346793, 5.081100, 21.905029, -253.833221, 13.727999, 100.772257
1759228323.926846, 10.040534, 9.587281, -1.264438, 0.005859, 0.960645, 0.938894, 5.725616, 22.138763, -254.821381, 13.727999, 100.772257
1759228323.946264, 0.866551, 8.616732, -0.082301, 0.052226, 1.975244, 0.263197, 5.956070, 22.097885, -255.272842, 13.727999, 100.772257
1759228323.966736, -6.968773, 8.412476, -6.768408, 0.420776, 0.977434, -0.327676, 5.454803, 22.416565, -256.382874, 13.727999, 100.772257
1759228323.986898, -7.570466, 8.965537, -3.191321, 0.028507, -0.369887, -0.604333, 5.437836, 21.794510, -256.860748, 13.727999, 100.772257
1759228324.006840, -4.657770, 8.145673, 0.620098, 0.243912, 0.584955, -0.965978, 5.473557, 21.410614, -256.826294, 13.727999, 100.772257
1759228324.026854, -1.072752, 10.359711, 3.287389, 0.238475, 1.591836, -1.080431, 4.541077, 20.873764, -257.229584, 13.727999, 100.772257
1759228324.046836, 0.814777, 13.623756, 4.500800, -0.620552, 2.706640, -0.602817, 4.291733, 20.315536, -258.994873, 13.728014, 100.772257
1759228324.066905, 0.569521, 12.295123, 4.005799, -0.948180, 2.701680, -0.687661, 3.755280, 19.584930, -259.730835, 13.728014, 100.772257
1759228324.086906, 2.601300, 11.322329, 2.814234, -0.910056, 2.085947, -0.643835, 3.501602, 19.322037, -261.165405, 13.728014, 100.772257
1759228324.105964, 3.983652, 9.923517, 3.592799, -1.389462, 1.080284, -0.495421, 3.505936, 19.256393, -261.662323, 13.728014, 100.772257
1759228324.126851, 4.167707, 9.076418, 3.156905, -1.841431, 1.069544, -0.651000, 3.011963, 19.186096, -261.403290, 13.728014, 100.772257
1759228324.146463, 6.302287, 9.348909, -1.201141, -1.342523, 2.831656, -0.681653, 3.207840, 18.236725, -261.969543, 13.728014, 100.772257
1759228324.166853, 6.694786, 9.047987, -3.350236, -0.289758, 3.766337, -0.336245, 2.828583, 18.377823, -263.516327, 13.728014, 100.772257
1759228324.186837, 3.600430, 8.580071, -1.909077, -0.095204, 2.862040, 0.010782, 3.544250, 17.995895, -265.425262, 13.728014, 100.772257
1759228324.206904, 0.868497, 9.757569, -0.000599, -0.645060, 0.916262, 0.081100, 3.703934, 18.054535, -266.589355, 13.728014, 100.772257
1759228324.226855, -0.391302, 10.753257, 0.157269, -0.667962, -0.269105, -0.198090, 4.360870, 18.119217, -266.524597, 13.728014, 100.772257
1759228324.246929, -0.172532, 10.484957, 0.382623, -0.663536, -0.331397, -0.387986, 3.784134, 18.097672, -266.109802, 13.728014, 100.772257
1759228324.266867, 0.563685, 9.352799, 0.648978, -0.623563, -0.196105, -0.456906, 3.572540, 18.146408, -266.003845, 13.728014, 100.772257
1759228324.285850, 1.187374, 8.041674, 0.792181, -0.522149, -0.039713, -0.638913, 3.613052, 17.718842, -265.699280, 13.728014, 100.772257
1759228324.306329, 2.639757, 7.840861, 1.850269, -0.411976, -0.501618, -0.635780, 3.111359, 17.319626, -265.257385, 13.728014, 100.772257
1759228324.326857, 3.749769, 8.519318, 2.767697, -0.748897, 0.155926, -0.464466, 2.964157, 17.534958, -265.258423, 13.728014, 100.772257
1759228324.346816, 2.960430, 9.307758, 1.799542, -0.968975, 1.560650, -0.436522, 3.326706, 16.512589, -265.045776, 13.728014, 100.772257
1759228324.366912, 2.964022, 9.575759, 0.462231, -0.897290, 2.540056, -0.320185, 3.057755, 16.631332, -266.096313, 13.728014, 100.772257
1759228324.387025, 3.203442, 10.967539, -0.233584, -0.867461, 3.447362, -0.417995, 3.703415, 16.365601, -267.895325, 13.728014, 100.772257
1759228324.406846, 3.733907, 9.779865, -0.783203, -0.658810, 3.485192, -0.649081, 4.370956, 16.384521, -269.744995, 13.728014, 100.772257
1759228324.426922, 5.469703, 9.047090, -1.730260, -0.216136, 2.438675, -0.690106, 4.861832, 16.219086, -271.653870, 13.728014, 100.772257
1759228324.446899, 7.061698, 8.937704, -2.377442, 0.461209, 0.588944, -0.562414, 5.166168, 15.415298, -272.311768, 13.728014, 100.772257
1759228324.466968, 8.599075, 9.204957, -1.277456, 0.797807, -0.912808, -0.072719, 4.787354, 14.976349, -272.355713, 13.728014, 100.772257
1759228324.486904, 9.263166, 9.444377, 0.653019, 0.630165, -1.851336, 0.692355, 4.615997, 14.878235, -271.777191, 13.728014, 100.772257
1759228324.506852, 9.241020, 9.151088, 1.534534, 0.464197, -2.187179, 1.224740, 4.411621, 15.082764, -270.988525, 13.728014, 100.772257
1759228324.526834, 8.405743, 9.638607, 1.321749, 0.651546, -1.389324, 1.593175, 4.344269, 15.583374, -270.270752, 13.728014, 100.772257
1759228324.546648, 6.621165, 11.912500, 0.714819, 0.823016, 0.136930, 2.262412, 5.277679, 16.031677, -269.900085, 13.728014, 100.772257
1759228324.566867, 3.710564, 12.711415, 0.084545, 0.770040, 1.630799, 2.697078, 5.851379, 17.120911, -270.682129, 13.728014, 100.772257
1759228324.586868, 1.557279, 15.336657, -0.963816, 0.636065, 3.075317, 2.695548, 8.018433, 18.036911, -272.053772, 13.728014, 100.772257
1759228324.606843, -2.430713, 16.678458, -6.886622, 1.945901, 2.638635, 1.911668, 9.603607, 18.579803, -273.766998, 13.728014, 100.772257
1759228324.626881, -2.427421, 13.362937, -10.262745, 2.982144, -0.174705, 1.681928, 10.276230, 18.201004, -274.993469, 13.728014, 100.772257
1759228324.646652, -1.504756, 13.293206, -2.850297, 2.494970, -1.231812, 1.428229, 10.189301, 17.713470, -276.102631, 13.728014, 100.772257
1759228324.666848, -2.367117, 14.660295, -0.595258, 2.222492, -1.033389, 0.910236, 10.284058, 17.563797, -275.778442, 13.728014, 100.772257
1759228324.686835, -2.409465, 13.028497, 0.786795, 2.046731, -0.605530, 0.214097, 9.992294, 16.923828, -276.681061, 13.728014, 100.772257
1759228324.706859, -1.432032, 10.928932, 1.330578, 1.706681, -0.582825, 0.172774, 9.396927, 16.205826, -276.806824, 13.728014, 100.772257
1759228324.726862, -1.094001, 11.219528, 0.475698, 1.214680, -0.362562, 0.733015, 9.135910, 16.137466, -277.056763, 13.728014, 100.772257
1759228324.746869, -1.825579, 8.402151, -0.556802, 1.044746, 0.362995, 0.590739, 9.499283, 15.771423, -277.459534, 13.728014, 100.772257
1759228324.766851, 1.196353, 7.436989, 1.111209, 0.901021, 0.278057, 0.242958, 9.799942, 15.731430, -277.767395, 13.728014, 100.772257
1759228324.786844, 4.188357, 7.116016, 1.873313, 0.672484, -0.330470, 0.191700, 9.544922, 15.354630, -277.473846, 13.728014, 100.772257
1759228324.805976, 7.549367, 7.022044, 0.571765, 0.552746, -0.029413, 0.525276, 9.480927, 15.372574, -277.587341, 13.728014, 100.772257
1759228324.826864, 7.020398, 6.837840, -1.318008, 0.901913, 0.682180, 0.841525, 9.818542, 15.098251, -277.686890, 13.728014, 100.772257
1759228324.846915, 3.863643, 6.805219, -1.684022, 0.875565, -0.131248, 0.717076, 9.801346, 14.515472, -278.635132, 13.728014, 100.772257
1759228324.866847, 1.146074, 6.518513, -1.249025, 0.273968, -2.092201, 0.579409, 9.420944, 15.239197, -278.090454, 13.728014, 100.772257
1759228324.886844, 0.645986, 6.008548, 0.266953, -0.218854, -2.419188, 0.570445, 8.777588, 15.171585, -276.966522, 13.728014, 100.772257
1759228324.906862, -0.936133, 5.945102, 0.737713, -0.685905, -1.620777, 0.501721, 8.072800, 15.637253, -275.591553, 13.728014, 100.772257
1759228324.926880, -2.059013, 5.565621, 0.247650, -1.125229, -0.527919, 0.074994, 7.701065, 16.231689, -274.177917, 13.728014, 100.772257
1759228324.946661, -2.691532, 5.282656, -1.653346, -1.305290, 0.303765, -0.628576, 7.569565, 16.254639, -274.351440, 13.728014, 100.772257
1759228324.966861, -0.915333, 6.158784, -4.097975, -1.207471, 0.696624, -0.993502, 7.175186, 16.080994, -274.377686, 13.728014, 100.772257
1759228324.986847, 1.148618, 6.873903, -6.565350, -0.929112, 1.334114, -0.759869, 7.489700, 16.292511, -274.815796, 13.728014, 100.772257
1759228325.006854, 0.533458, 11.158775, -9.519346, -0.668991, 1.511628, -0.897412, 7.639786, 15.445496, -275.164032, 13.728014, 100.772257
1759228325.026866, 2.808249, 12.433837, -9.736919, -0.593869, 1.286761, -0.874575, 7.592178, 14.992508, -275.322815, 13.728014, 100.772257
1759228325.046871, 5.565621, 10.664073, -6.375160, -0.230133, 1.183151, -0.694637, 7.818771, 14.909119, -275.590637, 13.727970, 100.772253
1759228325.066864, 6.993164, 9.792135, -5.628170, 0.256176, 0.864995, -0.286282, 7.828049, 14.825912, -275.725891, 13.727970, 100.772253
1759228325.086855, 5.696255, 15.895404, -8.183531, 0.737630, 0.658719, -0.012050, 7.865067, 14.554169, -276.936066, 13.727970, 100.772253
1759228325.106861, 11.014674, 25.918430, -3.913323, 0.876842, -0.561906, 0.289755, 8.007446, 14.106796, -277.059692, 13.727970, 100.772253
1759228325.126863, 6.899491, 10.173112, 4.631882, 1.648159, -1.428754, 0.150655, 7.596069, 13.935287, -276.623474, 13.727970, 100.772253
1759228325.146640, -1.773505, 2.565986, 6.386234, 1.615450, 0.413551, -0.467698, 6.988068, 13.013336, -276.769562, 13.727970, 100.772253
1759228325.166595, -4.863970, 4.551527, 4.350115, 0.337295, 2.603571, -0.817298, 8.052856, 12.306488, -278.972839, 13.727970, 100.772253
1759228325.186849, -5.298967, 4.078074, 2.353500, -1.133085, 3.335408, -0.776975, 9.027954, 12.051987, -279.433014, 13.727970, 100.772253
1759228325.206852, -4.410419, 7.614758, 1.994370, -1.072300, 3.202312, -1.143870, 9.750244, 11.975037, -281.002625, 13.727970, 100.772253
1759228325.226866, -3.037494, 13.982138, 2.394950, -0.592713, 2.435755, -1.559215, 10.471542, 11.728668, -281.520782, 13.727970, 100.772253
1759228325.246923, -0.818817, 15.902138, 3.131466, -0.693584, 1.642085, -1.598402, 10.898468, 11.287720, -282.629028, 13.727970, 100.772253
1759228325.266859, 1.677737, 12.716802, 1.934964, -0.877823, 1.000021, -0.973677, 11.581726, 11.122162, -282.566406, 13.727970, 100.772253
1759228325.286702, 2.847005, 10.127473, 1.159991, -1.209913, 0.779704, -0.828654, 11.633316, 11.213150, -282.828552, 13.727970, 100.772253
1759228325.305977, 4.357896, 8.383447, 0.115520, -1.503034, 1.005364, -0.703966, 11.520782, 11.877716, -282.570801, 13.727970, 100.772253
1759228325.326722, 4.441693, 7.845649, -1.081281, -1.160909, 1.661312, -0.547712, 12.338272, 12.151413, -283.276672, 13.727970, 100.772253
1759228325.346900, 3.892822, 8.633042, -1.035492, -0.463884, 2.239046, -0.321996, 13.144211, 11.985809, -283.879089, 13.727970, 100.772253
1759228325.366858, 2.658761, 10.225635, 1.066168, -0.206095, 2.227826, -0.036195, 14.760529, 12.309341, -284.875061, 13.727970, 100.772253
1759228325.386861, 2.655170, 11.019762, 2.296339, -0.478582, 1.589697, -0.022280, 15.331177, 12.483307, -285.489960, 13.727970, 100.772253
1759228325.406070, 3.011906, 9.930101, 1.910274, -0.845522, 1.113571, -0.355103, 15.900040, 12.665298, -284.907867, 13.727970, 100.772253
1759228325.426944, 4.010288, 8.591742, 0.524330, -0.809802, 1.120317, -0.525162, 16.438065, 12.774048, -284.776672, 13.727970, 100.772253
1759228325.446926, 3.865887, 7.967005, -0.303914, -0.460469, 1.529775, -0.454132, 16.428452, 12.616776, -285.593689, 13.727970, 100.772253
1759228325.466874, 3.445406, 8.887576, -0.312593, -0.107104, 1.870068, -0.259099, 17.756943, 13.111618, -285.978271, 13.727970, 100.772253
1759228325.486893, 3.068918, 9.451560, -0.108038, 0.039170, 2.618364, -0.009924, 18.931030, 12.876129, -287.129303, 13.727970, 100.772253
1759228325.506270, 2.308609, 8.972869, 0.016759, -0.003400, 2.853151, -0.085410, 20.463257, 12.962296, -287.956329, 13.727970, 100.772253
1759228325.526880, 2.263269, 8.560917, 0.274585, -0.169835, 2.716028, -0.460862, 22.152725, 12.895874, -288.443848, 13.727970, 100.772253
1759228325.547054, 2.576610, 8.428937, 0.647033, -0.214923, 1.675405, -0.578478, 23.167099, 12.756332, -288.950531, 13.727970, 100.772253
1759228325.566924, 2.787898, 8.608053, 0.615011, -0.313010, 0.547891, -0.724058, 24.007858, 12.943069, -289.065063, 13.727970, 100.772253
1759228325.586860, 3.507655, 8.855703, 0.330101, -0.531043, 0.047564, -0.703792, 23.874969, 12.858887, -288.795197, 13.727970, 100.772253
1759228325.606401, 4.574870, 8.851064, -0.263063, -0.580642, 0.106656, -0.510069, 23.856003, 12.762314, -288.505615, 13.727970, 100.772253
1759228325.626873, 5.295675, 9.410859, -0.919673, -0.147124, 0.290191, -0.194989, 23.494278, 13.307022, -288.504578, 13.727970, 100.772253
1759228325.646667, 5.526266, 9.330653, -0.815675, 0.609361, -0.110023, 0.348994, 23.404449, 13.480164, -288.755646, 13.727970, 100.772253
1759228325.666862, 5.714510, 9.360580, 0.245855, 0.841769, -0.351003, 0.955759, 23.626221, 12.853958, -288.312897, 13.727970, 100.772253
1759228325.686857, 5.661988, 9.535058, 0.800860, 0.673189, -0.261085, 1.265783, 23.233185, 12.433121, -288.507935, 13.727970, 100.772253
1759228325.706649, 5.234323, 10.319907, 0.969502, 0.613389, -0.335627, 1.247972, 23.614899, 12.166977, -288.369507, 13.727970, 100.772253
1759228325.726896, 5.913828, 13.551780, 1.017536, 0.635309, -0.011053, 1.435294, 23.847687, 12.060043, -288.520264, 13.727970, 100.772253
1759228325.746887, 5.673510, 16.007333, 0.228347, 0.656677, 1.096920, 1.692542, 23.951355, 12.014252, -288.848083, 13.727970, 100.772253
1759228325.766859, 3.535488, 13.923779, -1.258003, 0.956778, 2.114317, 1.618729, 25.439758, 12.262268, -289.125061, 13.727970, 100.772253
1759228325.786857, 2.374749, 12.815713, -3.475483, 1.656928, 3.180144, 1.500729, 27.519699, 11.837357, -289.547302, 13.727970, 100.772253
1759228325.806736, 2.289605, 12.327295, -8.435371, 2.840302, 2.826477, 1.777875, 29.712387, 10.743484, -290.253540, 13.727970, 100.772253
1759228325.826886, 0.198419, 13.075334, -6.668151, 2.825666, 0.108579, 1.771536, 31.137924, 9.150955, -290.735168, 13.727970, 100.772253
1759228325.846861, -3.358915, 13.877990, -1.740585, 2.624879, -1.054588, 1.114749, 30.932465, 7.445312, -291.704041, 13.727970, 100.772253
1759228325.866862, -3.851822, 13.532327, -0.204255, 2.549777, -1.118281, 0.454412, 30.619797, 6.185608, -291.698364, 13.727970, 100.772253
1759228325.886858, -3.172916, 11.213243, 1.133505, 2.232155, -0.863043, 0.218020, 29.877441, 4.622543, -291.640015, 13.727970, 100.772253
1759228325.906869, -1.054197, 9.714174, 2.800617, 1.598395, -1.124846, 0.508931, 29.419693, 3.896423, -291.793457, 13.727970, 100.772253
1759228325.926873, -0.388310, 9.872042, 2.868104, 0.903829, -0.796150, 0.657682, 28.514709, 2.761490, -292.085815, 13.727970, 100.772253
1759228325.946883, -0.027833, 7.709329, 1.746869, 0.510675, -0.232501, 0.389490, 28.220520, 2.871918, -291.970245, 13.727970, 100.772253
1759228325.966863, 2.994248, 7.363666, 1.466748, 0.287691, -0.175857, 0.346613, 27.794083, 2.469116, -292.487183, 13.727970, 100.772253
1759228325.986869, 7.484723, 7.965060, 0.972046, 0.322895, 0.271549, 0.913106, 28.416046, 2.397919, -291.842102, 13.727970, 100.772253
1759228326.006867, 7.935282, 8.666112, -1.684321, 0.697423, 0.739942, 1.277776, 28.642059, 2.262024, -291.475647, 13.727970, 100.772253
1759228326.026574, 3.616741, 8.362497, -1.773505, 0.850400, -0.566398, 1.005683, 29.003967, 1.980164, -291.268951, 13.727970, 100.772253
1759228326.046864, 0.257227, 7.921964, -1.320253, 0.515412, -1.841549, 0.554727, 28.342056, 1.566666, -291.364685, 13.727981, 100.772222
1759228326.066894, -0.213832, 7.069778, 0.328903, -0.065828, -1.822954, 0.302507, 27.169159, 1.648682, -291.608459, 13.727981, 100.772222
1759228326.086934, -0.032322, 6.113594, 1.824232, -0.661029, -0.771798, 0.074449, 26.557831, 2.372025, -291.132446, 13.727981, 100.772222
1759228326.106930, 0.413449, 5.889287, 1.164330, -1.064879, -0.091876, -0.158483, 26.165237, 2.599655, -291.184753, 13.727981, 100.772222
1759228326.126019, -0.111480, 5.955577, -0.181660, -1.255890, 0.326057, -0.611987, 26.368973, 3.429581, -290.963074, 13.727981, 100.772222
1759228326.146916, -1.073949, 5.516091, -1.611747, -1.463611, 1.131778, -1.148917, 26.614761, 4.259735, -291.345215, 13.727981, 100.772222
1759228326.166867, -0.284760, 6.221183, -2.243217, -1.417736, 1.891062, -0.973057, 27.035614, 4.792023, -290.728546, 13.727981, 100.772222
1759228326.186887, -0.735768, 7.716063, -3.504962, -0.995451, 1.810263, -1.391984, 28.805344, 5.573059, -290.356873, 13.727981, 100.772222
1759228326.206902, -0.293439, 10.001777, -3.564517, -1.002860, 1.749564, -1.596700, 29.360229, 6.141769, -290.568726, 13.727981, 100.772222
1759228326.226179, 2.321478, 11.461492, -5.592257, -0.941164, 2.226211, -1.543450, 30.260620, 6.734238, -289.865356, 13.727981, 100.772222
1759228326.246941, 6.438308, 12.798654, -7.981221, -0.453787, 2.748103, -1.013659, 31.313766, 7.030289, -290.365234, 13.727981, 100.772222
1759228326.266927, 13.325977, 12.868984, -6.107309, -0.173040, 2.198799, 0.084646, 32.956024, 7.187439, -289.943115, 13.727981, 100.772222
1759228326.286875, 15.820286, 15.847670, -5.552004, -0.026177, 0.708798, 0.531846, 33.768539, 7.558670, -290.117004, 13.727981, 100.772222
1759228326.306933, 12.039542, 23.824401, -5.137209, 0.722623, 0.401584, 0.578735, 34.447296, 7.260849, -289.635132, 13.727981, 100.772222
1759228326.326352, 7.016956, 16.599299, -8.288726, 2.324490, 0.654483, 0.904309, 34.879059, 7.067688, -289.793152, 13.727981, 100.772222
1759228326.346899, -0.268300, 6.629395, 2.451214, 2.960848, 1.044333, 0.760446, 35.567581, 4.904388, -290.116699, 13.727981, 100.772222
1759228326.366872, -6.539911, 3.832069, 8.945635, 1.420218, 0.680659, -0.200358, 36.417999, 3.850708, -289.996246, 13.727981, 100.772222
1759228326.386888, -8.544606, 4.225916, 7.000496, -0.105627, -0.136227, -1.125229, 36.170135, 3.459717, -290.688599, 13.727981, 100.772222
1759228326.406861, -6.845023, 4.320187, 2.804358, -1.304941, 0.006542, -1.283006, 36.237015, 4.928619, -289.493103, 13.727981, 100.772222
1759228326.426537, -5.301361, 7.299921, 1.378162, -1.549773, 0.269304, -1.387204, 35.991714, 5.542282, -289.714844, 13.727981, 100.772222
1759228326.446889, -2.330456, 15.192706, -0.073472, -0.911183, 0.688401, -1.771431, 35.821075, 6.028564, -289.349792, 13.727981, 100.772222
1759228326.466870, 1.799991, 15.818640, -0.585831, -0.319842, 0.729587, -1.433861, 36.199127, 7.144745, -288.781128, 13.727981, 100.772222
1759228326.486866, 3.482067, 10.992977, 0.262464, -0.274923, 0.432272, -0.896294, 36.214508, 7.490417, -289.274963, 13.727981, 100.772222
1759228326.506897, 3.633949, 8.874258, 0.042796, -0.454060, 0.936638, -0.585519, 36.695618, 7.482040, -288.966675, 13.727981, 100.772222
1759228326.526765, 3.501520, 8.249072, -0.435445, -0.322137, 1.707186, -0.456735, 37.668060, 7.943054, -289.091522, 13.727981, 100.772222
1759228326.547078, 4.506636, 8.940996, -0.343867, -0.006457, 2.250228, -0.337349, 38.608414, 8.113235, -288.494354, 13.727981, 100.772222
1759228326.566936, 4.487632, 9.710134, 1.019780, 0.503730, 1.473582, -0.050406, 39.615387, 7.220520, -288.105255, 13.727981, 100.772222
1759228326.586872, 4.081515, 10.677092, 2.822913, 0.509685, 0.674994, 0.086172, 39.944885, 7.345459, -288.250977, 13.727981, 100.772222
1759228326.606411, 3.775656, 10.474782, 2.683601, 0.076247, 0.581113, 0.023028, 40.216629, 7.233124, -288.422791, 13.727981, 100.772222
1759228326.626868, 4.063708, 9.555109, 1.417667, -0.326984, 1.115057, -0.132743, 40.886780, 7.435852, -288.270996, 13.727981, 100.772222
1759228326.646878, 3.716250, 8.673744, -0.038756, -0.399878, 1.722390, -0.144092, 41.893234, 7.845428, -287.549988, 13.727981, 100.772222
1759228326.666875, 2.315941, 8.900894, -0.981772, -0.380537, 1.853635, 0.174074, 43.387466, 8.374161, -287.499207, 13.727981, 100.772222
1759228326.686868, 0.130185, 9.603442, -1.803283, -0.270435, 2.005558, 0.188974, 44.118881, 8.191223, -286.841156, 13.727981, 100.772222
1759228326.706875, -0.257077, 9.854085, -1.482909, -0.044398, 1.706603, -0.078247, 44.794693, 7.931610, -286.327332, 13.727981, 100.772222
1759228326.726889, 0.911443, 9.392154, -0.627879, 0.023861, 0.845374, -0.487765, 45.228043, 8.275436, -285.858704, 13.727981, 100.772222
1759228326.746930, 2.778920, 9.537153, -0.240617, -0.131353, 0.189574, -0.615998, 45.337372, 8.190308, -286.486206, 13.727981, 100.772222
1759228326.766941, 3.431041, 9.822362, -0.280271, -0.322348, 0.292668, -0.595679, 45.629166, 8.530563, -286.111938, 13.727981, 100.772222
1759228326.786869, 3.681235, 10.033950, -0.324564, -0.429321, 0.871250, -0.480458, 46.003860, 9.287430, -285.527832, 13.727981, 100.772222
1759228326.806869, 3.818602, 10.065972, -0.195127, -0.488487, 1.425416, -0.374651, 46.430054, 9.808228, -285.167877, 13.727981, 100.772222
1759228326.826891, 3.798700, 9.412505, -0.064195, -0.357099, 1.268224, -0.323030, 46.903992, 9.794006, -284.734924, 13.727981, 100.772222
1759228326.846885, 3.527557, 9.400833, 0.774824, 0.044648, 0.251776, -0.140749, 47.462189, 9.761230, -284.854919, 13.727981, 100.772222
1759228326.866885, 1.959804, 9.915736, 1.879598, 0.222724, -0.717778, 0.083107, 47.031052, 9.903336, -284.351593, 13.727981, 100.772222
1759228326.886871, 0.466271, 10.105626, 2.216432, 0.117779, -0.945618, 0.041613, 46.204498, 9.940460, -285.187439, 13.727981, 100.772222
1759228326.906879, -0.811036, 9.319580, 2.042254, -0.079080, -0.659336, -0.104149, 45.794281, 9.803574, -285.138794, 13.727981, 100.772222
1759228326.926866, -1.583764, 8.652046, 1.445350, -0.245317, 0.034172, -0.087763, 45.639969, 9.898376, -285.124084, 13.727981, 100.772222
1759228326.946950, -1.693898, 8.371027, 0.754473, -0.279876, 0.648799, -0.180896, 46.422989, 10.076553, -284.486450, 13.727981, 100.772222
1759228326.966944, -1.236755, 9.003844, -0.073771, -0.363283, 1.165002, -0.204541, 46.994385, 10.716812, -284.509308, 13.727981, 100.772222
1759228326.986872, -0.792630, 9.858425, -0.888698, -0.226401, 1.412154, -0.276959, 47.748993, 10.947632, -283.691956, 13.727981, 100.772222
1759228327.006879, -0.036661, 10.261698, -0.877774, 0.175707, 1.206850, -0.355367, 47.823715, 10.669647, -283.326965, 13.727981, 100.772222
1759228327.026890, 1.209970, 10.496479, 0.219219, 0.388088, 0.482940, -0.411576, 47.615509, 10.802795, -283.487122, 13.727981, 100.772222
1759228327.046946, 2.474557, 10.140491, 1.135749, 0.262125, -0.470927, -0.343468, 47.789703, 10.685379, -283.458435, 13.727982, 100.772196
1759228327.066880, 3.103035, 9.893290, 1.217751, 0.128135, -1.144511, -0.190224, 47.211395, 10.694870, -284.372070, 13.727982, 100.772196
1759228327.085911, 2.891896, 9.833136, 1.080533, 0.106939, -0.975649, -0.027697, 46.444290, 10.695099, -284.381866, 13.727982, 100.772196
1759228327.106886, 1.870919, 9.917382, 1.273416, 0.122871, -0.091415, 0.078507, 46.429047, 10.256195, -284.764893, 13.727982, 100.772196
