SamplingTime, AccelerationX, AccelerationY, AccelerationZ, GyroX, GyroY, GyroZ, MagneticFieldX, MagneticFieldY, MagneticFieldZ, Latitude, Longitude
1759228119.649588, -1.376067, -4.866215, -6.981043, -0.103931, 0.019900, -0.217062, 102.576599, 158.326904, -613.088257, , 
1759228119.668962, -1.397017, -5.045032, -6.606201, -0.008848, 0.642634, -0.186857, 102.988464, 158.553024, -613.179810, , 
1759228119.689580, -0.708983, -5.173421, -6.676381, 0.047219, 0.970920, -0.151122, 103.612411, 158.439377, -613.437561, , 
1759228119.709599, -0.294038, -4.768950, -6.451027, 0.104089, 0.756098, -0.136251, 103.841339, 158.436447, -612.864746, , 
1759228119.729594, -0.544082, -4.157830, -6.252009, 0.145555, 0.271289, -0.254308, 104.268661, 158.334686, -613.308533, , 
1759228119.749603, -0.915333, -4.056077, -6.830208, 0.135047, 0.035405, -0.544132, 104.201385, 158.338333, -613.232727, , 
1759228119.769589, -0.665887, -4.326322, -7.343166, 0.007430, 0.274725, -0.760723, 104.393036, 158.202957, -613.369202, , 
1759228119.789589, -0.211737, -3.372532, -7.382970, 0.125614, 0.089836, -1.063315, 104.117950, 158.461655, -613.436707, , 
1759228119.809582, -1.440860, -4.684405, -8.090307, 0.252830, -0.613043, -1.110684, 103.253326, 158.425583, -613.172119, , 
1759228119.829612, -2.398691, -5.373935, -7.317578, -0.286883, 0.196261, -1.167490, 103.016068, 158.562622, -613.272583, , 
1759228119.849590, -2.001104, -4.768651, -6.777087, -0.592808, 0.370731, -1.349781, 102.697464, 159.150284, -613.288879, , 
1759228119.869618, -0.106093, -3.776255, -6.812402, -0.644513, 0.490471, -1.599644, 102.252701, 159.735687, -613.324097, , 
1759228119.889590, 0.957531, -2.773383, -5.051616, -0.972630, 1.040588, -1.695941, 102.448364, 160.520950, -613.291138, , 
1759228119.909585, -0.479738, -2.788347, -3.606266, -1.467580, 1.183980, -2.197278, 102.214722, 161.853821, -612.483154, , 
1759228119.929593, -1.859995, -1.263839, -4.384083, -1.511645, 1.028490, -2.651309, 102.114609, 163.360596, -611.126953, , 
1759228119.949587, 6.801328, -2.952649, -8.499715, -0.595558, 1.185199, -2.068922, 102.484207, 164.283249, -610.781982, , 
1759228119.969599, 10.054600, -5.301062, -9.112332, 0.373149, 0.080109, -1.048764, 101.577942, 163.937607, -611.505249, , 
1759228119.989605, 5.898116, -4.989516, -7.828441, 1.485770, -2.043528, 0.580591, 100.140961, 162.603806, -612.301270, , 
1759228120.009589, 2.133234, -2.457349, -6.913407, 2.669565, -5.733420, 1.484120, 96.373505, 160.306549, -614.195312, , 
1759228120.029581, -0.441132, -3.053954, -7.670424, 1.740463, -7.211969, 1.130399, 90.506470, 158.285355, -615.042236, , 
1759228120.049392, -3.886986, -3.613748, -7.138163, 0.234546, -7.013537, 0.308117, 85.717850, 158.453720, -613.430359, , 
1759228120.069602, -5.815217, -2.732832, -8.441805, -2.964946, -5.527042, -0.584766, 81.703232, 160.536697, -610.857300, , 
1759228120.089590, -4.717475, -4.903026, -8.688109, -3.163197, -6.469129, 0.257218, 77.156860, 162.868149, -607.556763, , 
1759228120.109576, -6.334459, -4.851550, -7.853879, -2.329379, -6.655144, 1.012787, 72.233627, 165.498611, -601.914612, , 
1759228120.129581, -9.751883, -2.776675, -11.594520, -0.591808, -3.291720, 0.880420, 71.210159, 166.169617, -599.784851, , 
1759228120.149569, -9.433304, -2.797026, -8.108413, -0.113903, -2.302771, 0.975801, 71.049576, 166.815430, -599.219116, , 
1759228120.169594, -6.953360, -3.332130, -3.673753, -0.298517, -1.927740, 1.281402, 70.984634, 167.926178, -597.473328, , 
1759228120.189584, -7.043592, -3.021183, -4.496610, -0.855824, -2.398643, 2.086640, 71.541443, 169.581223, -595.495667, , 
1759228120.208712, -6.678626, 0.376039, -0.419285, -0.864767, -3.595286, 3.194827, 71.793869, 170.803619, -594.133606, , 
1759228120.229577, -7.642292, 2.558354, 0.766294, -2.086811, -5.866606, 5.320984, 73.724182, 175.129730, -589.243958, , 
1759228120.249585, -7.430255, 2.651129, 1.721431, -2.751521, -6.222686, 5.783017, 76.307175, 178.302353, -584.920776, , 
1759228120.269168, -5.626673, 4.286220, 0.282067, -3.747979, -6.523819, 6.502878, 80.691132, 181.120773, -579.544556, , 
1759228120.289572, -5.106234, 7.171681, -1.328333, -4.082005, -6.514800, 6.942210, 86.717682, 183.027939, -574.803223, , 
1759228120.308905, -6.694936, 10.117148, -6.478261, -4.031382, -4.906147, 7.203501, 89.342590, 183.759338, -573.567139, , 
1759228120.329577, -8.554333, 10.957214, -5.231630, -4.445829, -0.929756, 5.539889, 97.443558, 183.744476, -568.532288, , 
1759228120.349585, -12.606370, 10.077045, -7.761852, -4.481995, 1.073704, 4.295624, 100.940231, 182.691681, -564.147095, , 
1759228120.369580, -11.453861, 11.734132, -7.279271, -4.679238, 4.119226, 1.632405, 102.079529, 181.176437, -558.478027, , 
1759228120.389587, -8.794052, 13.449428, -8.094048, -4.809866, 6.232436, 0.430623, 100.844696, 179.083450, -551.496094, , 
1759228120.409569, -9.229647, 14.210335, -7.771728, -5.307641, 7.427159, 0.441573, 97.706650, 176.579651, -546.003113, , 
1759228120.429609, -5.954529, 17.039533, -11.365126, -2.954355, 5.464764, 1.541175, 94.951080, 175.091293, -543.602234, , 
1759228120.449611, -8.953865, 14.022390, -12.221502, -1.629059, 5.231857, 1.750187, 92.902878, 175.124954, -542.922974, , 
1759228120.469579, -11.108198, 8.439710, -7.163002, 0.123209, 3.103293, 1.555208, 92.484589, 175.774078, -543.615234, , 
1759228120.489604, -8.559271, 10.005069, -5.848735, 0.816787, -0.126220, 1.511726, 94.300156, 176.841187, -543.607361, , 
1759228120.509564, -7.665934, 9.951200, -5.665429, 1.369823, -1.031323, 1.843125, 96.536987, 178.003021, -544.850220, , 
1759228120.529112, -11.968315, 7.670274, -3.160945, 2.007420, -3.525422, 1.798962, 99.637939, 179.198074, -546.978577, , 
1759228120.549590, -14.460828, 7.272537, -3.223344, 2.504881, -4.317248, 1.396054, 102.786285, 180.707993, -549.596863, , 
1759228120.569572, -11.189750, 6.989273, -0.453402, 3.240055, -5.427557, 0.315077, 105.150314, 182.173340, -553.304138, , 
1759228120.589594, -7.120655, 7.881562, 1.534983, 3.536414, -5.155605, 0.032160, 106.552231, 183.669235, -557.121338, , 
1759228120.609606, -5.290587, 7.591265, 3.164985, 3.545856, -4.377607, -0.133839, 107.739395, 184.800369, -561.392029, , 
1759228120.629594, -3.576788, 7.706486, 3.608960, 3.449006, -2.977976, -0.053258, 108.266846, 185.571243, -565.526672, , 
1759228120.649567, -3.104681, 9.180716, 4.519355, 3.433079, -2.552855, 0.247260, 109.159470, 185.823654, -568.693237, , 
1759228120.668831, -5.198710, 10.417171, 4.761319, 3.199793, -1.649323, 0.698558, 110.222092, 185.921967, -572.057068, , 
1759228120.689585, -7.781904, 10.668712, 6.006753, 2.550980, -1.427164, 1.159948, 111.472076, 185.524216, -574.419617, , 
1759228120.709053, -10.858004, 9.066542, 4.818630, 1.373865, -1.367395, 1.267550, 112.524689, 185.247894, -575.455627, , 
1759228120.729594, -11.894843, 8.517971, 2.772934, -0.100708, -0.664604, 0.771741, 113.010818, 184.987442, -575.288147, , 
1759228120.749592, -11.333402, 8.281244, 0.735618, -1.070964, 0.054654, 0.039837, 113.030121, 185.000900, -574.218811, , 
1759228120.769569, -8.752004, 9.185804, -1.490391, -1.251044, 0.489690, -0.479615, 113.116928, 185.295944, -572.107544, , 
1759228120.789599, -6.003461, 10.531943, 1.658434, -1.164980, 0.016991, 0.024130, 112.996155, 185.228897, -571.668457, , 
1759228120.809572, -9.324518, 5.716306, -1.856853, -1.365592, -1.952977, 0.339221, 114.460388, 184.789658, -569.765747, , 
1759228120.829599, -2.802114, 15.316456, 7.298275, -0.572467, -3.762141, 2.091662, 115.349777, 183.755676, -573.143311, , 
1759228120.849572, -11.767052, 6.354810, 3.901352, -1.309128, -7.824150, 2.300942, 116.969162, 182.956070, -574.939575, , 
1759228120.868866, -10.238504, 8.443302, 1.691952, -1.626866, -4.532705, 0.919480, 116.966873, 182.797852, -574.861389, , 
1759228120.889575, -6.630143, 7.921515, 2.533814, -2.290965, -0.567424, -0.793063, 116.260468, 182.952057, -572.070801, , 
1759228120.909574, -3.479673, 8.530690, 1.984195, -2.580022, 1.145296, -1.294519, 115.415436, 183.323074, -569.117126, , 
1759228120.929578, -1.248875, 9.327211, 0.600795, -2.636085, 1.709546, -0.882796, 114.716202, 183.225082, -566.706055, , 
1759228120.949595, 0.030975, 7.078308, 0.198569, -2.468924, 1.281589, 0.085130, 114.697586, 182.663834, -564.583069, , 
1759228120.969577, -0.634164, 6.045210, -1.928529, -1.940610, 1.924926, 0.479310, 114.038376, 182.089783, -562.239014, , 
1759228120.989601, 1.070507, 6.824223, 0.139313, -0.819436, 4.187924, 0.036370, 113.525970, 181.811127, -559.430847, , 
1759228121.009574, 0.727837, 5.090372, 3.050363, -1.431664, 4.959233, 0.269470, 112.660782, 181.140381, -555.990601, , 
1759228121.029597, -1.234959, 6.167314, 2.779219, -1.970648, 4.611071, 0.914907, 112.356888, 179.989075, -553.235413, , 
1759228121.049592, -6.102521, 5.291635, 1.665018, -2.254267, 3.812266, 1.493425, 112.228195, 178.587967, -550.390625, , 
1759228121.069574, -11.254693, 3.845686, -3.822343, -1.845803, 2.780366, 1.208073, 111.939316, 177.728302, -548.440063, , 
1759228121.089589, -13.330765, 2.238728, -7.207146, 0.427826, 0.839197, 0.353393, 111.789444, 177.862198, -548.143799, , 
1759228121.109569, -14.818313, 0.730531, -2.794183, 0.640704, 0.908200, -0.404629, 110.981552, 178.177917, -547.921631, , 
1759228121.129600, -13.034483, 2.438794, -2.663549, 0.210511, 1.161023, -1.107853, 109.392807, 178.894974, -548.591675, , 
1759228121.149587, -7.370400, 5.203049, -0.870292, 0.624172, 0.601629, -1.105310, 108.238815, 179.381851, -548.980225, , 
1759228121.169573, -7.578845, 5.818060, 2.408567, 0.480201, 0.565636, -0.632111, 107.090637, 179.721436, -548.984436, , 
1759228121.189612, -7.160010, 5.880010, 1.553388, -0.205553, 1.691751, -0.700937, 105.664017, 179.766449, -548.419495, , 
1759228121.209557, -5.832874, 5.713912, -1.900547, -0.194177, 1.865774, -0.832846, 103.857544, 179.824783, -547.731506, , 
1759228121.229572, -5.552453, 5.742193, -1.177199, 0.059097, 1.436545, -1.031592, 102.340271, 180.211075, -548.166199, , 
1759228121.249392, -5.835717, 5.924302, -2.399589, 0.046337, 1.389211, -1.230909, 100.711655, 180.289291, -548.015991, , 
1759228121.269560, -7.666234, 7.965210, 0.762254, -0.280387, 1.220265, -1.234250, 99.100281, 180.248230, -546.885620, , 
1759228121.289568, -8.939201, 8.939051, 2.717419, -0.789431, 0.753268, -1.347561, 97.782867, 179.807678, -546.257080, , 
1759228121.309578, -6.339547, 7.007978, 2.195034, -1.181561, -0.630837, -1.244523, 97.170761, 179.162704, -545.010132, , 
1759228121.329588, -7.337181, 0.531812, -5.340267, 0.126184, -1.755958, -0.494803, 97.973785, 179.563950, -545.933960, , 
1759228121.349134, -12.274024, 2.939481, 2.222567, 0.978241, -1.032906, -0.225935, 98.428757, 180.106873, -546.804504, , 
1759228121.369221, -13.753043, 6.902034, 4.168155, 0.721140, -0.899486, -0.633501, 98.310516, 180.500549, -546.560974, , 
1759228121.389567, -9.392752, 6.603059, 1.878999, 0.612342, -1.209581, -0.795139, 98.216766, 180.849304, -547.057922, , 
1759228121.409546, -6.864326, 5.971588, -0.844106, 0.524976, -1.623936, -0.570060, 98.072449, 181.051208, -547.891541, , 
1759228121.429596, -5.329792, 6.420800, -0.774674, 0.660784, -1.334237, -0.568179, 98.326691, 181.372025, -549.324402, , 
1759228121.449582, -8.604611, 2.305467, -3.417124, 0.417153, -0.022444, -0.805417, 97.566895, 181.806839, -549.575439, , 
1759228121.469565, -10.230124, 3.396624, 0.105644, 0.367428, 0.605509, -0.867842, 97.014664, 181.957962, -549.399475, , 
1759228121.489588, -12.805687, 3.147777, 1.994071, 0.437222, 0.536814, -0.928493, 96.007629, 182.097305, -549.961365, , 
1759228121.509369, -11.097873, 3.343652, 2.657564, 0.328018, 0.409616, -1.043728, 94.414505, 182.006134, -549.603394, , 
1759228121.529579, -6.622511, 4.436605, 0.537947, 0.192753, 0.692104, -0.931096, 93.057770, 182.210495, -551.133240, , 
1759228121.549577, -7.499238, -1.212514, -0.977882, 0.336930, 1.781081, -0.831433, 91.276367, 182.388702, -551.516479, , 
1759228121.569556, 1.243339, 3.207781, -2.069638, 0.339009, 3.260329, -0.134895, 89.739517, 182.543549, -551.894165, , 
1759228121.589564, -1.100285, 7.821707, 0.301969, 0.146479, 2.976158, 1.493849, 90.284332, 182.455795, -551.674561, , 
1759228121.609581, -5.032762, 13.031939, 0.902464, -0.209732, 2.154609, 2.482424, 91.381851, 182.607132, -551.319763, , 
1759228121.629594, -5.254076, 12.186486, 0.517148, -0.716058, 0.858314, 3.072110, 93.598892, 182.552200, -551.675049, , 
1759228121.649602, -12.130073, 12.526164, -4.134188, -0.457741, -0.181016, 2.818341, 96.072739, 182.488342, -551.220154, , 
1759228121.669554, -13.483844, 10.920403, -0.784550, -0.041494, 0.113833, 1.315625, 96.984863, 182.527710, -551.007690, , 
1759228121.689577, -7.942315, 7.079056, -0.261716, -0.243967, -0.042191, 0.103541, 97.163437, 182.381287, -551.234802, , 
1759228121.709580, -6.977003, 8.792706, -2.776975, 0.117941, 0.754197, -0.100641, 97.050293, 182.274124, -550.193359, , 
1759228121.729577, -4.377199, 7.608174, -4.922628, 0.153866, 1.923775, 0.694747, 97.913559, 182.539780, -550.438477, , 
1759228121.749577, -4.426729, 6.630891, 0.950947, 0.669187, 1.923023, 3.184030, 98.895081, 182.639297, -551.769043, , 
1759228121.769554, -4.681712, 4.790049, 3.405004, -0.697030, -1.791161, 4.029572, 102.908142, 181.967346, -551.236389, , 
1759228121.789576, -5.503372, 4.256442, 2.310704, -1.172173, -3.439136, 4.364565, 107.539658, 180.790710, -551.818787, , 
1759228121.809561, -5.881656, 3.762937, -3.293524, -1.489651, -2.699360, 4.233990, 112.505386, 178.905594, -550.592407, , 
1759228121.829559, -6.085462, 5.124190, -1.599327, -0.664141, -1.587272, 3.700988, 115.729095, 177.515335, -551.637024, , 
1759228121.848950, -6.136638, 6.107309, -0.576254, -0.145069, -1.133169, 3.007747, 118.506577, 176.038589, -552.077148, , 
1759228121.869552, -5.043984, 8.045116, 0.583138, 0.089525, -1.531905, 2.077058, 120.301880, 175.105438, -552.326599, , 
1759228121.889583, -3.280954, 6.878841, 1.054945, -0.043639, -1.451273, 1.321206, 122.090347, 174.732925, -553.346375, , 
1759228121.909561, -1.465551, 5.322909, -3.086276, 0.027105, -0.056241, 1.317323, 122.932617, 173.855698, -553.095093, , 
1759228121.929563, -1.536180, 5.213374, 1.140687, -0.009874, -0.199484, 1.081196, 123.644653, 173.493057, -553.715759, , 
1759228121.949572, -1.486799, 5.595399, 1.572542, -0.677441, -0.688422, 0.998149, 124.620010, 172.620193, -553.619324, , 
1759228121.969551, -1.162235, 5.971289, 0.714370, -0.842966, -0.743122, 1.097623, 125.709335, 171.715424, -552.489624, , 
1759228121.989579, -0.066738, 7.632715, 0.528370, -0.755347, -0.432007, 1.602708, 126.941147, 170.670288, -553.059448, , 
1759228122.009578, 0.431106, 7.237372, 0.623390, -0.167776, -0.485884, 2.685278, 128.627991, 168.703293, -551.894104, , 
1759228122.029587, -4.449624, 23.672070, -2.283320, 0.033570, -0.341092, 2.855069, 128.757355, 167.826706, -551.615234, , 
1759228122.049582, -9.326762, 46.702644, 3.209128, 0.941632, 1.257097, 1.086095, 129.400986, 167.687057, -552.322327, , 
1759228122.069552, 0.631620, 11.706748, -1.682376, -0.760053, -0.016743, -0.438967, 129.319290, 167.520309, -552.618286, , 
1759228122.089575, 1.192462, 4.640412, -1.226280, -0.096292, -0.571374, 0.190036, 129.288773, 167.406677, -553.845276, , 
1759228122.109578, -0.364517, 5.023783, 0.045041, 0.233492, -0.021507, 0.176500, 129.434311, 167.450150, -552.118042, , 
1759228122.129578, -0.172532, 9.437045, 1.837699, 0.190876, 0.554976, -0.027815, 129.376556, 167.500992, -552.742676, , 
1759228122.149571, -1.459266, 9.829245, 1.175403, -0.036159, -0.008857, 0.069417, 129.491928, 167.438904, -552.639771, , 
1759228122.169115, -1.389984, 9.736919, -0.195277, -0.044419, -0.081341, 0.026582, 129.357162, 167.366882, -552.205688, , 
1759228122.189581, -1.312172, 10.014048, 0.182708, -0.009996, 0.057704, -0.019994, 129.343582, 167.429886, -552.698975, , 
1759228122.209574, -0.877176, 10.119542, 0.160860, -0.016201, -0.058538, -0.058386, 129.276627, 167.387451, -552.115723, , 
1759228122.229573, -0.563834, 9.743503, 0.192883, 0.045246, -0.128907, -0.053316, 129.329391, 167.655991, -552.991333, , 
1759228122.249583, -0.726341, 9.857228, 0.250793, 0.040042, -0.086583, -0.031570, 129.326294, 167.604095, -553.044800, , 
1759228122.269554, -0.910994, 10.025420, 0.083797, 0.031920, 0.020466, -0.011013, 129.427322, 167.618515, -552.769470, , 
1759228122.289575, -0.758064, 10.254066, 0.159514, 0.029789, 0.061146, 0.028384, 129.266434, 167.754822, -552.942871, , 
1759228122.309576, -0.998532, 8.945186, 0.153229, 0.005151, 0.113190, 0.038647, 129.386093, 167.521225, -552.025818, , 
1759228122.329578, -1.161637, 9.738565, 0.185401, 0.034898, 0.066040, -0.076987, 129.586548, 167.614655, -552.705750, , 
1759228122.349572, -1.048810, 10.506355, 0.168193, -0.041345, -0.040574, -0.033428, 129.457047, 167.785660, -552.781372, , 
1759228122.369548, -0.751480, 9.576507, -0.064195, -0.008963, -0.085182, -0.031665, 129.231781, 167.735062, -552.588745, , 
1759228122.389580, -0.534206, 9.632322, 0.116268, -0.009254, -0.058690, -0.067737, 129.323364, 167.659439, -552.659241, , 
1759228122.409548, -0.567127, 9.734824, 0.067636, -0.053038, -0.107268, -0.052960, 129.441284, 167.640823, -551.950439, , 
1759228122.429571, -0.881365, 10.222194, -0.237774, -0.053510, -0.104081, -0.018660, 129.566528, 167.808167, -552.634521, , 
1759228122.449567, -1.035193, 10.097695, -0.330101, -0.053938, -0.106261, 0.005495, 129.538467, 167.917786, -553.050781, , 
1759228122.469547, -1.137695, 9.586683, -0.112677, -0.052827, -0.051149, 0.017994, 129.351425, 167.743088, -552.578491, , 
1759228122.489571, -1.257854, 9.146748, 0.030077, -0.085269, -0.118523, -0.040678, 129.443375, 167.912033, -553.209045, , 
1759228122.509575, -0.748637, 10.078841, 0.038307, 0.030611, -0.016596, -0.155174, 129.143539, 167.934143, -552.379700, , 
1759228122.528745, -0.928352, 9.535507, 0.110582, -0.013662, 0.013055, -0.025454, 129.509308, 167.899292, -552.953735, , 
1759228122.549571, -1.265934, 9.392453, 0.065990, -0.041086, 0.036281, -0.010300, 129.513809, 167.935104, -552.592773, , 
1759228122.569550, -2.546084, 11.005098, 0.037409, -0.031081, 0.102338, 0.155474, 129.605316, 167.831970, -552.137573, , 
1759228122.589571, -2.570175, 10.474632, 0.329801, -0.012786, 0.237049, 0.159147, 129.137360, 167.614288, -552.522583, , 
1759228122.609541, -1.445350, 8.984990, 0.882563, -0.023686, 0.204169, 0.010382, 129.158401, 167.625809, -551.695435, , 
1759228122.629639, -0.671424, 9.562441, 0.915932, -0.073816, 0.218871, -0.064158, 128.922775, 167.861038, -552.286255, , 
1759228122.649572, -0.337882, 9.439589, 0.589572, -0.148472, 0.075518, -0.067589, 128.618134, 167.771378, -551.897827, , 
1759228122.669098, -0.501136, 9.571869, 0.004639, -0.060611, -0.136450, 0.002990, 128.922974, 167.785309, -551.984619, , 
1759228122.688883, -0.345214, 10.256311, 1.445649, 0.024311, -0.324526, 0.092862, 129.283081, 167.674545, -552.661194, , 
1759228122.709574, -0.833033, 9.812486, 0.093524, -0.081011, -0.733353, 0.083507, 129.674957, 167.405350, -552.356506, , 
1759228122.729576, -1.229572, 9.200169, -0.610970, -0.040089, 0.108644, 0.074622, 129.539948, 167.734039, -552.526978, , 
1759228122.749569, -1.943643, 9.390957, -0.161160, -0.064104, 0.465965, 0.049822, 129.540329, 167.688721, -552.175537, , 
1759228122.768590, -1.886182, 9.421034, 0.279822, -0.033988, 0.470557, -0.005252, 129.171021, 167.597183, -552.248657, , 
1759228122.789571, -0.392350, 10.187927, 1.365742, 0.031068, 0.272634, -0.115753, 128.837097, 167.675339, -551.908691, , 
1759228122.809566, 0.283414, 10.019285, 1.217601, 0.009894, -0.003967, -0.074603, 128.742508, 167.618408, -551.469604, , 
1759228122.829574, -0.175675, 9.676016, 0.368109, -0.022817, -0.020775, -0.037041, 129.013702, 167.708023, -552.241028, , 
1759228122.849565, -0.928801, 9.824008, 0.270545, 0.018522, 0.025657, -0.025676, 128.964859, 167.559433, -551.917908, , 
1759228122.868914, -0.918176, 9.766397, 0.569970, 0.132580, -0.083562, -0.048240, 128.950302, 167.909668, -551.988159, , 
1759228122.889573, -0.778864, 9.595212, 0.524480, 0.145209, -0.163124, -0.059301, 129.095963, 168.039566, -552.672668, , 
1759228122.909543, -0.678158, 9.645939, 0.560991, 0.135152, -0.197772, -0.081700, 128.948715, 167.893539, -551.909668, , 
1759228122.929570, -0.648230, 9.460987, 0.832733, 0.150821, -0.408974, -0.144631, 129.159622, 168.288528, -552.895996, , 
1759228122.949567, -1.180042, 9.658958, -0.081702, -0.110981, -0.207502, -0.140859, 129.374008, 168.293060, -552.523315, , 
1759228122.969542, -1.973421, 10.078242, -0.363470, -0.137380, 0.022364, 0.094554, 129.532043, 168.068863, -552.637207, , 
1759228122.989568, -1.992874, 9.430012, -0.315735, -0.162220, 0.335274, 0.185820, 129.145615, 168.140976, -552.299377, , 
1759228123.009544, -1.827075, 9.652224, 0.276231, -0.164515, 0.615015, 0.160526, 128.801147, 167.707794, -551.031189, , 
1759228123.029568, -1.158045, 10.249577, 0.979677, -0.125017, 0.617032, 0.051760, 128.826706, 167.797760, -551.650757, , 
1759228123.049566, -1.203535, 10.473734, 1.193061, -0.160487, 0.192714, 0.070913, 128.548645, 167.564621, -551.143311, , 
1759228123.068720, -0.994342, 10.029011, 0.294337, -0.177392, -0.133183, 0.070184, 128.950974, 167.655579, -550.953613, , 
1759228123.089564, -1.051204, 9.831041, -0.339827, -0.084531, -0.309290, 0.039149, 129.043640, 167.561218, -551.740845, , 
1759228123.109123, -1.106121, 9.661352, -0.195427, 0.032677, -0.122986, 0.031099, 128.974304, 167.514069, -550.784485, , 
1759228123.129567, -1.391630, 9.656563, 0.260369, 0.079605, 0.166543, 0.031777, 128.873764, 167.727921, -551.891907, , 
1759228123.149566, -1.410634, 9.756671, 0.687884, 0.057744, 0.354121, 0.024342, 128.474838, 167.429413, -551.109009, , 
1759228123.169503, -1.451485, 9.636662, 1.871966, 0.059009, -0.015541, 0.022370, 128.852341, 167.672318, -551.940491, , 
1759228123.189565, -1.690905, 9.566033, 1.490839, -0.038708, -0.252759, 0.047457, 128.862701, 167.542694, -551.865295, , 
1759228123.209566, -0.734421, 9.854833, 0.017957, -0.059183, -0.097350, 0.012270, 128.960587, 167.509293, -550.863647, , 
1759228123.229575, -1.049109, 9.698163, 0.788441, -0.007297, -0.021093, 0.088441, 129.059189, 167.487320, -551.697266, , 
1759228123.249265, -1.313070, 9.649082, 0.380379, -0.024943, 0.048842, 0.103191, 129.117264, 167.413635, -551.571167, , 
1759228123.269420, -1.176600, 9.789292, 0.229095, 0.002405, 0.023832, 0.074473, 128.983917, 167.243469, -551.555969, , 
1759228123.289572, -0.808941, 9.852888, 0.321272, 0.022865, -0.047403, 0.059088, 129.033264, 167.506226, -551.547119, , 
1759228123.309564, -0.645237, 9.552116, 0.027384, 0.004506, 0.068353, 0.049532, 129.138153, 167.196426, -550.789856, , 
1759228123.329570, -0.804152, 9.679608, 0.346411, 0.011945, 0.062589, 0.050252, 128.921432, 167.120789, -551.130005, , 
1759228123.349564, -1.059434, 9.650877, 0.201861, -0.028652, 0.041365, 0.051841, 129.313217, 167.157974, -550.925537, , 
1759228123.369029, -1.010503, 9.646388, 0.033968, -0.039220, 0.094002, 0.057887, 128.864182, 167.252533, -551.102905, , 
1759228123.389395, -0.890793, 9.767894, 0.208894, -0.041264, 0.137355, 0.084240, 128.839661, 167.107025, -551.162231, , 
1759228123.408704, -0.855329, 9.805154, 0.433351, -0.042060, 0.160720, 0.115401, 128.746201, 166.897278, -550.309875, , 
1759228123.428858, -0.771681, 9.789741, 0.347010, -0.076089, 0.239112, 0.132356, 128.531937, 166.842575, -550.711060, , 
1759228123.449564, -0.857124, 9.944766, 0.513257, -0.097533, 0.310819, 0.152842, 128.607880, 166.528763, -550.145142, , 
1759228123.468713, -0.938826, 9.913042, 0.471209, -0.089801, 0.208063, 0.142078, 128.627670, 166.367340, -549.903320, , 
1759228123.489552, -0.999729, 9.861417, 0.441880, -0.069494, 0.164046, 0.131442, 128.620560, 166.449631, -550.049622, , 
1759228123.509378, -0.862661, 9.843760, 0.503531, -0.031428, 0.129964, 0.100486, 128.232712, 166.228989, -549.197266, , 
1759228123.528690, -0.691924, 9.771186, 0.523133, -0.005894, 0.110114, 0.079742, 128.449097, 166.294022, -549.689880, , 
1759228123.549572, -0.571316, 9.717466, 0.549170, 0.019076, 0.093871, 0.059149, 128.538010, 166.129349, -549.843384, , 
1759228123.569538, -0.533907, 9.769540, 0.666037, 0.021216, 0.054954, 0.056639, 128.279083, 166.110611, -549.694458, , 
1759228123.589546, -0.595258, 9.795876, 0.773028, 0.018230, 0.033110, 0.065156, 128.574524, 166.248489, -550.200134, , 
1759228123.609336, -0.806996, 9.851392, 0.773028, 0.022068, -0.060858, 0.061353, 128.451096, 165.988602, -549.304932, , 
1759228123.629567, -0.540042, 9.833136, 0.640150, 0.024632, -0.058520, 0.032434, 128.712265, 165.899048, -549.855530, , 
1759228123.649571, -0.475698, 9.691579, 0.801309, 0.057597, -0.066217, 0.034312, 128.515320, 166.013153, -549.542908, , 
1759228123.668709, -0.506523, 9.673921, 0.820313, 0.046589, -0.042930, 0.040375, 128.729065, 165.968552, -550.162842, , 
1759228123.689546, -0.507870, 9.630377, 0.801459, 0.072711, -0.101619, 0.045801, 128.436859, 166.259735, -550.649658, , 
1759228123.709372, -0.699406, 9.669881, 0.802357, 0.085326, -0.134505, 0.050512, 128.809479, 165.914902, -550.115234, , 
1759228123.729559, -0.737713, 9.828347, 0.799065, 0.087357, -0.097690, 0.034055, 128.680405, 165.861740, -550.746582, , 
1759228123.749557, -0.715118, 9.743204, 0.748787, 0.085609, -0.088559, 0.025281, 128.762512, 165.932266, -550.501587, , 
1759228123.769536, -0.718709, 9.778518, 0.785149, 0.103946, -0.086302, 0.031969, 128.825531, 166.224457, -551.024963, , 
1759228123.789546, -0.698359, 9.856779, 0.679953, 0.102521, -0.080132, 0.041517, 128.743118, 166.283081, -551.209778, , 
1759228123.809373, -0.555305, 9.887903, 0.605134, 0.112802, -0.066450, 0.059783, 128.985092, 166.144089, -550.504150, , 
1759228123.829547, -0.569970, 9.914239, 0.545429, 0.117049, -0.081747, 0.084452, 129.037216, 166.327408, -550.762207, , 
1759228123.849545, -0.616806, 9.857377, 0.390554, 0.121354, -0.083660, 0.108012, 129.231598, 166.246078, -550.611694, , 
1759228123.869535, -0.666935, 9.826552, 0.277727, 0.131028, -0.065417, 0.128303, 129.084457, 166.239990, -551.126526, , 
1759228123.889535, -0.803105, 9.877429, 0.172083, 0.140507, -0.063228, 0.152867, 129.244064, 166.329468, -551.616211, , 
1759228123.909539, -0.859818, 9.837475, 0.141856, 0.157878, -0.062338, 0.164756, 129.554337, 166.216110, -551.272400, , 
1759228123.929561, -1.037438, 9.835081, 0.134075, 0.170471, -0.054805, 0.165547, 129.639603, 166.174408, -551.765686, , 
1759228123.949559, -1.122282, 9.833435, 0.097713, 0.182640, -0.011966, 0.150602, 129.468262, 166.116043, -551.306519, , 
1759228123.969539, -1.161637, 9.794529, 0.007931, 0.186053, 0.000705, 0.147744, 129.781311, 166.275635, -551.775391, , 
1759228123.989560, -1.170914, 9.767744, -0.162506, 0.201841, 0.011375, 0.131689, 129.525070, 166.293472, -552.502075, , 
1759228124.009559, -1.111658, 9.899575, -0.249596, 0.238577, -0.006795, 0.112046, 129.813568, 166.209137, -551.697937, , 
1759228124.029566, -0.955286, 9.854534, -0.413748, 0.310774, -0.003753, 0.097654, 129.928055, 166.200180, -552.098999, , 
1759228124.049554, -0.880019, 9.747244, -0.681150, 0.384499, 0.036766, 0.083474, 129.795944, 166.365540, -551.611023, , 
1759228124.069534, -0.996886, 9.705345, -1.108216, 0.437402, 0.059354, 0.072255, 129.923355, 166.551727, -552.685852, , 
1759228124.089560, -1.409886, 9.993248, -1.448941, 0.585750, 0.059911, 0.028148, 130.040436, 166.743713, -553.204468, , 
1759228124.109558, -1.736395, 9.955091, -1.469890, 0.768621, -0.020033, -0.056658, 129.755783, 167.110580, -552.874207, , 
1759228124.129557, -2.116474, 9.310452, -1.286434, 0.900106, -0.144807, -0.153128, 129.637207, 167.735352, -554.354309, , 
1759228124.149554, -2.953098, 8.707263, -1.451185, 0.933915, -0.303149, -0.327375, 129.516800, 168.338058, -554.080688, , 
1759228124.169533, -4.944625, 8.835652, -2.003049, 0.807510, -0.154308, -0.732540, 129.136978, 169.315384, -555.604675, , 
1759228124.189556, -5.686379, 10.457424, -1.675941, 0.759999, -0.220700, -1.262616, 128.636002, 170.450012, -555.674133, , 
1759228124.209557, -5.733365, 12.485163, -1.644667, 0.621813, -0.314300, -1.675455, 127.678833, 171.607559, -555.690552, , 
1759228124.228736, -4.419247, 12.759748, -2.848651, 0.503863, 0.292485, -1.814801, 126.566772, 173.033234, -556.149292, , 
1759228124.249554, -1.719037, 11.949311, -3.613299, 0.562679, 0.977897, -1.645736, 124.664047, 174.050049, -555.636230, , 
1759228124.269534, -0.707636, 11.515661, -0.675165, 0.540220, 2.007805, -1.253935, 122.960190, 175.025940, -556.086060, , 
1759228124.289539, -2.987215, 9.891644, 1.581520, 0.161999, 1.439096, -1.445064, 121.488815, 175.848114, -555.106812, , 
1759228124.309559, -5.356278, 9.695020, -0.682497, 0.040637, 1.120592, -1.581729, 119.923645, 176.516052, -554.011475, , 
1759228124.329562, -3.914370, 10.484957, -2.800168, 0.004840, 1.009727, -1.720484, 117.873459, 177.292252, -554.372314, , 
1759228124.349554, -2.960281, 10.124480, -3.421913, 0.107443, 1.480911, -1.682025, 115.929916, 177.864777, -553.445679, , 
1759228124.369530, -3.695450, 9.766996, -2.743306, 0.289076, 1.659012, -1.735271, 114.076630, 178.855713, -553.782104, , 
1759228124.388731, -4.354754, 9.545083, -2.177377, 0.276471, 1.381408, -1.837986, 112.086166, 179.262039, -553.616150, , 
1759228124.408957, -3.655198, 9.635315, -3.024475, 0.295268, 1.486330, -1.840302, 109.860611, 180.090714, -553.281311, , 
1759228124.429558, -3.093608, 8.877550, -3.404704, 0.463651, 1.596888, -1.534433, 107.949524, 180.509628, -553.229919, , 
1759228124.449554, -3.248483, 8.004265, -3.520225, 0.515622, 1.523052, -1.467428, 105.722626, 180.823914, -552.778931, , 
1759228124.469095, -3.940257, 8.074595, -3.669713, 0.523004, 1.258886, -1.486303, 104.114746, 181.419785, -553.651123, , 
1759228124.489564, -4.410119, 8.318504, -3.816806, 0.482454, 1.237189, -1.544932, 102.327499, 181.658752, -554.516724, , 
1759228124.509554, -4.753687, 7.659350, -3.878756, 0.502245, 1.446283, -1.500935, 100.629913, 181.946518, -553.572021, , 
1759228124.529558, -4.468328, 6.529736, -3.725228, 0.486164, 1.747353, -1.398400, 98.578995, 182.294067, -555.295410, , 
1759228124.549552, -4.244321, 5.949142, -3.483713, 0.468398, 1.800604, -1.259531, 96.749054, 182.344101, -554.866943, , 
1759228124.568538, -4.447828, 5.918467, -3.494337, 0.430028, 1.587180, -1.100352, 95.309967, 182.542664, -555.992249, , 
1759228124.589561, -3.930232, 5.410148, -3.429095, 0.354572, 1.482313, -0.988475, 93.626175, 182.565231, -556.370239, , 
1759228124.608876, -3.551499, 5.003732, -3.382857, 0.203586, 1.460347, -0.920722, 92.457626, 182.475143, -556.633301, , 
1759228124.629561, -3.425205, 5.118654, -4.015675, -0.078681, 1.387138, -0.828025, 90.969238, 182.352005, -556.831055, , 
1759228124.649547, -3.189226, 5.114613, -4.661062, -0.167688, 1.388382, -0.762944, 89.958282, 182.019928, -556.336487, , 
1759228124.669088, -3.456329, 5.249736, -5.294478, -0.344843, 1.281889, -0.547313, 88.856842, 181.893494, -557.072449, , 
1759228124.689558, -4.846762, 5.571008, -5.568614, -0.517493, 1.266704, -0.219039, 88.270309, 181.829483, -556.767883, , 
1759228124.709019, -4.570082, 5.277868, -5.602432, -0.624295, 1.233890, -0.021417, 87.848206, 181.233429, -556.406738, , 
1759228124.729551, -3.658340, 5.552902, -6.053739, -0.753584, 1.112839, 0.076651, 87.329865, 181.139618, -557.068787, , 
1759228124.749550, -5.615450, 6.795941, -7.530662, -0.775700, 1.256732, -0.044243, 87.037231, 180.597183, -555.447144, , 
1759228124.769080, -9.145252, 11.320085, -8.169465, -0.705399, 1.057700, -0.247185, 87.029465, 180.529449, -555.568054, , 
1759228124.789553, -7.997232, 16.635961, -5.471050, -0.683017, 0.496367, -0.125743, 86.525635, 180.123581, -555.166382, , 
1759228124.809551, -2.248006, 10.491990, -6.846519, -0.714663, 0.384279, 0.384153, 86.028030, 179.768341, -555.171631, , 
1759228124.829556, 0.935085, 3.048866, -6.765715, -0.613706, 0.816562, 0.564922, 86.142151, 179.434753, -556.117615, , 
1759228124.849546, 0.793379, 2.577957, -4.128651, -0.603797, 0.402499, 0.910956, 86.537766, 179.338562, -555.084106, , 
1759228124.868573, -0.473753, 4.913650, -1.534085, -0.609644, -0.363751, 1.063519, 87.337128, 179.136429, -555.447083, , 
1759228124.889556, -2.746000, 7.435044, -1.731457, -0.749154, -1.143128, 0.777633, 88.849243, 178.746552, -554.405701, , 
1759228124.909526, -4.078523, 9.674370, -3.279009, -0.748908, -1.617358, 0.479735, 89.381958, 178.711609, -553.617065, , 
1759228124.929551, -3.291728, 9.628881, -2.192490, -0.586743, -1.922694, 0.470225, 90.596237, 178.304321, -553.064392, , 
1759228124.949548, -1.935413, 8.256554, -1.607407, -0.729233, -1.981482, 0.632168, 91.801254, 178.013199, -551.843201, , 
1759228124.969078, -1.871966, 7.920169, -0.363619, -0.814961, -2.172136, 0.795043, 93.263916, 177.665924, -552.042114, , 
1759228124.989554, -1.628805, 9.297583, -0.386215, -0.882883, -2.538582, 1.008687, 95.155533, 177.225250, -551.356384, , 
1759228125.008643, -1.951424, 10.970531, -1.443554, -0.798971, -2.619018, 1.127116, 97.058182, 176.814697, -550.313538, , 
1759228125.029554, -2.581997, 11.261128, -1.236904, -0.757476, -2.624129, 1.088479, 98.989441, 176.448151, -550.428223, , 
1759228125.049088, -3.293374, 10.229526, -0.790386, -0.793968, -2.392534, 1.002004, 101.056793, 175.815033, -549.397888, , 
1759228125.068608, -3.171419, 9.516652, -0.153079, -0.807600, -2.299769, 1.039315, 102.690445, 175.265762, -549.935852, , 
1759228125.089557, -3.104531, 9.276185, -0.234632, -0.755195, -2.254534, 1.154037, 104.371780, 174.790909, -550.383789, , 
1759228125.109522, -3.263447, 9.357139, 0.150087, -0.747529, -2.026344, 1.185431, 107.135010, 173.586151, -548.932434, , 
1759228125.129434, -3.319561, 9.432107, 0.333243, -0.776355, -1.948775, 1.209041, 108.752289, 173.066803, -549.712097, , 
1759228125.149528, -3.402460, 9.851990, 0.147094, -0.817209, -1.660398, 1.275377, 110.183090, 172.405121, -549.810669, , 
1759228125.169172, -2.731934, 10.490494, 0.413598, -0.777925, -1.443771, 1.624801, 110.958481, 172.172699, -549.922119, , 
1759228125.189531, -2.942623, 10.089465, 0.780809, -0.847091, -0.926844, 1.763033, 113.246124, 170.565826, -549.614136, , 
1759228125.209533, -2.236334, 10.392930, 0.183605, -0.467827, -0.888505, 1.828997, 114.211975, 169.551224, -549.009399, , 
1759228125.228940, -2.695871, 10.566959, 0.281917, -0.168372, -0.330090, 1.678275, 114.881699, 169.237900, -550.256897, , 
1759228125.249530, -1.710358, 10.027814, 0.585682, 0.155746, 0.135563, 1.221050, 115.362762, 168.595795, -549.814941, , 
1759228125.269523, -1.102081, 9.082404, 1.050157, 0.101996, 0.596269, 0.823119, 115.604721, 168.287186, -549.476379, , 
1759228125.289527, -0.757017, 9.286510, 1.629554, -0.315964, 0.357806, 0.710700, 116.051132, 167.672882, -549.114319, , 
1759228125.309527, -0.448165, 10.206781, 2.184859, -1.018709, -0.937489, 0.735391, 117.075806, 166.862198, -548.126587, , 
1759228125.328892, -0.835576, 10.013898, 0.797269, -1.154346, -1.247492, 0.718135, 117.272278, 166.589706, -549.299500, , 
1759228125.349541, -0.784700, 8.340351, 0.420033, -1.031376, -0.818611, 0.534779, 118.266541, 165.446442, -548.917725, , 
1759228125.368655, -0.747889, 7.225701, -0.078560, -0.783351, -0.858943, 0.437770, 118.732666, 165.311768, -549.019592, , 
1759228125.389548, -1.517924, 8.024915, 0.123152, -0.525481, -0.964680, 0.530382, 119.696564, 164.405136, -548.741455, , 
1759228125.408576, -1.851915, 9.362825, 0.137966, -0.351462, -0.916164, 0.450103, 119.899948, 164.431900, -549.263062, , 
1759228125.429544, -1.737891, 9.643395, 0.903512, -0.301504, -0.831631, 0.364636, 120.491425, 163.956482, -550.085938, , 
1759228125.449541, -1.276708, 9.703101, 0.502932, -0.306452, -0.887171, 0.457161, 121.105743, 163.522751, -550.664795, , 
1759228125.469427, -0.998831, 11.046248, 0.022146, -0.330789, -0.966179, 0.696493, 121.865143, 162.931244, -550.154785, , 
1759228125.489544, -0.818667, 13.341240, -0.392948, -0.283672, -0.893010, 0.778065, 122.516846, 162.569260, -551.206543, , 
1759228125.509543, -0.257526, 14.594604, 0.203806, -0.167309, -0.617454, 0.781789, 122.725937, 161.872513, -550.828186, , 
1759228125.529532, -0.414047, 15.465346, 0.006584, 0.015041, -0.560996, 0.688432, 123.306305, 161.627869, -552.347473, , 
1759228125.549529, -0.768090, 16.431406, 0.673968, 0.281725, -0.505512, 0.488687, 123.449631, 161.324310, -552.889587, , 
1759228125.569066, -0.759860, 14.651317, -0.344017, 0.296578, 0.318164, 0.141621, 123.092575, 161.160904, -552.202209, , 
1759228125.589541, -0.436493, 13.163171, -2.489521, 0.596848, 0.478601, -0.076636, 123.034271, 161.565720, -552.718811, , 
1759228125.609542, -1.558476, 11.735778, -3.916465, 1.169037, 0.105112, -0.265613, 122.892883, 162.083664, -552.681580, , 
1759228125.628817, -3.595642, 10.756849, -4.801721, 1.740391, 0.745762, -0.538780, 122.272812, 163.274414, -554.009094, , 
1759228125.649539, -5.507711, 11.033978, -4.656423, 2.258472, 1.241932, -0.959308, 121.375443, 164.472580, -554.334167, , 
1759228125.669080, -5.918317, 11.197681, -2.177227, 2.597215, 0.877269, -1.472537, 120.077164, 166.144333, -554.845825, , 
1759228125.689591, -6.791303, 11.461792, 3.284994, 2.315282, 0.233908, -2.085315, 118.825867, 167.558090, -556.728455, , 
1759228125.709543, -2.502240, 12.569409, 7.494599, 1.506511, -0.284334, -2.442837, 117.300735, 168.748260, -556.901306, , 
1759228125.729542, -0.825551, 13.819482, 6.482750, 0.287324, -0.784216, -2.461714, 115.800140, 169.590759, -558.160522, , 
1759228125.749539, 1.190816, 13.211055, -0.187346, -0.012042, -2.942286, -2.077798, 115.546875, 170.276001, -559.716675, , 
1759228125.768691, 2.108992, 12.396877, -5.430498, 0.110626, -2.987795, -1.743371, 115.430450, 170.420975, -560.021912, , 
1759228125.789533, 1.625364, 10.193014, -5.043835, 0.604905, 1.986228, -1.118390, 113.143051, 170.826797, -560.567200, , 
1759228125.809526, -1.852364, 8.556278, 0.730082, 0.652486, 2.948699, -1.575410, 111.230194, 171.115585, -559.105286, , 
1759228125.829156, -4.049942, 9.581595, 1.218798, 0.687720, 1.484000, -2.524487, 109.888489, 171.974762, -559.251221, , 
1759228125.849525, -3.873669, 9.911546, 0.598850, 0.572570, 0.662735, -2.693089, 108.053864, 172.575897, -559.483826, , 
1759228125.869077, -3.577536, 9.758766, -0.201562, 0.621694, 0.743631, -2.561835, 106.174820, 173.067596, -559.804199, , 
1759228125.889521, -1.181688, 7.235128, -0.195726, 1.117187, 1.635787, -1.877269, 104.350540, 173.438828, -560.673096, , 
1759228125.908722, -0.530765, 6.342390, -0.351199, 1.156299, 2.007407, -1.815274, 102.209442, 173.695099, -560.470215, , 
1759228125.928807, 0.386364, 5.068076, -0.387262, 0.979352, 2.215740, -1.877033, 100.446686, 174.303757, -561.582642, , 
1759228125.949536, 0.004788, 4.843620, -0.266654, 0.916573, 2.040753, -1.727954, 99.054245, 174.613419, -561.816406, , 
1759228125.969513, -0.271892, 4.844517, -0.483180, 0.894551, 1.881018, -1.602695, 97.298935, 174.563766, -562.274048, , 
1759228125.989528, -0.158167, 4.838682, -0.732925, 0.656200, 1.386966, -1.403591, 96.013672, 174.669800, -562.353516, , 
1759228126.009540, 0.195726, 4.857237, -1.101033, 0.299329, 1.114783, -1.186635, 95.522659, 174.501236, -562.070374, , 
1759228126.029541, -0.372448, 4.926369, -1.739836, -0.091160, 1.034794, -0.858420, 94.972641, 174.411285, -562.322449, , 
1759228126.049539, -1.482160, 4.485088, -2.171691, -0.676627, 0.996298, -0.126834, 94.841644, 174.206512, -562.176514, , 
1759228126.069517, -2.473360, 4.200926, -2.348861, -0.819817, 0.830278, 0.204210, 95.265244, 173.973099, -560.691528, , 
1759228126.089542, -2.466327, 3.920655, -4.151845, -0.751851, 0.087074, 0.998712, 95.911057, 173.876114, -561.307922, , 
1759228126.109539, -5.871181, 6.683264, -7.449259, -0.312267, -0.576196, 1.520465, 97.230804, 173.521484, -559.888550, , 
1759228126.129544, -2.382081, 13.479804, 0.601094, -1.071983, -1.453007, 1.370892, 98.403839, 172.787506, -559.810425, , 
1759228126.149539, -3.399916, 17.407193, -6.202928, -1.363396, -1.538083, 1.646240, 99.917953, 172.226074, -558.728516, , 
1759228126.169515, -4.923077, 19.014001, -1.455824, -1.235584, -1.901529, 1.275153, 101.114212, 171.604996, -557.818604, , 
1759228126.188587, -1.177947, 9.378387, -2.187702, -0.797125, -0.732920, 1.235583, 102.507385, 171.033737, -557.996460, , 
1759228126.209539, -0.037110, 4.238784, -0.370203, -1.193785, -1.234262, 1.374941, 103.827759, 170.166580, -556.695740, , 
1759228126.229578, 0.803105, 3.874866, -1.558027, -1.104768, -2.044100, 2.021727, 105.774521, 169.335052, -557.747009, , 
1759228126.249537, 0.285808, 7.786093, -0.048782, -1.220052, -2.613712, 2.723080, 108.422638, 168.346115, -556.895264, , 
1759228126.269074, -0.143054, 12.657097, 1.230171, -1.634714, -3.346276, 3.184908, 111.083435, 166.536041, -556.091553, , 
1759228126.289544, -0.847996, 16.887651, 0.798766, -1.931178, -3.320956, 3.285949, 113.310608, 164.713364, -556.843262, , 
1759228126.309537, -1.587505, 15.963040, -1.609352, -1.367545, -2.365250, 2.838536, 115.070999, 163.432983, -556.145264, , 
1759228126.329051, -0.582390, 11.377994, -1.072303, -0.059133, -0.031255, 1.414703, 115.771042, 163.140656, -556.986877, , 
1759228126.349540, -0.337882, 9.875034, -0.535553, 0.548854, 0.990005, 1.360983, 116.185165, 162.892838, -556.526367, , 
1759228126.369513, -2.335693, 10.415226, 0.289549, 0.336836, 1.592630, 1.514197, 116.217911, 162.270294, -555.687256, , 
1759228126.389539, -4.418350, 11.395502, 1.465401, -0.558210, 0.487839, 1.136048, 116.810349, 161.688599, -555.497192, , 
1759228126.409513, -5.097405, 11.034277, 1.043722, -0.800960, -1.117012, 0.460536, 117.733368, 161.336517, -554.974365, , 
1759228126.429541, -4.117578, 10.080936, 1.908179, -0.761098, -1.799376, 0.216664, 118.525848, 161.046387, -556.212280, , 
1759228126.449535, -3.160645, 8.891466, 1.579874, -1.241041, -1.914360, 0.394039, 119.533249, 160.102478, -556.191040, , 
1759228126.469514, -2.291251, 7.008277, 0.563535, -1.391750, -1.706143, 0.548432, 120.129608, 159.347290, -556.325439, , 
1759228126.489534, -0.937480, 5.879261, -1.444601, -1.355726, -1.371043, 0.506968, 120.608017, 158.781509, -557.189880, , 
1759228126.509534, -0.121057, 5.217564, -2.952799, -0.910814, -0.324157, 0.402592, 120.599213, 158.230331, -555.712280, , 
1759228126.529522, -0.302268, 5.869535, -1.867926, -0.374495, 0.169533, 0.324042, 120.469574, 158.196564, -555.668884, , 
1759228126.549084, -2.095375, 7.991097, -0.571167, -0.267378, -0.038575, 0.237450, 120.756180, 158.290039, -556.219482, , 
1759228126.568847, -1.400309, 9.223363, 0.564583, -0.091254, -0.378876, 0.062559, 120.890244, 158.093796, -555.808105, , 
1759228126.588726, 0.484377, 9.657761, 1.050306, -0.039864, -0.528149, 0.050328, 120.936935, 158.308182, -556.833984, , 
1759228126.609539, 1.086668, 10.949881, 0.676362, -0.134527, -0.339784, 0.213345, 121.129074, 158.057281, -555.565735, , 
1759228126.629540, 0.403273, 13.816040, 0.534954, -0.253662, -0.091987, 0.516424, 121.565292, 157.684296, -556.088806, , 
1759228126.649532, -0.156222, 15.231612, -0.095020, -0.251688, 0.035975, 0.837428, 121.620621, 156.950790, -556.335693, , 
1759228126.669068, 0.268300, 14.755016, -0.782305, -0.136375, 0.115928, 1.032036, 121.733017, 156.048172, -555.849182, , 
1759228126.689540, -0.786046, 14.655208, -0.911592, 0.031006, -0.104538, 0.951518, 122.454529, 155.388458, -556.875000, , 
1759228126.709535, -2.488473, 14.956877, -0.554557, 0.371147, 0.074852, 0.559720, 122.751038, 154.938705, -556.698730, , 
1759228126.729536, -1.920449, 12.767380, -0.394894, 0.635782, 0.489432, 0.092826, 122.542892, 155.403351, -557.238281, , 
1759228126.749532, -1.973870, 11.387721, -1.447295, 0.866221, 0.538796, -0.360732, 122.292023, 155.982605, -557.084106, , 
1759228126.768878, -2.282722, 11.413758, -2.699612, 1.215107, 0.497798, -0.741964, 121.740616, 156.613632, -556.952515, , 
1759228126.789537, -2.939930, 10.675296, -3.053056, 1.699609, 0.550224, -1.011495, 120.917831, 157.740601, -557.587708, , 
1759228126.809533, -3.855862, 10.405500, -2.025345, 2.186943, 0.287691, -1.440948, 120.082291, 158.727997, -557.941406, , 
1759228126.829535, -4.975899, 10.317064, 0.112976, 2.170902, 0.506832, -1.999234, 119.023270, 160.403214, -559.259827, , 
1759228126.849532, -4.559009, 10.928782, 2.359186, 1.686792, 1.055174, -2.669818, 117.555801, 161.931824, -558.824463, , 
1759228126.868871, -2.182614, 13.534572, 2.289755, 1.188858, 1.046176, -2.759953, 115.949295, 163.143219, -558.852661, , 
1759228126.889534, 0.406266, 13.943830, 2.017564, 0.984985, 0.267273, -2.307022, 114.687241, 164.276749, -560.102295, , 
1759228126.909509, 1.962198, 13.953258, 1.343746, 0.724290, -1.091966, -1.819486, 114.187546, 164.765167, -560.357361, , 
1759228126.929548, 2.727594, 12.915371, -2.408417, 0.476140, -1.405062, -1.469094, 113.493210, 165.556137, -561.920837, , 
1759228126.949273, 1.034744, 10.477475, -4.419846, 0.389712, 0.193169, -1.435056, 112.747787, 166.010956, -562.086243, , 
1759228126.969508, -1.647809, 9.237279, -1.827225, 0.501471, 1.478669, -1.831199, 111.611969, 166.671921, -561.775269, , 
1759228126.988728, -2.925864, 8.862437, -0.395043, 0.894894, 1.467583, -2.302212, 110.334045, 167.635452, -562.201660, , 
1759228127.009531, -2.371008, 9.245060, 0.159065, 1.329110, 1.368859, -2.398398, 108.737274, 168.422989, -561.763306, , 
1759228127.029529, -1.128268, 7.999028, -0.132878, 1.402669, 1.113903, -2.118530, 106.985306, 169.200058, -563.172241, , 
1759228127.049535, 0.452205, 6.473622, -0.829591, 1.237237, 1.142833, -1.804806, 105.441238, 169.892487, -564.164490, , 
1759228127.068934, 1.323545, 5.399523, -1.054347, 1.135182, 1.453643, -1.744756, 104.154312, 170.223526, -563.940125, , 
1759228127.089541, 1.088165, 4.741118, -0.731728, 1.072078, 1.574932, -1.732140, 102.884140, 170.741302, -564.999573, , 
1759228127.109529, 0.042946, 4.766257, -0.674566, 0.998440, 1.425743, -1.560106, 101.920425, 170.931549, -564.765930, , 
1759228127.129543, -0.140959, 5.297919, -0.853234, 0.842933, 1.084952, -1.379292, 100.533554, 171.748962, -565.528870, , 
1759228127.149537, 0.483928, 4.704008, -1.486650, 0.588405, 0.717584, -1.045785, 99.835464, 171.732681, -566.197510, , 
1759228127.169506, 0.238522, 4.004602, -1.586757, 0.335914, 0.552362, -0.590017, 99.554520, 171.775650, -566.181274, , 
1759228127.188830, -0.530316, 4.102165, -1.896806, -0.065042, 0.258452, -0.172989, 99.817261, 171.823486, -566.351318, , 
1759228127.209527, -1.920748, 3.889081, -2.942474, -0.531680, -0.190118, 0.270572, 100.049637, 171.508026, -564.832153, , 
1759228127.229562, -2.921525, 4.212598, -4.398148, -0.607415, -1.076102, 0.860966, 100.936691, 171.655930, -565.712158, , 
1759228127.249526, -3.807230, 4.552126, -9.107094, -0.223873, -1.824026, 1.550768, 101.875900, 171.198761, -565.318909, , 
1759228127.268963, -9.955689, 14.099454, -2.158672, -0.307268, -2.051061, 0.941073, 103.025314, 170.886520, -564.390625, , 
1759228127.289531, -5.086631, 17.660679, -2.925864, -1.829111, -2.255600, 1.412357, 104.211319, 170.336823, -564.030762, , 
1759228127.308737, -9.933692, 19.907637, -6.142324, -1.203324, -1.553322, 1.272635, 105.504166, 169.531723, -562.812378, , 
1759228127.329532, -1.823035, 9.430611, -2.493112, -0.864521, -0.497614, 1.338832, 105.771225, 169.375381, -563.880981, , 
1759228127.349525, 0.909348, 4.816685, -0.180014, -1.254038, -0.627878, 1.776287, 107.073517, 168.545807, -563.443237, , 
1759228127.368978, 1.769016, 3.905691, -1.169568, -1.163207, -1.254173, 2.405071, 108.688339, 167.506042, -562.596375, , 
1759228127.389533, 1.542614, 6.952013, 0.578050, -1.359706, -2.159649, 2.973192, 110.719391, 166.385361, -562.869202, , 
1759228127.409512, 0.840365, 11.844265, 0.837073, -1.832552, -3.237450, 3.324002, 113.204025, 164.806732, -561.885742, , 
1759228127.429538, -0.496797, 17.832014, 0.347459, -2.108466, -3.798188, 3.373199, 115.263840, 163.172836, -563.059692, , 
1759228127.449537, -1.831115, 19.351584, -1.501613, -1.509013, -2.383629, 2.680902, 117.016571, 161.592422, -563.464172, , 
1759228127.469511, -1.977162, 14.278271, -0.710479, -0.259215, -0.474421, 1.326058, 118.067963, 160.945587, -563.169373, , 
1759228127.489531, -2.153285, 11.379940, -0.197372, 0.287669, 0.119159, 1.108412, 118.586075, 160.560959, -563.078552, , 
1759228127.509534, -2.705747, 10.743381, 1.878700, -0.051039, 0.315372, 1.380847, 119.233429, 159.658020, -562.416565, , 
1759228127.529538, -3.796755, 10.422409, 2.956091, -0.573356, -0.351653, 1.407897, 119.751724, 158.922516, -563.143250, , 
1759228127.549538, -4.366126, 9.188796, 1.682824, -0.777387, -1.064938, 0.916331, 120.371780, 158.193207, -563.124146, , 
1759228127.569506, -4.174740, 8.364293, 1.092953, -0.765219, -1.137103, 0.686462, 121.056519, 157.741287, -563.222961, , 
1759228127.589530, -2.041805, 6.208165, -1.840243, -0.700932, -1.059733, 0.599309, 121.073029, 157.360397, -564.113708, , 
1759228127.609531, -0.118962, 5.775563, -1.073351, -0.501188, -0.824044, 0.563324, 121.491730, 156.631622, -563.288818, , 
1759228127.629532, 0.585083, 5.415535, 1.416320, -0.449541, -1.217601, 0.619962, 122.001953, 156.478302, -564.624084, , 
1759228127.649525, -0.595707, 5.344606, 0.698059, -0.662920, -1.341590, 0.559588, 122.265182, 155.919266, -564.638245, , 
1759228127.669069, -0.348057, 6.432472, 0.541987, -0.645451, -0.774980, 0.519324, 122.583557, 155.774979, -564.926636, , 
1759228127.689597, -1.490690, 7.901015, 0.376039, -0.629556, -0.907002, 0.478502, 122.861099, 155.551682, -565.074890, , 
1759228127.709526, -2.174683, 10.617237, -0.887950, -0.820557, -0.700595, 0.401046, 123.375870, 154.835556, -563.736816, , 
1759228127.729529, -3.014450, 13.806164, -1.158045, -0.814480, -0.461792, 0.641393, 123.655563, 154.686966, -564.824463, , 
1759228127.749524, -2.654272, 15.924883, -2.124255, -0.556876, -0.402622, 0.919225, 123.658844, 153.849091, -564.887634, , 
1759228127.769503, -0.928501, 14.365509, -3.148076, -0.215323, -0.110915, 0.847440, 123.776596, 153.346054, -565.526978, , 
1759228127.789575, -0.935085, 14.290840, -3.582324, 0.088993, -0.001094, 0.690666, 124.244095, 152.575867, -565.408325, , 
1759228127.809508, -2.800617, 15.068956, -2.375497, 0.622533, 0.118486, 0.444155, 124.234833, 152.504074, -564.916870, , 
1759228127.828941, -3.642628, 14.958972, -1.780089, 0.908012, 0.166117, 0.210049, 124.274124, 152.622726, -566.067139, , 
1759228127.849510, -3.292027, 11.383531, -1.219098, 1.689165, 0.521015, -0.605849, 124.039047, 153.136200, -565.913635, , 
1759228127.869064, -3.508403, 11.198429, -0.628179, 1.764183, 0.609583, -0.819041, 123.543610, 153.971832, -566.091309, , 
1759228127.889507, -4.126407, 11.090690, 0.430358, 1.706131, 0.726667, -1.322233, 122.893982, 155.004669, -566.455078, , 
1759228127.909516, -6.223278, 10.967539, 1.729511, 1.515729, 1.024036, -2.131661, 122.083206, 156.077103, -565.717285, , 
1759228127.929508, -6.934506, 11.993753, 2.475605, 1.401848, 1.208007, -2.705574, 120.768661, 157.749786, -565.685547, , 
1759228127.949519, -4.005350, 14.008624, 3.074305, 1.201217, 1.289947, -3.055795, 119.445862, 159.315964, -565.021240, , 
1759228127.969072, -0.571765, 15.196447, 2.734777, 1.051989, 1.180267, -2.688556, 117.895813, 160.488037, -565.193481, , 
1759228127.989531, 1.567304, 15.531037, 2.264167, 0.526646, 0.763633, -1.951266, 116.778397, 161.008911, -565.719360, , 
1759228128.009298, 2.281674, 15.209166, -0.326509, 0.227833, -0.262706, -1.407292, 115.922729, 161.429779, -565.992310, , 
1759228128.029521, 1.891120, 12.525266, -5.607819, 0.673659, -0.575796, -1.630572, 115.224442, 162.522827, -567.356506, , 
1759228128.049523, 3.781043, 10.212018, -3.046921, 1.183761, 1.614588, -1.839082, 114.135818, 163.502045, -566.837341, , 
1759228128.069055, 1.447295, 7.990648, 1.408988, 0.958634, 1.784635, -1.716667, 113.245850, 164.227722, -566.995789, , 
1759228128.089528, -2.710835, 6.907122, 1.920449, 0.854534, 1.756500, -1.964120, 112.242325, 164.937988, -566.964478, , 
1759228128.109520, -3.784036, 8.804377, 0.313790, 1.016546, 1.529308, -2.726042, 110.753967, 165.872360, -565.763062, , 
1759228128.129520, -2.136675, 8.722675, -0.446668, 1.522887, 1.851476, -2.673953, 109.174133, 166.780594, -566.733398, , 
1759228128.149520, 0.606182, 6.235848, 0.728286, 1.467215, 1.897979, -1.802709, 107.569351, 167.360779, -567.576782, , 
1759228128.168804, 1.826327, 4.298340, 0.607828, 1.373629, 1.835054, -1.666558, 106.394150, 167.889008, -568.500916, , 
1759228128.189519, 2.349610, 3.384803, 0.144101, 1.179131, 1.664489, -1.425346, 105.631088, 168.302155, -568.638550, , 
1759228128.209522, 0.933888, 3.270330, -0.027683, 0.837160, 1.561850, -1.053976, 104.799072, 168.340073, -567.996765, , 
1759228128.229537, 0.520888, 2.283021, -0.163255, 0.244351, 1.216235, -0.496114, 104.433960, 168.567505, -568.621094, , 
1759228128.249522, 0.532860, 2.098069, -1.170914, -0.014576, 1.060635, -0.254874, 104.273071, 168.637741, -568.004333, , 
1759228128.268822, -0.420631, 2.608333, -2.354099, -0.525919, 0.309439, 0.322007, 104.512085, 168.456528, -567.639648, , 
1759228128.289524, 0.164152, 3.328688, -3.520225, -0.775588, -0.850001, 1.057605, 105.294022, 168.046692, -567.723206, , 
1759228128.309527, -1.816601, 4.569932, -6.679523, -0.864848, -1.758630, 1.750019, 106.224121, 167.672333, -566.375610, , 
1759228128.329505, -3.360112, 16.251991, 3.308039, -2.442110, -2.402913, 1.918986, 107.713211, 166.866745, -565.756836, , 
1759228128.349574, -4.046350, 26.624570, -6.494122, -1.718353, -3.552819, 2.200394, 109.246689, 165.726700, -565.484924, , 
1759228128.368835, -7.064990, 20.533721, -3.763984, -1.748414, -2.504290, 1.560597, 110.403778, 165.328552, -566.186829, , 
1759228128.389536, -2.409016, 8.736442, -2.349610, -1.074216, -0.852013, 1.185713, 111.197968, 164.726257, -565.783447, , 
1759228128.409203, -0.400879, 3.905841, -1.805378, -0.899240, -0.442145, 1.605086, 111.990463, 163.949265, -565.021729, , 
1759228128.429520, 0.883460, 3.534291, -1.234211, -0.680310, -0.702996, 1.999326, 113.034988, 163.136032, -565.277588, , 
1759228128.449513, 2.296788, 7.167641, 0.754922, -0.826825, -1.155997, 2.646415, 114.430237, 161.784775, -564.702026, , 
1759228128.469156, 2.220772, 13.626150, 2.574216, -1.379144, -1.742975, 3.395219, 115.908478, 160.496613, -565.402283, , 
1759228128.489522, -0.886603, 17.471537, 0.626982, -1.551869, -1.377884, 3.331105, 116.501083, 158.498962, -565.845459, , 
1759228128.509519, -1.312023, 15.532982, -0.493206, -0.474854, 0.399664, 1.622586, 117.509598, 157.941132, -564.515686, , 
1759228128.529540, -1.953070, 13.660716, 0.171335, -0.093340, 0.482257, 1.061912, 118.420929, 157.439529, -564.227234, , 
1759228128.549517, -4.418948, 10.352229, -0.876727, -0.929614, -0.186022, 1.012853, 118.812988, 156.647858, -563.624084, , 
1759228128.569166, -5.578340, 8.199692, -0.787692, -0.939958, -1.098999, 0.827604, 119.564865, 156.222717, -564.534851, , 
1759228128.589528, -4.505139, 7.858817, -0.435595, -0.648990, -0.968403, 0.779226, 119.677261, 155.830948, -564.799683, , 
1759228128.609517, -3.122039, 7.330896, -0.591069, -0.466768, -0.436379, 0.841164, 119.886536, 155.118500, -564.288208, , 
1759228128.629526, -1.326537, 6.899491, 0.498592, -0.716925, -0.032108, 0.662209, 119.927673, 154.788635, -564.622864, , 
1759228128.649511, -0.148291, 6.542904, 1.029207, -1.022977, -0.266354, 0.579321, 120.310623, 154.027512, -564.056580, , 
1759228128.669188, 0.066738, 6.451027, -0.525228, -0.999387, -0.192966, 0.489241, 120.616516, 153.812317, -564.358276, , 
1759228128.689517, 1.013196, 7.480833, -0.144999, -0.714873, 0.157091, 0.496166, 120.416306, 153.313919, -564.006897, , 
1759228128.709515, 1.305738, 7.543980, -0.213383, -0.726141, 0.163363, 0.559983, 120.596985, 152.916702, -563.126099, , 
1759228128.729519, 1.338059, 7.546075, -0.690578, -0.617689, 0.091854, 0.521519, 120.619980, 152.628342, -563.530945, , 
1759228128.749515, 0.704643, 9.298032, -0.422427, -0.371040, -0.132560, 0.455024, 120.831085, 152.113449, -562.275696, , 
1759228128.769203, -0.162207, 11.524190, 0.905607, -0.310933, -0.437009, 0.448306, 121.312988, 151.835388, -562.994324, , 
1759228128.789519, -0.186448, 13.510181, 1.145027, -0.309925, -0.406136, 0.653524, 121.484329, 151.568802, -563.523865, , 
1759228128.809435, 0.546327, 13.924527, 0.161609, -0.228768, -0.224521, 0.871954, 121.543213, 150.969467, -562.804443, , 
1759228128.829516, 0.537648, 13.724312, 0.246603, -0.199302, -0.004286, 0.908477, 121.522247, 150.418396, -563.437805, , 
1759228128.849512, -0.890793, 13.675530, -0.379481, -0.180602, 0.465648, 0.771157, 122.016556, 149.856384, -562.296265, , 
1759228128.869222, -1.907730, 14.758009, 0.193182, 0.130525, 0.582278, 0.574491, 121.745071, 149.721375, -563.070740, , 
1759228128.889518, -1.206378, 13.984532, -0.815375, 0.565226, 0.325468, 0.260696, 121.600510, 149.871460, -563.032288, , 
1759228128.909510, -0.918775, 12.498331, -2.613121, 0.875222, 0.322172, -0.188823, 121.454208, 150.148117, -562.740479, , 
1759228128.929534, -1.878102, 11.914296, -3.649362, 1.254865, 0.322516, -0.663675, 121.117950, 150.748672, -563.019592, , 
1759228128.949513, -3.110517, 11.285369, -3.403807, 1.692425, 0.515679, -1.035998, 120.608093, 151.597992, -562.722900, , 
1759228128.969236, -4.168455, 11.336694, -2.198476, 2.034738, 0.631858, -1.445287, 120.184967, 152.644638, -563.744385, , 
1759228128.989523, -5.398775, 10.937162, 0.394295, 2.123585, 0.395325, -1.912928, 119.589279, 153.995392, -564.154663, , 
1759228129.009515, -5.450101, 10.558878, 2.829348, 1.944684, 0.333676, -2.617336, 118.643951, 155.315689, -564.332336, , 
1759228129.029537, -1.281945, 12.835165, 3.144784, 1.306455, 0.530478, -2.982501, 117.578857, 156.767426, -565.162842, , 
1759228129.049513, 1.164330, 13.935301, 1.655441, 0.916678, 0.940311, -2.667312, 116.160934, 158.020889, -564.285034, , 
1759228129.069253, 3.278261, 14.705636, 1.077690, 0.671447, 0.735379, -2.203201, 114.959183, 159.071304, -564.988281, , 
1759228129.089516, 1.802235, 13.535918, 1.247080, 0.436454, 0.049769, -1.836167, 114.159714, 159.767822, -564.922485, , 
1759228129.109513, 0.533458, 11.457901, -2.331504, 0.258891, -0.477948, -1.824957, 113.617355, 160.331665, -565.156616, , 
1759228129.129516, -1.652897, 10.084078, -3.763835, 0.457693, 0.632262, -2.037849, 112.568573, 161.080307, -565.323181, , 
1759228129.149511, -2.340631, 10.339061, -0.600645, 0.555419, 1.300160, -2.336273, 111.709763, 161.645386, -564.315796, , 
1759228129.169273, -1.689708, 9.412056, -1.159243, 0.746587, 0.927794, -2.312779, 110.351379, 162.543594, -565.441406, , 
1759228129.189515, -0.142006, 8.256704, 0.048183, 0.941065, 1.288690, -2.258709, 108.960236, 163.102783, -565.696411, , 
1759228129.209512, 0.424821, 6.789507, 0.203806, 0.870808, 1.449546, -2.019419, 107.833832, 163.809616, -565.140137, , 
1759228129.229530, 1.129165, 5.685032, -0.097115, 0.885649, 1.621346, -1.913404, 106.352280, 164.539185, -566.001038, , 
1759228129.249510, 1.114800, 5.266944, -0.579397, 0.916385, 1.498477, -1.880922, 105.202179, 164.958267, -565.436218, , 
1759228129.268498, 0.315286, 4.795885, -0.921319, 0.817617, 1.205055, -1.842687, 104.137772, 165.493027, -566.178711, , 
1759228129.289160, -0.324265, 4.281730, -0.755371, 0.561276, 0.981516, -1.668706, 103.358215, 165.805908, -566.208679, , 
1759228129.309514, -0.341623, 4.079420, -1.213860, 0.273441, 0.799500, -1.362718, 102.516190, 166.037292, -565.943665, , 
1759228129.329515, -0.274735, 3.591302, -2.169296, 0.032538, 0.799983, -0.922305, 101.950195, 166.116226, -566.173645, , 
1759228129.349512, -0.960673, 2.688090, -2.261623, -0.113503, 0.727056, -0.373405, 101.925049, 165.921112, -565.378479, , 
1759228129.368514, -1.583465, 1.856853, -1.717241, -0.342553, 0.423548, 0.235295, 101.849655, 166.084503, -565.780701, , 
1759228129.389515, -1.865233, 1.750760, -3.312977, -0.599896, -0.315713, 0.892948, 102.314423, 165.716766, -565.523804, , 
1759228129.409514, -5.413889, 5.323807, -7.577499, -0.420649, -1.007239, 1.374985, 103.195129, 165.520172, -564.657593, , 
1759228129.429516, -9.212289, 12.610410, -3.306542, -0.169506, -2.071414, 1.043328, 104.242386, 165.240067, -564.841248, , 
1759228129.449509, -4.328118, 20.121170, -3.998466, -1.316768, -1.864151, 1.417885, 104.814682, 164.415146, -563.797974, , 
1759228129.468525, -11.859229, 23.514203, -5.746982, -0.888221, -1.121047, 1.035272, 105.728653, 164.202133, -563.834229, , 
1759228129.489510, -1.265336, 9.951200, -4.479402, -0.502541, -0.029177, 1.015071, 106.120132, 163.755295, -565.019714, , 
1759228129.509513, 0.625635, 4.059070, 0.886752, -0.863283, 0.193625, 1.656861, 106.632645, 163.229660, -564.120422, , 
1759228129.529512, 1.360056, 2.647688, 0.683694, -1.363797, -0.842592, 2.383541, 107.899506, 162.342545, -563.943298, , 
1759228129.549507, 1.570447, 4.477606, -0.434997, -1.289098, -1.612578, 3.226438, 109.072250, 161.203400, -562.759521, , 
1759228129.568546, 1.307084, 9.749788, 1.009904, -1.477913, -1.971844, 3.678357, 110.995132, 159.826843, -563.222412, , 
1759228129.589505, 1.450737, 17.885285, 1.966238, -2.135299, -2.302145, 3.959686, 112.383606, 157.940491, -562.740356, , 
1759228129.609485, -2.140117, 21.069723, -1.599027, -1.619011, -1.600137, 3.114880, 113.235458, 156.153580, -563.114624, , 
1759228129.629514, -0.754772, 14.972888, -0.315137, -0.338846, 0.411600, 0.998049, 114.530014, 155.572083, -562.762390, , 
1759228129.649508, -2.115726, 11.377695, -0.424073, -0.588828, 0.881318, 0.958262, 115.193893, 154.980515, -561.312622, , 
1759228129.668565, -2.789993, 10.024522, -0.366462, -0.877402, 0.008363, 1.078133, 115.214966, 154.460068, -561.772461, , 
1759228129.689534, -2.879027, 8.982745, 0.672172, -0.618571, -0.642451, 0.966584, 115.734268, 153.841064, -562.001404, , 
1759228129.709505, -2.215834, 9.529970, 0.569371, -0.522109, -0.658274, 0.888387, 115.962540, 153.373337, -561.864441, , 
1759228129.729511, -1.174954, 9.083003, -1.061080, -0.570469, -0.224629, 0.809161, 116.129913, 152.961166, -562.084473, , 
1759228129.749504, -0.112827, 7.949647, -0.486173, -0.669437, -0.130416, 0.738142, 116.127182, 152.215256, -561.083984, , 
1759228129.768578, 0.119560, 7.339874, 0.509815, -0.689247, -0.367500, 0.719595, 116.432129, 151.958313, -562.086426, , 
1759228129.789507, -0.084845, 5.737106, 0.801459, -0.706904, -1.100679, 0.753879, 116.767532, 151.498672, -562.441406, , 
1759228129.809491, -0.272640, 5.401768, 0.177620, -0.682123, -0.889005, 0.710401, 117.431458, 150.817200, -562.225220, , 
1759228129.829486, -0.609923, 6.058378, 1.026664, -0.715900, 0.098436, 0.716707, 117.597641, 150.137131, -562.637878, , 
1759228129.849482, -0.894384, 7.008726, 0.462829, -0.782330, 0.562187, 0.563059, 117.431076, 150.022675, -560.994446, , 
1759228129.868594, -0.979079, 7.302016, -0.043245, -0.808116, 0.447318, 0.475800, 117.538559, 149.611389, -561.590576, , 
1759228129.889498, -0.882712, 8.205079, -0.262764, -0.705259, 0.176534, 0.290775, 117.431351, 149.346817, -561.123230, , 
1759228129.909510, 0.202310, 8.848371, 0.218471, -0.634070, 0.079024, 0.251982, 117.362717, 148.632034, -560.368347, , 
1759228129.929502, 1.515380, 9.819968, 0.968903, -0.523202, 0.100179, 0.350197, 117.453262, 148.635986, -560.607300, , 
1759228129.949504, 1.662773, 11.391013, 1.327435, -0.416432, 0.292090, 0.654386, 117.494690, 148.149597, -559.660156, , 
1759228129.968611, 1.577031, 13.258341, 1.193360, -0.365040, 0.314352, 0.736725, 117.204269, 148.064590, -559.894714, , 
1759228129.989514, 1.195006, 15.181932, 0.289100, -0.258747, 0.327811, 0.846484, 117.229874, 147.434006, -560.224426, , 
1759228130.009502, 0.967257, 15.265280, 0.776021, -0.097740, 0.088258, 0.871233, 117.527863, 146.912018, -559.654602, , 
1759228130.029505, -0.246752, 13.121273, 1.078887, 0.047839, -0.030228, 0.835162, 117.804977, 146.420227, -560.327881, , 
1759228130.049490, -1.187674, 13.272855, 1.440412, 0.342094, 0.236388, 0.458784, 117.757904, 146.332123, -560.465332, , 
1759228130.068630, 0.445172, 13.661315, 0.870442, 0.410472, 0.248896, 0.289458, 117.720123, 145.949585, -560.517212, , 
1759228130.089529, 0.611719, 12.828132, 0.656460, 0.547418, 0.325715, 0.021957, 117.666779, 146.401703, -560.661682, , 
1759228130.109552, -0.118064, 11.758972, -0.038307, 0.670889, -0.130378, -0.208768, 117.703323, 146.692535, -560.123291, , 
1759228130.129502, -0.843657, 10.270377, -1.189918, 1.078477, -0.615058, -0.457557, 117.768494, 147.292023, -561.326111, , 
1759228130.149504, -1.785476, 9.346514, -2.762909, 1.929689, -0.377561, -0.991257, 117.699814, 148.239777, -562.026611, , 
1759228130.168649, -3.208978, 9.109339, -2.963573, 2.125258, -0.228384, -1.254779, 117.630737, 148.684555, -561.839661, , 
1759228130.189503, -4.758027, 9.894787, -1.476624, 2.259305, 0.032798, -1.939835, 116.689972, 150.798721, -562.362610, , 
1759228130.209505, -5.888240, 10.978911, 1.546954, 1.833431, 0.702019, -2.720980, 116.070282, 152.137650, -561.189697, , 
1759228130.229505, -4.203021, 14.277522, 3.117251, 0.961699, 0.989703, -3.446634, 114.875488, 153.811508, -561.997925, , 
1759228130.249502, 0.329053, 16.552014, 1.444153, 0.780926, -0.686877, -2.950733, 113.684296, 154.905685, -562.418335, , 
1759228130.268658, 3.909582, 17.441161, -1.088763, 0.837353, -1.011582, -2.565937, 113.350235, 155.638763, -562.931580, , 
1759228130.288520, 3.003825, 14.796765, -3.592799, 0.854632, -0.413941, -1.822166, 112.983307, 155.946396, -563.738770, , 
1759228130.309309, 1.448193, 11.123461, -3.110367, 0.886196, 0.904331, -1.749907, 112.048508, 156.876312, -563.520935, , 
1759228130.329499, 0.157419, 9.805154, 0.468066, 1.120009, 1.118885, -1.796778, 111.492920, 157.698792, -564.389160, , 
1759228130.349500, -1.297208, 8.696788, 0.943465, 0.926001, 0.048264, -1.989461, 111.112488, 158.711609, -564.776001, , 
1759228130.368676, -1.868525, 9.787047, -2.363077, 1.032454, -0.119809, -2.185058, 110.055481, 159.466232, -564.398865, , 
1759228130.388898, -2.409764, 10.079888, -1.538574, 1.289803, 0.551849, -2.187725, 108.864853, 160.370651, -565.624756, , 
1759228130.409509, -0.742053, 7.432500, -1.421108, 1.305589, 1.051442, -2.060384, 107.982986, 160.983643, -564.975220, , 
1759228130.429492, 0.588225, 6.167314, -1.504157, 1.285383, 1.369131, -1.995502, 106.574799, 161.737198, -565.963745, , 
1759228130.449523, 0.372149, 5.826140, -0.750881, 1.271400, 1.326689, -1.941527, 106.100464, 162.165558, -566.319458, , 
1759228130.468691, -0.229843, 4.792593, -0.473902, 1.163209, 1.228265, -1.696328, 105.146408, 162.740753, -566.164429, , 
1759228130.489507, -0.629376, 3.685574, -0.362572, 1.131646, 1.287244, -1.482686, 104.191650, 163.116470, -566.587463, , 
1759228130.509500, -1.232715, 4.324826, -0.759261, 0.944178, 1.124546, -1.276044, 103.723587, 163.345810, -565.973145, , 
1759228130.529517, -1.274164, 4.719121, -1.605312, 0.660244, 1.031953, -1.127964, 103.087494, 163.762604, -566.823853, , 
1759228130.549495, -0.962469, 4.308067, -2.130839, 0.329396, 0.905440, -0.918690, 102.791107, 163.805115, -567.359131, , 
1759228130.568707, -1.029656, 3.901501, -2.448969, 0.011311, 0.625810, -0.574431, 102.300293, 163.805939, -566.821533, , 
1759228130.589510, -1.325340, 3.864840, -2.863615, -0.332404, 0.516801, -0.145246, 102.591904, 163.692368, -566.361084, , 
1759228130.609501, -2.630928, 3.290381, -2.992902, -0.686187, 0.290147, 0.273109, 102.805069, 163.251343, -565.215393, , 
1759228130.629504, -3.897311, 3.028366, -3.507954, -1.011281, -0.347866, 0.807907, 103.524002, 163.108017, -565.297485, , 
1759228130.649498, -7.053617, 4.950610, -7.125892, -0.951635, -1.233723, 1.364271, 104.146881, 162.631195, -565.206787, , 
1759228130.668723, -16.302269, 13.511378, -5.194819, -0.142900, -2.198044, 0.658886, 105.084671, 162.368866, -564.206421, , 
1759228130.689500, -4.496460, 18.062456, -4.432116, -1.198711, -1.290049, 0.934014, 105.630508, 161.945389, -564.174744, , 
1759228130.709498, -8.720281, 20.005650, -6.296900, -0.861226, -0.011632, 0.916991, 105.607315, 161.395844, -564.262573, , 
1759228130.729488, 3.464709, 4.954950, -4.457704, -0.747565, 0.309927, 0.958573, 105.780273, 161.074890, -565.009521, , 
1759228130.749480, 1.107767, 1.170914, 3.177704, -1.573381, -0.222225, 1.520267, 106.745346, 160.171509, -564.537048, , 
1759228130.768739, -0.064344, 1.741034, 0.918326, -1.805105, -1.781003, 1.607823, 107.894913, 159.151733, -563.663330, , 
1759228130.789496, -0.214580, 7.484274, 0.946907, -1.717418, -2.895055, 1.730440, 109.145950, 158.191147, -563.454529, , 
1759228130.809499, -0.737713, 15.708656, -1.711405, -2.035500, -3.552247, 1.932280, 110.396439, 156.952164, -562.480042, , 
1759228130.829502, -4.191499, 19.039141, -3.781791, -1.898792, -3.005618, 1.685126, 111.716034, 156.088669, -563.331482, , 
1759228130.849496, -3.331083, 13.094188, -2.662502, -1.099390, -1.581939, 1.393040, 112.761002, 155.596100, -563.730713, , 
1759228130.868755, -2.154931, 8.817994, -1.068712, -0.584536, -1.208821, 1.503442, 113.147278, 154.651001, -563.570557, , 
1759228130.889363, -1.154454, 8.110657, -0.991499, -0.330388, -1.156198, 1.668221, 113.911148, 153.832565, -564.629211, , 
1759228130.909494, 0.183605, 9.103653, -0.327706, -0.121326, -0.768632, 1.993360, 114.523804, 152.940979, -563.730164, , 
1759228130.929500, 0.229245, 10.389339, 0.469563, -0.065792, -0.465149, 2.311201, 114.800171, 152.311966, -565.018188, , 
1759228130.949492, -0.793977, 11.327567, 0.653467, -0.107321, -0.310124, 2.252519, 115.335922, 151.253540, -564.866333, , 
1759228130.968771, -2.088642, 11.524190, 0.694618, -0.163739, -0.062644, 1.803573, 115.525635, 150.547287, -564.211304, , 
1759228130.989499, -2.628983, 11.217433, 1.491887, -0.307914, 0.197022, 1.307972, 115.874084, 150.306412, -563.813354, , 
1759228131.009495, -3.967192, 11.147403, 1.870769, -0.338834, -0.002798, 0.957193, 116.291901, 149.727692, -562.896851, , 
1759228131.029512, -5.249586, 10.654048, 0.925509, -0.558066, -0.910199, 0.775550, 116.855453, 149.515610, -564.023987, , 
1759228131.049496, -5.000290, 10.154109, -0.156970, -0.649928, -1.386125, 0.718133, 116.726990, 148.955521, -564.573120, , 
1759228131.068789, -2.787300, 9.394698, -0.521038, -0.650852, -1.203960, 0.530419, 116.768677, 148.576782, -564.491211, , 
1759228131.089497, -0.135572, 9.103204, 0.178518, -0.565367, -1.084035, 0.224513, 116.859848, 148.672806, -565.257996, , 
1759228131.109499, 1.882142, 9.175179, 0.495001, -0.579173, -1.380744, 0.341099, 116.841034, 148.168045, -564.508423, , 
1759228131.129508, 2.123507, 8.584709, -0.737713, -0.605900, -1.243249, 0.470108, 117.569229, 147.963882, -565.987854, , 
1759228131.149568, 0.756268, 8.237101, 0.371401, -0.319494, -0.515389, 0.628470, 117.563248, 147.880859, -565.756531, , 
1759228131.168816, -2.230049, 7.186795, 1.113304, -0.277525, -0.200232, 0.444267, 117.799728, 147.583847, -565.300842, , 
1759228131.189500, -3.125930, 6.600814, 0.487220, -0.211151, -0.250589, 0.129017, 117.956039, 147.611160, -566.314331, , 
1759228131.209497, -2.667739, 6.176591, 1.352125, -0.171120, -0.285695, -0.114340, 117.869339, 147.534454, -565.372925, , 
1759228131.229499, -0.751181, 6.531681, -0.163404, -0.179806, -0.339828, -0.310355, 117.915817, 147.802612, -566.377075, , 
1759228131.249489, 1.201590, 7.085191, 1.232415, -0.188734, -0.189939, -0.214535, 117.642136, 147.820572, -566.275757, , 
1759228131.268820, 2.154931, 7.126641, 1.307833, -0.223687, -0.019733, 0.111364, 117.604019, 147.420258, -565.691040, , 
1759228131.289495, 2.640505, 8.407089, 1.476923, -0.299710, 0.202650, 0.457142, 117.836761, 147.261963, -566.071533, , 
1759228131.309493, 1.937807, 11.927164, 0.928052, -0.281220, 0.225480, 0.714649, 117.597778, 146.952850, -564.505859, , 
1759228131.329497, 1.937208, 15.471331, 0.101754, -0.329361, 0.086598, 1.045264, 117.800537, 146.216217, -565.281860, , 
1759228131.349499, 0.907103, 15.582811, 0.485125, -0.388775, -0.023642, 1.284221, 117.971863, 145.548904, -565.812439, , 
1759228131.368836, -0.888698, 15.355362, -0.341922, -0.400909, -0.038369, 1.247001, 118.014008, 144.661865, -565.105591, , 
1759228131.389493, -2.681057, 17.613094, 0.393397, -0.391473, -0.429228, 1.087732, 118.383804, 144.017334, -565.069702, , 
1759228131.409500, -4.862923, 15.918448, 0.341174, -0.233607, 0.372309, 0.659659, 118.463348, 143.235962, -564.900452, , 
1759228131.429502, -2.009783, 12.503419, 0.059406, 0.191147, 0.403255, 0.401950, 118.437698, 142.939056, -565.944458, , 
1759228131.449490, 0.366612, 13.529634, 0.359130, 0.374053, 0.080263, 0.073609, 118.570267, 142.781891, -565.773621, , 
1759228131.468852, 0.699107, 11.241675, 0.618602, 0.789065, 0.016804, -0.187572, 118.682587, 142.796997, -565.773499, , 
1759228131.489494, 0.318279, 9.009979, 0.183306, 1.216007, -0.038294, -0.337702, 118.503433, 143.046860, -566.179810, , 
1759228131.509488, -0.512808, 9.346365, -0.316334, 1.376400, 0.365170, -0.681129, 118.786697, 143.407990, -565.263672, , 
1759228131.529515, -0.973991, 9.179070, 0.497246, 1.265707, 0.918764, -1.063701, 118.849960, 143.865356, -566.002441, , 
1759228131.549489, -1.281048, 8.826075, 1.098789, 1.123343, 0.963767, -1.344474, 118.957016, 144.407486, -565.949951, , 
1759228131.568872, -1.108964, 9.256433, 0.410157, 1.231030, 0.815699, -1.663764, 118.644409, 145.212097, -565.460449, , 
1759228131.589494, 0.550217, 10.234614, 0.033818, 1.264246, 0.806388, -1.849574, 118.329773, 146.258804, -565.291870, , 
1759228131.609472, 2.387618, 11.552921, -0.256479, 1.273506, 0.824081, -1.764813, 118.099121, 147.144669, -564.201416, , 
1759228131.629495, 3.538181, 11.423784, 0.499640, 1.060294, 1.369576, -1.376719, 117.651184, 147.836517, -564.574707, , 
1759228131.649489, 2.782511, 9.559748, 1.294665, 0.897826, 1.804729, -0.935768, 117.472839, 148.333603, -564.216125, , 
1759228131.668885, 1.555782, 7.875427, 1.151611, 0.941028, 1.856565, -0.803549, 116.658310, 148.962723, -563.187378, , 
1759228131.689522, 0.468216, 7.338527, 1.972074, 0.890577, 1.653857, -0.856746, 116.599548, 149.218918, -563.106689, , 
1759228131.709490, 0.150386, 7.562684, 1.893365, 0.759530, 1.305325, -0.907888, 116.367935, 149.642303, -561.791382, , 
1759228131.729476, 0.399233, 8.755595, 1.066766, 0.588745, 1.211040, -0.706203, 116.101776, 150.281036, -562.344849, , 
1759228131.749488, -0.288501, 8.668357, -0.299874, 0.510923, 1.273518, -0.579815, 115.477112, 150.632065, -561.367554, , 
1759228131.768904, -0.775871, 8.308029, -0.364966, 0.397890, 1.308297, -0.759770, 115.306915, 150.917847, -561.026672, , 
1759228131.789475, 0.386065, 7.470059, 0.456544, 0.072777, 1.211928, -0.841821, 115.158493, 151.300430, -560.452881, , 
1759228131.809474, 1.498920, 7.078457, 0.265158, -0.063196, 1.149362, -0.496672, 114.810120, 151.587524, -559.285522, , 
1759228131.829475, 1.379808, 7.285556, 0.446519, -0.057962, 1.179346, -0.219070, 114.166092, 151.549484, -559.543274, , 
1759228131.849475, 0.927604, 8.223783, 0.709881, -0.146933, 1.317227, -0.160426, 113.945892, 151.314056, -558.863770, , 
1759228131.868919, 0.694019, 8.770559, 0.884658, -0.232029, 1.374890, -0.176282, 113.456207, 151.412796, -557.697266, , 
1759228131.889489, 0.196773, 9.142409, 0.981473, -0.398735, 1.461246, -0.167634, 113.221146, 151.127808, -557.784790, , 
1759228131.909481, 0.617554, 8.584859, 1.357961, -0.554415, 1.443122, -0.038979, 112.740051, 150.758301, -556.332092, , 
1759228131.929491, 1.788618, 8.134001, 1.244985, -0.690195, 1.271660, 0.248231, 112.121155, 150.449921, -556.849487, , 
1759228131.949487, 2.677765, 8.227524, 0.931943, -0.765206, 0.821132, 0.890279, 112.029099, 149.889832, -555.937500, , 
1759228131.968939, 2.617311, 8.634838, 0.918027, -0.771857, 0.465209, 1.069476, 112.314423, 149.056549, -555.176270, , 
1759228131.989495, 2.293496, 8.766818, 0.140360, -0.900205, 0.159542, 1.246544, 112.239349, 148.255051, -555.315369, , 
1759228132.009485, 1.590797, 9.464130, 1.010054, -1.245154, 0.611845, 1.118446, 112.288376, 147.401978, -553.682007, , 
1759228132.029490, 2.578854, 10.575189, -3.768922, -1.166576, 1.620879, 1.045389, 111.557114, 146.763275, -553.334290, , 
1759228132.049486, 1.583166, 18.463485, -12.633753, 0.331378, 5.625412, 1.683398, 109.769012, 146.100586, -551.722229, , 
1759228132.068961, -4.934749, 14.530560, -9.441085, 1.267508, 6.385215, 1.405230, 107.209137, 146.324890, -551.044800, , 
1759228132.089489, -1.993323, 9.386019, 6.625055, 0.524129, 2.117055, 0.366705, 107.410767, 146.276138, -551.114929, , 
1759228132.109484, 0.569072, 7.429806, 7.743746, -0.195374, -3.686323, -0.366222, 110.021484, 146.131821, -551.430115, , 
1759228132.129502, 3.509151, 6.246322, 4.356848, -0.393627, -6.522727, 0.312401, 111.807846, 146.148361, -554.546387, , 
1759228132.149015, 1.668310, 6.185869, -8.195951, 0.167131, 0.940910, 0.059443, 112.354309, 146.279816, -553.486633, , 
1759228132.168974, 3.055450, 10.639084, -4.806360, 0.175818, 3.554816, 0.307578, 110.760818, 145.935760, -552.028687, , 
1759228132.189483, -2.510320, 9.604490, 2.878728, -0.486058, 5.755528, 0.708534, 108.671341, 145.247650, -550.687866, , 
1759228132.208945, -4.900332, 10.359262, 2.690634, -1.353215, 4.318255, 0.197501, 107.013580, 144.762177, -548.933350, , 
1759228132.229516, -4.829703, 9.826253, -0.013617, -0.330327, 0.506348, -0.261119, 106.725601, 144.675110, -549.824341, , 
1759228132.249481, -2.546682, 8.466496, 1.038186, 0.341018, -2.322084, -0.866576, 107.806000, 145.028275, -550.336792, , 
1759228132.268991, 1.700931, 10.034698, 1.014094, 0.241911, -2.362633, -0.825402, 108.199554, 145.287537, -550.657837, , 
1759228132.289488, 3.989339, 12.603526, -1.578976, -0.687559, -1.225049, -0.461948, 108.658600, 144.781082, -551.107605, , 
1759228132.309488, 5.544971, 10.096797, -1.984793, -0.799410, 1.603472, 0.005281, 107.602905, 144.244995, -550.323242, , 
1759228132.329498, 6.106711, 8.876353, -0.286257, -0.213868, 2.438647, 0.587512, 106.472519, 143.895035, -550.722534, , 
1759228132.349482, 2.160019, 9.822362, 0.110133, 0.072712, 0.209095, 0.459484, 106.445251, 143.909622, -549.906921, , 
1759228132.369001, -0.425420, 9.981427, 0.677858, 0.126717, -0.415940, 0.284682, 106.867783, 144.107025, -549.790771, , 
1759228132.389479, -1.107169, 9.618556, 2.027440, 0.036544, -0.751162, 0.101907, 107.318954, 143.778381, -549.792603, , 
1759228132.409120, -0.207697, 9.379584, 1.457171, -0.320106, 0.183506, 0.061236, 106.895355, 143.617950, -549.063904, , 
1759228132.429490, 0.351050, 9.548824, 0.268001, -0.353490, 0.617859, -0.010989, 106.274399, 143.509979, -549.416016, , 
1759228132.449481, 0.212785, 9.870845, -0.241216, -0.255667, 0.572987, -0.096375, 106.236740, 143.234344, -549.094360, , 
1759228132.469026, 0.822259, 10.324546, 0.118812, -0.159280, 0.125552, -0.163586, 105.974030, 143.198090, -549.635071, , 
1759228132.489483, 2.212691, 10.021380, 0.252588, -0.149475, -0.237894, -0.201282, 106.058609, 143.178177, -549.644897, , 
1759228132.509485, 2.691980, 9.763105, 0.157269, -0.153984, -0.156081, -0.045646, 106.155380, 142.882401, -549.047729, , 
1759228132.529480, 1.776198, 9.587880, 0.267103, -0.136753, 0.221480, 0.085599, 105.652786, 142.903717, -549.058777, , 
1759228132.549477, 0.822408, 9.595212, 0.632369, -0.111249, 0.252820, 0.099577, 105.892960, 142.597580, -548.776367, , 
1759228132.569037, 0.381576, 9.596559, 0.821660, -0.090067, 0.027994, 0.050932, 105.844528, 142.830673, -549.094849, , 
1759228132.589479, 0.376488, 9.621698, 0.905158, -0.096354, -0.110528, 0.015641, 105.816650, 142.693878, -548.763489, , 
1759228132.609259, 0.766893, 9.607632, 0.722450, -0.122860, -0.054179, -0.002592, 106.015091, 142.540131, -548.482971, , 
1759228132.629494, 1.313669, 9.641151, 0.594211, -0.153390, 0.072029, 0.010547, 105.789627, 142.378204, -548.873779, , 
1759228132.649481, 1.565958, 9.584139, 0.595258, -0.172610, 0.094095, 0.058101, 105.686661, 142.194107, -548.945801, , 
1759228132.669050, 1.268927, 9.558700, 0.424821, -0.168896, 0.057611, 0.081626, 105.905502, 142.072647, -549.103638, , 
1759228132.689474, 1.022324, 9.727641, 0.408361, -0.131999, 0.026056, 0.080918, 105.995651, 142.130798, -549.282104, , 
1759228132.709484, 0.973243, 9.898677, 0.541538, -0.104336, -0.013732, 0.081147, 105.785507, 141.910187, -548.337769, , 
1759228132.729490, 0.849942, 9.748591, 0.696713, -0.088110, -0.063801, 0.083690, 105.726135, 141.937531, -549.153076, , 
1759228132.749477, 0.712574, 9.604190, 0.888698, -0.104769, -0.043051, 0.081042, 105.917923, 141.858795, -548.832336, , 
1759228132.769072, 0.648380, 9.495404, 0.807295, -0.135310, -0.026525, 0.068416, 106.233810, 141.865936, -548.970642, , 
1759228132.789494, 0.739659, 9.314492, 0.555006, -0.158718, -0.006548, 0.057660, 105.920044, 141.837875, -548.861755, , 
1759228132.809480, 0.742352, 9.441385, 0.462979, -0.167514, 0.027001, 0.050581, 106.062820, 141.392380, -548.470215, , 
1759228132.829481, 0.826299, 9.795577, 0.606930, -0.158920, 0.008807, 0.041657, 105.958603, 141.538223, -548.746948, , 
1759228132.849485, 0.916381, 9.789591, 0.642544, -0.151651, -0.044555, 0.040942, 105.849243, 141.307785, -548.391968, , 
1759228132.869081, 0.952743, 9.766846, 0.614711, -0.154150, -0.012895, 0.048754, 105.957031, 141.369873, -548.810852, , 
1759228132.889477, 0.752528, 9.877578, 0.708085, -0.153519, -0.004944, 0.078200, 105.966400, 141.071701, -548.696167, , 
1759228132.909481, 0.932093, 9.961974, 0.749984, -0.212384, -0.006343, 0.077924, 105.940262, 141.073868, -548.358398, , 
1759228132.929479, 1.045069, 9.905860, 0.545429, -0.216097, 0.068190, 0.119265, 105.935394, 140.913055, -548.626892, , 
1759228132.949112, 1.041029, 9.671677, 0.610073, -0.206055, 0.156839, 0.188941, 106.084473, 140.625656, -548.484497, , 
1759228132.969095, 0.869394, 9.495105, 0.647332, -0.197973, 0.236247, 0.241820, 105.975143, 140.587997, -549.158447, , 
1759228132.989486, 0.699705, 9.489269, 0.689231, -0.163110, 0.259515, 0.270236, 105.854279, 140.339676, -548.615967, , 
1759228133.009481, 0.578948, 9.885509, 0.919373, -0.117480, 0.233801, 0.285713, 105.675476, 140.143738, -548.033569, , 
1759228133.029480, 0.325462, 10.146327, 1.178995, -0.110526, 0.195425, 0.281476, 105.689896, 140.141647, -548.443115, , 
1759228133.049477, 0.004489, 9.911845, 1.414075, -0.117525, 0.113498, 0.264789, 105.495041, 139.880829, -548.153992, , 
1759228133.069111, -0.262165, 10.064027, 1.700033, -0.104374, 0.117176, 0.239119, 105.391144, 139.838120, -547.953369, , 
1759228133.089477, -0.491859, 10.526257, 1.695095, -0.089970, 0.136490, 0.211252, 105.121140, 139.667969, -548.095947, , 
1759228133.109479, -0.270096, 10.524910, 1.635689, -0.111176, 0.145834, 0.209149, 104.948669, 139.489105, -547.564026, , 
1759228133.129480, 0.329502, 10.251523, 1.897255, -0.121715, 0.003401, 0.195956, 105.044266, 139.276978, -547.789673, , 
1759228133.149474, 1.097891, 9.771036, 1.828123, -0.152412, -0.105584, 0.216967, 104.873428, 139.284134, -547.435242, , 
1759228133.169126, 1.405995, 9.868301, 1.275062, -0.197653, 0.089763, 0.275638, 104.886047, 139.023758, -548.037415, , 
1759228133.189478, 1.402853, 10.101137, 0.941669, -0.165018, 0.359406, 0.322206, 104.704514, 138.701569, -547.937744, , 
1759228133.209476, 1.172111, 9.805752, 1.268029, -0.103561, 0.387432, 0.367153, 104.622543, 138.753845, -547.217896, , 
1759228133.229496, 0.696114, 9.086594, 1.942895, -0.081990, 0.408122, 0.393446, 104.534393, 138.484589, -547.538147, , 
1759228133.249478, 0.602591, 8.940099, 2.363676, -0.154623, 0.526349, 0.360922, 104.095367, 138.189529, -546.932739, , 
1759228133.269143, 1.043722, 8.999804, 1.963096, -0.268603, 0.538846, 0.326041, 103.997650, 138.008118, -547.653809, , 
1759228133.289476, 1.240795, 9.255535, 1.206229, -0.280749, 0.398060, 0.314528, 103.667618, 137.783005, -547.574097, , 
1759228133.309476, 1.389236, 9.519944, 1.112256, -0.226180, 0.230422, 0.310014, 103.573746, 137.516159, -547.177246, , 
1759228133.329481, 1.442207, 9.394398, 1.258452, -0.195888, 0.239856, 0.350752, 103.775116, 137.262070, -547.340149, , 
1759228133.349476, 1.073051, 9.429414, 1.583166, -0.159204, 0.252099, 0.410851, 103.552795, 137.109604, -546.496155, , 
1759228133.369158, 0.579397, 9.597756, 1.881394, -0.119073, 0.152975, 0.479362, 103.227173, 137.005051, -547.160645, , 
1759228133.389474, 0.336685, 9.799617, 1.530344, -0.094223, 0.186472, 0.546063, 103.331985, 136.769302, -547.003540, , 
1759228133.409473, -0.085593, 10.497676, 1.359458, -0.018625, 0.312137, 0.610829, 103.234665, 136.462860, -546.312683, , 
1759228133.429482, -0.423474, 10.942549, 1.338209, 0.096395, 0.362403, 0.625135, 103.036774, 136.331619, -547.180542, , 
1759228133.449489, -0.736965, 11.141118, 1.192163, 0.231669, 0.386397, 0.581291, 102.682083, 136.301086, -546.112549, , 
1759228133.469183, -0.900070, 11.233893, 0.988805, 0.335446, 0.359838, 0.512218, 102.451492, 136.255203, -546.932068, , 
1759228133.489477, -0.827795, 10.923246, 0.805200, 0.390332, 0.281899, 0.440751, 102.469269, 136.415237, -546.509094, , 
1759228133.509486, -0.758363, 10.272771, 0.339677, 0.461230, 0.189408, 0.366823, 102.441742, 136.307114, -546.012390, , 
1759228133.529480, -1.241842, 9.926659, -0.119411, 0.574630, 0.127571, 0.261898, 102.341583, 136.424194, -546.206909, , 
1759228133.549477, -1.530643, 10.896910, -0.356586, 0.737701, 0.013979, 0.119108, 102.322601, 136.678207, -545.467651, , 
1759228133.569186, -1.355118, 11.038916, -0.090231, 1.019422, 0.088765, -0.199105, 102.464172, 137.164185, -546.458252, , 
1759228133.589469, -2.102857, 10.698939, 0.637307, 1.438199, 0.392127, -0.620200, 102.072433, 138.011703, -545.866333, , 
1759228133.609485, -1.015291, 10.617087, 0.082001, 1.736853, 0.640124, -0.993779, 101.784058, 138.831879, -545.370728, , 
1759228133.629482, 0.796820, 10.563068, -0.948104, 2.032350, 0.751083, -1.294410, 101.278152, 140.147018, -545.792236, , 
1759228133.649503, 1.116446, 11.100267, -1.451784, 2.341502, 0.592352, -1.673918, 100.680313, 141.597565, -545.513367, , 
1759228133.669215, 1.577779, 11.638813, 0.097713, 2.305143, 0.356722, -2.061551, 100.424896, 143.038376, -545.786682, , 
1759228133.689480, 1.503409, 11.565640, 1.658134, 1.866920, 0.054938, -2.181028, 100.891525, 144.287125, -545.829834, , 
1759228133.709485, 0.593014, 10.495881, 3.213318, 1.333284, -0.042504, -2.011354, 100.729813, 145.307144, -545.323364, , 
1759228133.729480, -0.641646, 9.262268, 3.356371, 0.719491, -0.016192, -1.991391, 100.809357, 145.976410, -545.879822, , 
1759228133.749478, -0.847697, 10.279954, 1.406444, 0.415266, 0.216441, -1.995044, 100.616776, 146.405594, -545.038330, , 
1759228133.769228, -1.971475, 11.362133, 0.563086, 0.109429, 0.696979, -1.837707, 100.241653, 146.810074, -545.507690, , 
1759228133.789460, -3.071013, 11.291654, 0.215628, -0.254629, 1.132881, -1.915402, 99.272446, 146.959900, -545.250732, , 
1759228133.809458, -1.160589, 11.097723, 0.458340, -0.363248, 1.588471, -1.888588, 98.422302, 146.653732, -544.538025, , 
1759228133.829457, 0.211438, 10.624868, 1.236306, -0.290006, 1.697920, -1.483345, 97.348709, 146.536179, -545.287048, , 
1759228133.849458, 1.814805, 8.421904, 1.514033, -0.163276, 1.801856, -1.051849, 95.972931, 146.303848, -544.320435, , 
1759228133.869248, 2.031031, 8.364742, 1.617134, -0.147475, 1.895168, -0.923036, 94.628311, 146.294296, -544.749756, , 
1759228133.889481, 1.641076, 8.140585, 1.179743, -0.349959, 1.839614, -0.968579, 93.452866, 145.843216, -544.906128, , 
1759228133.909483, 1.494730, 8.594735, 0.785298, -0.704307, 1.760031, -1.200994, 92.414108, 145.399063, -544.319214, , 
1759228133.929474, 1.245434, 8.484003, 0.750582, -0.874302, 1.710840, -0.966461, 91.334259, 144.773422, -544.681091, , 
1759228133.949469, 1.746420, 8.040328, 0.481085, -0.840087, 1.578120, -0.444112, 90.495407, 144.101440, -543.765869, , 
1759228133.969255, 2.521244, 7.347057, 0.063596, -0.826511, 1.511631, -0.269518, 89.463959, 143.628571, -544.928894, , 
1759228133.989473, 2.967912, 6.855647, -0.545579, -0.784603, 1.399116, 0.046490, 89.000107, 143.098419, -544.515259, , 
1759228134.009469, 2.683601, 7.173926, -1.517176, -0.776582, 1.317959, 0.493090, 88.355560, 142.668762, -543.738342, , 
1759228134.029469, 1.043872, 9.107393, -3.377770, -0.631877, 1.424773, 0.967793, 87.373062, 142.659195, -544.388062, , 
1759228134.049470, -2.479345, 11.776479, -4.177732, -0.165038, 1.612142, 0.742348, 86.744354, 142.374817, -543.675110, , 
1759228134.069275, -7.270293, 12.854469, -3.510498, -0.136201, 1.534059, 0.231716, 85.886978, 142.404175, -544.454895, , 
1759228134.089466, -5.126135, 11.373206, -3.021482, -0.512010, 0.811352, -0.688573, 85.625809, 141.874466, -544.276367, , 
1759228134.109469, -3.631405, 8.688857, -1.498172, -0.414561, 0.191825, -0.591129, 85.555878, 141.458176, -544.043640, , 
1759228134.129468, -2.389264, 7.694515, 0.807744, -0.323807, -0.594933, -0.361092, 85.691116, 141.278015, -544.365540, , 
1759228134.149465, -2.262521, 7.979126, -0.773177, -0.254786, -0.807996, -0.372420, 86.629379, 140.722687, -543.005005, , 
1759228134.169286, -0.964714, 11.687445, -0.499041, -0.187280, -0.548424, -0.131765, 87.071320, 140.629562, -543.205811, , 
1759228134.189464, -0.914735, 19.621680, 2.362329, -0.581435, -0.468773, 0.835602, 87.177261, 140.281219, -542.330566, , 
1759228134.209243, -2.455852, 21.547216, -1.209521, -0.333892, -0.573657, 1.692027, 87.064835, 140.313965, -542.479065, , 
1759228134.229480, -2.524087, 11.956793, 0.281618, 0.294664, -0.156544, 1.312461, 87.119598, 140.804169, -543.361267, , 
1759228134.249465, 2.065597, 5.175217, 2.332102, 0.306789, -1.956709, 0.899288, 88.005905, 140.944458, -542.347595, , 
1759228134.269304, 3.183839, 1.954566, 0.240019, 0.030537, -2.175925, 0.945202, 89.430466, 141.106354, -542.778809, , 
1759228134.289471, 4.120571, 2.859275, -2.848202, -0.285194, -0.841819, 0.781015, 89.797974, 141.229004, -542.851929, , 
1759228134.309467, 5.227739, 6.392967, -0.643442, 0.611381, 0.460080, 1.028790, 89.444962, 141.534714, -541.789856, , 
1759228134.329469, 4.919486, 12.575694, 3.888333, 0.851236, 1.065138, 1.458792, 88.804413, 142.292206, -542.176636, , 
1759228134.349465, 0.720954, 16.202610, 3.038990, -0.788015, 2.471145, 1.198517, 87.719284, 141.976028, -541.556335, , 
1759228134.369321, -2.485331, 10.811167, 0.445920, -0.846145, 2.425405, 0.712290, 86.605255, 141.912109, -542.669800, , 
1759228134.389472, -3.086575, 8.848072, 0.456694, -0.444239, 0.444006, 0.019270, 86.453934, 141.671722, -542.740967, , 
1759228134.409466, -2.446575, 8.425944, 0.827346, -0.073686, -0.575933, -0.186157, 87.063354, 141.399063, -542.015076, , 
1759228134.429467, -0.783652, 8.831013, 1.180341, -0.398359, -0.171266, 0.170014, 86.752060, 141.245163, -542.639282, , 
1759228134.449475, -0.018405, 9.048736, 1.961001, -0.751363, 0.375362, 0.230565, 86.727158, 140.654434, -541.837891, , 
1759228134.469338, 1.482160, 9.877728, 2.037466, -0.771938, 0.258417, 0.209196, 86.481979, 140.398087, -542.464722, , 
1759228134.489472, 2.479345, 9.969306, 0.446219, -0.807791, 0.085264, 0.454850, 86.223114, 140.102295, -542.849548, , 
1759228134.509465, 2.220023, 9.373150, -1.154304, -0.758678, 0.451158, 0.746333, 86.122208, 139.549820, -542.137939, , 
1759228134.529469, -0.237325, 9.405322, -0.993145, -0.477858, 0.804628, 0.911239, 85.937973, 139.578873, -542.807556, , 
1759228134.549460, -1.475127, 9.454104, 0.454000, -0.316101, 0.631697, 0.824043, 85.646942, 139.513855, -543.099548, , 
1759228134.569362, -1.553837, 9.467272, -0.071377, -0.224532, 0.379649, 0.666483, 85.600861, 139.608749, -543.214417, , 
1759228134.589445, -1.141735, 9.575610, 0.206949, -0.116106, 0.449427, 0.582537, 85.128265, 139.616745, -542.948547, , 
1759228134.609445, -0.962619, 9.922170, 1.030853, -0.051282, 0.565768, 0.553667, 84.824371, 139.567551, -542.733521, , 
1759228134.629462, -0.976236, 10.429442, 1.240945, -0.036678, 0.560470, 0.494850, 84.844284, 139.675095, -543.276367, , 
1759228134.649450, -1.446098, 10.939107, 0.359430, 0.039379, 0.473144, 0.457727, 84.408264, 139.968231, -543.474121, , 
1759228134.669368, -0.525378, 10.443957, -1.362151, 0.103314, 0.154186, 0.268036, 84.396057, 139.912979, -542.974609, , 
1759228134.689447, 1.594239, 10.361207, -4.377349, 0.360934, 0.295132, 0.052364, 84.246140, 140.366989, -544.169434, , 
1759228134.709448, -1.315464, 11.728895, -1.004517, 0.964252, 1.215010, 0.044878, 83.392166, 140.843582, -543.269897, , 
1759228134.729454, -2.931999, 11.303026, 1.440711, 0.835771, 1.897019, -0.235117, 82.187363, 141.409500, -544.498291, , 
1759228134.749449, -2.908207, 11.285070, 1.095946, 1.062982, 1.382857, -0.561886, 81.904663, 141.818314, -544.941284, , 
1759228134.769390, -1.204882, 12.009016, -0.222361, 1.598582, 0.595838, -0.864941, 81.152252, 142.572220, -544.645325, , 
1759228134.789470, 1.872715, 11.792191, -2.418892, 2.050681, 0.224571, -0.993387, 80.845917, 143.660065, -545.845520, , 
1759228134.809464, 4.273201, 11.097274, -2.090737, 2.362118, -0.443474, -0.950028, 81.145737, 144.706161, -544.944275, , 
1759228134.829463, 3.412037, 9.998934, 1.368586, 2.157410, -1.023537, -1.265161, 82.029633, 145.596298, -545.570068, , 
1759228134.848566, 3.411288, 8.794501, 2.500594, 1.335238, -0.791814, -1.508478, 82.165558, 145.570374, -544.679138, , 
1759228134.869404, 2.716521, 8.999954, 1.423652, 0.867857, 0.228302, -1.220190, 82.125183, 145.903702, -545.167603, , 
1759228134.889443, 0.170288, 9.591022, 1.818247, 0.632490, 1.380940, -0.960268, 81.102356, 146.171310, -546.107971, , 
1759228134.909465, -1.822436, 10.773907, 1.050306, 0.478548, 1.856097, -0.888077, 80.271149, 146.003433, -545.691284, , 
1759228134.929459, -2.564639, 11.651682, 0.605883, 0.518206, 1.834135, -0.840617, 79.365799, 146.218536, -546.922485, , 
1759228134.949466, -2.259079, 11.749694, 0.067337, 0.474850, 1.523304, -0.804323, 78.334564, 146.200409, -548.332520, , 
1759228134.969421, 0.693570, 9.861717, 0.781408, 0.173395, 1.564605, -0.709545, 77.344635, 145.938873, -548.430420, , 
1759228134.989467, 2.360832, 7.917924, 1.846528, -0.212905, 1.565110, -0.533578, 76.364929, 145.660202, -549.973633, , 
1759228135.009458, 3.258957, 6.984784, 1.628506, -0.321879, 1.347936, -0.449870, 75.565140, 145.329163, -549.174866, , 
1759228135.029434, 3.695600, 7.189937, 0.975488, -0.347887, 1.442212, -0.463184, 75.191559, 145.082016, -550.829407, , 
1759228135.049460, 2.268955, 8.374618, 0.284012, -0.738462, 1.739747, -0.300590, 74.563126, 144.668671, -551.285645, , 
1759228135.069438, 1.469741, 8.583961, 0.155773, -0.860644, 1.780244, -0.115211, 73.700958, 144.299957, -551.666992, , 
1759228135.089462, 1.928529, 8.060080, 0.312443, -0.771176, 1.512806, 0.117388, 73.001480, 144.217331, -552.709473, , 
1759228135.109460, 2.031330, 7.583035, -0.196474, -0.638296, 1.354523, 0.454205, 72.644516, 143.994431, -552.262756, , 
1759228135.129452, 1.958906, 8.338406, -0.273388, -0.556678, 1.602224, 0.733258, 71.844131, 144.373749, -553.442261, , 
1759228135.149464, 1.305588, 10.167576, -0.513706, -0.594306, 2.090603, 1.021139, 71.069504, 144.426514, -554.595764, , 
1759228135.168903, 0.243909, 12.013356, -1.222090, -0.679630, 3.240870, 0.807135, 70.052200, 144.569138, -555.350586, , 
1759228135.189459, -0.380678, 14.176367, -3.962703, -0.925555, 3.963990, 0.379585, 68.903732, 144.555450, -557.595154, , 
1759228135.209459, -2.707393, 14.207193, -11.253646, -0.103626, 3.315607, -0.077692, 68.045624, 144.178894, -558.597168, , 
1759228135.229505, 0.141408, 11.093234, -3.643975, 1.035322, 0.735309, -0.727888, 67.814041, 144.277832, -559.620117, , 
1759228135.249464, 1.891719, 8.995465, 0.862960, 0.983010, -1.200782, -0.709307, 68.169785, 144.237030, -559.226562, , 
1759228135.268914, 3.352780, 7.469610, 3.743933, 0.243274, -1.719025, -0.485109, 68.571274, 144.098999, -557.967224, , 
1759228135.289458, 4.585944, 7.879617, 7.946655, -0.652697, -2.924910, 0.188315, 69.553757, 143.833176, -556.869995, , 
1759228135.309461, 3.503914, 9.088539, -1.142782, -0.890793, -1.555794, 0.402233, 70.021652, 143.929977, -555.382446, , 
1759228135.329500, 2.598457, 9.731532, -3.791069, -0.541641, 2.873702, 0.546035, 69.299225, 144.076630, -557.614441, , 
1759228135.349461, 1.260547, 11.361235, -2.818574, -0.582953, 5.435795, 1.210867, 67.549881, 144.558197, -560.361511, , 
1759228135.368928, -4.220978, 12.029367, -4.482394, -0.722717, 5.381109, 1.062225, 66.093353, 144.772842, -563.226685, , 
1759228135.389462, -4.667346, 10.763732, -0.576404, -0.225200, 1.325246, -0.130502, 66.069199, 144.696899, -563.882690, , 
1759228135.409455, -2.333598, 8.075044, 2.336890, 0.337758, -1.887277, -0.636699, 66.655731, 144.241806, -562.117004, , 
1759228135.429468, 1.077241, 8.274361, 4.717475, -0.128467, -2.580916, -0.625639, 67.006836, 144.073410, -561.547546, , 
1759228135.449266, 1.327734, 8.233061, 1.132906, -0.498890, -0.745097, -0.563508, 67.222382, 143.455994, -560.717224, , 
1759228135.468944, 2.345719, 9.851841, 0.407164, -0.900227, 1.147793, -0.761190, 66.850708, 142.898621, -561.074646, , 
1759228135.489461, 4.726902, 11.722460, -1.518373, -0.959670, 2.313734, -0.256985, 66.221481, 142.517853, -562.934814, , 
1759228135.509457, 1.410334, 11.216087, -2.647239, -0.225180, 1.598911, 0.295012, 66.370361, 142.563232, -562.930847, , 
1759228135.529455, -1.040879, 10.601226, -1.405097, 0.228675, 0.420381, 0.198384, 66.250565, 142.737274, -564.057373, , 
1759228135.549463, -0.959476, 9.739463, 0.742053, 0.118260, 0.788690, 0.142807, 65.846848, 143.057159, -564.320679, , 
1759228135.568959, -0.715717, 9.838672, 2.025495, 0.004685, 1.014476, 0.191506, 65.816162, 143.002182, -564.391968, , 
1759228135.589469, -1.162684, 10.002226, 1.371728, -0.079805, 0.955746, 0.245246, 65.914261, 143.071716, -565.086121, , 
1759228135.609453, -1.126622, 10.250026, -0.187795, -0.219134, 1.046777, 0.219731, 65.402954, 143.200180, -564.993042, , 
1759228135.629445, -0.281917, 9.909750, -1.381903, -0.248775, 1.175187, 0.118866, 65.568573, 143.144806, -566.431824, , 
1759228135.649454, -0.387861, 9.236680, -1.126173, 0.033678, 0.991935, 0.107623, 65.546509, 143.377838, -567.123779, , 
1759228135.668981, -0.568024, 8.880393, 1.047912, 0.286528, 1.022918, 0.052771, 65.429642, 143.462296, -566.997375, , 
1759228135.689459, -0.349254, 9.541492, 2.514510, 0.169526, 1.222104, -0.012694, 64.920807, 143.673203, -568.314819, , 
1759228135.708772, -0.152630, 10.078093, 2.743306, -0.019861, 1.358543, -0.048786, 64.783508, 143.324478, -568.274414, , 
1759228135.729453, 0.834230, 9.935787, 2.857180, -0.231012, 1.195660, -0.135976, 64.483536, 143.511658, -569.588867, , 
1759228135.749465, 1.826477, 9.324817, 2.035071, -0.466085, 0.988327, -0.213029, 64.383102, 143.327515, -570.753662, , 
1759228135.768991, 2.934244, 9.446323, 0.045340, -0.600535, 0.748346, -0.242313, 64.475983, 142.958771, -570.628418, , 
1759228135.789444, 4.603900, 10.027814, -1.702726, -0.413895, 0.428259, -0.083226, 64.583450, 143.062119, -571.343811, , 
1759228135.809438, 3.808726, 10.265140, -2.888754, 0.005386, 0.582018, 0.150640, 64.698853, 143.064163, -570.481201, , 
1759228135.829438, 0.639701, 10.650905, -1.016788, 0.332865, 0.840861, 0.365887, 64.481903, 143.496796, -571.851318, , 
1759228135.849445, -1.120486, 9.972748, 1.745972, 0.358449, 0.399103, 0.321762, 64.598862, 143.663376, -572.158325, , 
1759228135.869004, -1.619677, 9.583840, 2.651129, 0.267488, 0.168668, 0.234568, 64.844559, 143.753677, -571.647705, , 
1759228135.889455, -1.881543, 9.018060, 2.842067, 0.048184, 0.060104, -0.000412, 64.773376, 143.910706, -572.446838, , 
1759228135.909454, -0.675165, 9.362376, 1.000327, -0.130340, 0.302430, -0.194045, 64.845856, 143.544800, -571.824036, , 
1759228135.929461, 1.104924, 10.097546, -0.214730, -0.212847, 0.472936, -0.303327, 64.498230, 143.363861, -572.886780, , 
1759228135.949456, 2.652177, 10.198252, -0.235979, -0.050306, 0.194065, -0.158388, 64.380829, 143.159271, -572.433533, , 
1759228135.969019, 2.749292, 9.696217, 0.386364, -0.040217, 0.124357, -0.069416, 64.309097, 143.191772, -572.419739, , 
1759228135.989454, 1.420659, 9.408015, 0.741903, -0.018022, 0.130262, 0.030234, 64.769333, 143.224030, -573.432251, , 
1759228136.009456, 0.152930, 9.493010, 1.056591, 0.004378, 0.000050, 0.044044, 64.427490, 143.205780, -572.121216, , 
1759228136.029454, -0.211438, 9.666888, 0.605434, 0.020399, -0.165365, -0.026109, 64.538727, 143.340134, -572.562134, , 
1759228136.049470, 0.283563, 9.888801, 0.212934, 0.071459, -0.223479, -0.117229, 64.522659, 143.012360, -572.105408, , 
1759228136.069035, 0.209942, 9.966014, 0.262315, 0.085875, -0.137312, -0.076686, 64.409378, 142.943832, -571.647522, , 
1759228136.089454, -0.163704, 9.883115, 0.573262, 0.072270, -0.032040, -0.079138, 64.416397, 143.169449, -572.226501, , 
1759228136.108877, -0.423624, 9.684546, 0.563535, 0.041833, 0.002540, -0.078804, 64.298447, 142.760864, -571.768555, , 
1759228136.129463, -0.158765, 9.712229, 0.570269, 0.030515, -0.096608, -0.113154, 64.114929, 142.936874, -572.207153, , 
1759228136.149455, 0.186149, 9.785401, 0.431555, -0.013771, -0.061563, -0.093553, 64.285187, 142.915527, -572.245300, , 
1759228136.169050, 0.280271, 9.807548, 0.284012, -0.022989, -0.037699, -0.070656, 64.443680, 142.764114, -571.849243, , 
1759228136.189449, 0.007482, 9.818920, 0.273687, -0.009251, -0.002590, -0.030025, 64.600616, 142.905502, -572.403137, , 
1759228136.209451, -0.140061, 9.887754, 0.271592, -0.005596, 0.010546, -0.017998, 64.602173, 142.685364, -571.524414, , 
1759228136.229455, -0.123301, 9.793033, 0.276680, -0.009512, -0.023567, -0.014678, 64.492554, 142.857803, -572.310547, , 
1759228136.249019, -0.098162, 9.803508, 0.270694, -0.028496, 0.038860, -0.000611, 64.858002, 142.655823, -572.275757, , 
1759228136.269065, -0.062549, 9.755324, 0.307356, -0.032745, 0.059434, 0.002091, 64.825058, 142.713135, -572.094604, , 
1759228136.289448, -0.119710, 9.745747, 0.303615, -0.036940, 0.096748, 0.012669, 64.662094, 142.819870, -572.538696, , 
1759228136.309452, -0.008529, 9.882367, 0.261417, -0.040201, 0.118296, 0.014529, 64.441711, 142.671539, -571.832825, , 
1759228136.329451, 0.165649, 9.838972, 0.180313, -0.032432, 0.091989, 0.010037, 64.571793, 142.582764, -572.698059, , 
1759228136.349495, 0.224606, 9.805603, 0.241665, -0.009485, 0.068445, 0.019437, 64.396149, 142.786682, -572.600464, , 
1759228136.369080, 0.297031, 9.852439, 0.227599, -0.017720, 0.071608, 0.017935, 64.488678, 142.642487, -572.244568, , 
1759228136.389448, 0.305261, 9.806949, 0.222810, -0.012215, 0.089378, 0.019243, 64.620438, 142.693146, -573.043701, , 
1759228136.409450, 0.151433, 9.777321, 0.351648, -0.009617, 0.119271, 0.015528, 64.713959, 142.570999, -572.279297, , 
1759228136.429390, -0.038008, 9.710283, 0.347608, -0.018940, 0.072016, 0.015755, 64.671753, 142.754242, -572.872192, , 
1759228136.449450, 0.053870, 9.803358, 0.248997, -0.013052, 0.044060, -0.002742, 64.638412, 142.567947, -572.094238, , 
1759228136.469105, 0.272939, 9.940426, 0.166247, 0.002127, 0.033428, -0.012600, 64.626694, 142.608795, -572.204529, , 
1759228136.489450, 0.278326, 9.843012, 0.193631, 0.001988, -0.003612, -0.002699, 64.476624, 142.766678, -572.958740, , 
1759228136.509052, 0.336535, 9.787796, 0.378284, 0.005299, 0.008989, 0.008134, 64.662628, 142.430573, -572.537903, , 
1759228136.529453, 0.401029, 9.709834, 0.336385, -0.004825, 0.055990, 0.016711, 64.671005, 142.645721, -573.115845, , 
1759228136.549448, 0.454898, 9.736320, 0.333542, -0.023293, 0.048202, 0.030160, 64.707367, 142.667908, -573.129822, , 
1759228136.569111, 0.423175, 9.775376, 0.258125, -0.042774, 0.036731, 0.038136, 64.703552, 142.578125, -572.844971, , 
1759228136.589446, 0.422577, 9.768492, 0.209493, -0.031901, 0.022152, 0.038355, 64.591797, 142.783325, -572.797546, , 
1759228136.609449, 0.378583, 9.749339, 0.180463, -0.023009, -0.003507, 0.040029, 64.688431, 142.798050, -572.495300, , 
1759228136.629481, 0.366762, 9.771186, 0.195726, -0.025755, -0.014813, 0.027641, 64.564667, 142.784653, -572.988586, , 
1759228136.649033, 0.345364, 9.730036, 0.271293, -0.017984, -0.048904, 0.013368, 64.765991, 142.719574, -572.882446, , 
1759228136.669157, 0.417639, 9.704747, 0.367510, -0.013679, -0.077883, 0.002247, 64.948654, 142.694977, -572.683105, , 
1759228136.689444, 0.497246, 9.771186, 0.321422, -0.033339, -0.071762, -0.007244, 64.817154, 142.933517, -572.938049, , 
1759228136.709287, 0.539892, 9.782558, 0.275034, -0.037553, -0.072303, -0.009329, 64.827530, 142.720184, -572.235840, , 
1759228136.729468, 0.579247, 9.689484, 0.310199, -0.023904, -0.121702, -0.007938, 64.907730, 142.653061, -572.644714, , 
1759228136.749474, 0.596904, 9.753080, 0.285060, -0.041894, -0.126308, 0.006836, 64.744354, 142.687088, -572.334167, , 
1759228136.769174, 0.544382, 9.777620, 0.153079, -0.056762, -0.127643, 0.022223, 64.761963, 142.702194, -572.175293, , 
1759228136.789449, 0.292542, 9.764003, 0.157718, -0.045401, -0.136493, 0.035071, 64.574768, 142.919250, -572.507019, , 
1759228136.809445, 0.121655, 9.846603, 0.244508, -0.062013, -0.146664, 0.027554, 64.750931, 142.771667, -571.965332, , 
1759228136.829497, 0.055067, 9.880721, 0.294188, -0.076756, -0.161192, 0.016558, 64.627396, 142.872635, -571.974976, , 
1759228136.849464, 0.148889, 9.815179, 0.379930, -0.089538, -0.183174, 0.006016, 64.826996, 142.803421, -571.790161, , 
1759228136.869197, 0.297330, 9.667487, 0.445621, -0.108827, -0.178410, 0.000436, 64.654739, 142.896957, -572.005127, , 
1759228136.889447, 0.362123, 9.670330, 0.330250, -0.139897, -0.175732, 0.005163, 64.874466, 142.761307, -571.993530, , 
1759228136.909447, 0.358981, 9.984270, 0.249596, -0.161470, -0.148894, 0.020155, 64.854523, 142.683273, -571.161865, , 
1759228136.929256, 0.296731, 10.071658, 0.289399, -0.146871, -0.171402, 0.027890, 64.903549, 142.774887, -571.430359, , 
1759228136.949455, 0.370802, 9.582942, 0.509815, -0.127426, -0.248105, 0.031628, 64.774170, 142.640289, -570.797058, , 
1759228136.969212, 0.332195, 9.458593, 0.480187, -0.151888, -0.220448, 0.039901, 64.715424, 142.865601, -571.508789, , 
1759228136.989444, 0.257975, 9.854983, 0.449212, -0.188289, -0.157171, 0.055280, 64.698990, 142.830826, -571.061768, , 
1759228137.009444, 0.073322, 9.738415, 0.245855, -0.157381, -0.198745, 0.064903, 64.700180, 142.815018, -570.895020, , 
1759228137.029248, -0.019004, 9.844209, 0.307954, -0.121578, -0.217131, 0.048070, 65.042557, 142.776123, -571.234253, , 
1759228137.049447, 0.038008, 10.184635, 0.529268, -0.136490, -0.206461, 0.025836, 64.807220, 142.735519, -570.814575, , 
1759228137.069217, 0.181810, 9.828347, 0.771980, -0.146510, -0.252368, 0.020574, 64.772873, 142.927704, -570.719727, , 
1759228137.089441, 0.305111, 9.649830, 0.712574, -0.152579, -0.288252, 0.024410, 64.877090, 142.858994, -570.397827, , 
1759228137.109420, 0.378733, 10.010307, 0.479888, -0.169025, -0.241948, 0.040438, 64.997589, 143.018372, -569.505493, , 
1759228137.129451, 0.326659, 10.059687, 0.448614, -0.121025, -0.235890, 0.041882, 64.820557, 142.983566, -570.087646, , 
1759228137.149442, 0.246902, 9.759664, 0.727388, -0.065735, -0.277126, 0.029120, 65.033875, 142.843796, -569.949036, , 
1759228137.169235, 0.354791, 9.730335, 0.954987, -0.059179, -0.311184, 0.009062, 65.126907, 142.803894, -569.765747, , 
1759228137.188490, 0.461782, 9.613019, 1.011999, -0.065033, -0.339301, 0.012599, 65.239838, 142.852631, -569.796265, , 
1759228137.209439, 0.316932, 9.631424, 1.010652, -0.065104, -0.313127, 0.041172, 64.898468, 142.773285, -569.013306, , 
1759228137.229457, 0.217872, 9.579949, 1.188123, -0.079471, -0.255639, 0.053984, 65.119461, 143.027298, -569.429565, , 
1759228137.248510, 0.081403, 9.596708, 1.192462, -0.103375, -0.194908, 0.054593, 65.183167, 142.739410, -569.090088, , 
1759228137.269247, -0.032022, 9.669732, 1.154604, -0.115360, -0.147473, 0.044810, 65.050827, 143.103256, -569.086426, , 
1759228137.288443, 0.096516, 9.629180, 1.260098, -0.101986, -0.188368, 0.035517, 65.220596, 142.859787, -569.342163, , 
1759228137.309371, 0.317681, 9.511565, 1.158345, -0.113194, -0.189422, 0.023264, 65.044281, 142.956863, -568.468506, , 
1759228137.329448, 0.544531, 9.483732, 0.905457, -0.125394, -0.105859, 0.016608, 65.226334, 142.998535, -569.118469, , 
1759228137.349442, 0.324265, 9.489568, 0.909348, -0.097050, -0.074305, 0.023515, 65.358139, 143.026581, -569.012939, , 
1759228137.369263, 0.168342, 9.725696, 1.275361, -0.101561, -0.133921, 0.009307, 65.324173, 142.927109, -569.260742, , 
1759228137.388461, 0.275184, 9.853786, 1.345242, -0.151293, -0.151047, 0.004649, 65.362366, 143.003311, -569.031982, , 
1759228137.409440, 0.464475, 9.821614, 1.167622, -0.179889, -0.086223, 0.020756, 65.294067, 142.912842, -568.337891, , 
1759228137.429093, 0.688782, 9.484929, 1.063923, -0.177629, -0.015816, 0.046152, 65.165436, 142.891632, -568.898438, , 
1759228137.449446, 0.705841, 9.421034, 1.001824, -0.159011, -0.016962, 0.080313, 65.377197, 142.870667, -568.228699, , 
1759228137.469287, 0.530166, 9.545682, 0.963965, -0.149619, 0.009394, 0.089482, 65.169464, 143.033401, -568.770752, , 
1759228137.488477, 0.348207, 9.635016, 1.080084, -0.134202, -0.040668, 0.086144, 65.428711, 142.928680, -568.804321, , 
1759228137.509445, 0.200514, 9.656713, 1.188422, -0.127207, -0.033256, 0.091246, 65.405258, 143.061981, -568.728516, , 
1759228137.529447, 0.194379, 9.642647, 1.373972, -0.112710, 0.043830, 0.101937, 65.560410, 143.074265, -568.730164, , 
1759228137.548814, 0.143054, 9.440786, 1.393276, -0.103910, 0.108277, 0.120001, 65.418213, 143.122772, -568.237366, , 
1759228137.569295, -0.153079, 9.924714, 1.355417, -0.064666, 0.174479, 0.160716, 65.490967, 143.132019, -568.616089, , 
1759228137.588538, -0.257077, 10.442909, 1.702277, -0.091128, 0.180059, 0.168577, 65.321564, 143.389847, -568.819824, , 
1759228137.609443, -0.191087, 10.158598, 1.837999, -0.101295, 0.086607, 0.185930, 65.394623, 143.631500, -568.510742, , 
1759228137.629006, -0.214131, 9.582493, 1.273566, -0.077554, 0.080139, 0.180330, 65.387939, 143.559570, -568.764465, , 
1759228137.649442, -0.348656, 9.839421, 1.139490, -0.048767, 0.210838, 0.174773, 65.513611, 143.569427, -568.985596, , 
1759228137.669310, -0.411952, 10.242395, 1.487697, -0.051491, 0.145742, 0.171675, 65.254364, 143.795959, -569.136841, , 
1759228137.688520, -0.356736, 10.167277, 1.563713, -0.094429, -0.091224, 0.160140, 65.438629, 143.818039, -568.966125, , 
1759228137.709438, 0.030376, 9.513660, 0.966509, -0.116984, -0.160092, 0.171887, 65.423889, 143.921616, -568.748657, , 
1759228137.729440, -0.215179, 9.570671, 0.756717, -0.100882, 0.077943, 0.217594, 65.416824, 144.069046, -568.875000, , 
1759228137.749434, -0.694618, 9.652224, 1.650353, -0.105038, 0.224504, 0.261360, 65.527069, 144.104767, -568.466003, , 
1759228137.769326, -0.828094, 9.175329, 1.852813, -0.164511, 0.213171, 0.263746, 65.638107, 144.269592, -569.090942, , 
1759228137.788518, -0.655263, 9.111434, 1.528997, -0.206678, 0.243049, 0.254753, 65.695312, 144.386307, -569.234375, , 
1759228137.809415, 0.324115, 9.778069, 1.041029, -0.240332, 0.368154, 0.268683, 65.604614, 144.543869, -569.042908, , 
1759228137.829419, 0.579247, 9.879524, 1.087566, -0.235723, 0.345259, 0.311718, 65.775345, 144.834290, -569.649292, , 
1759228137.849417, 0.539743, 9.886856, 1.033996, -0.224739, 0.268236, 0.333276, 65.966095, 144.749420, -569.124756, , 
1759228137.869346, 0.591069, 9.953444, 1.105074, -0.211015, 0.221789, 0.335289, 66.108017, 145.090927, -569.500854, , 
1759228137.888548, 0.594061, 9.777171, 1.238999, -0.171208, 0.144792, 0.337692, 66.035141, 145.447617, -569.734131, , 
1759228137.909454, 0.372897, 9.529820, 1.242441, -0.149363, 0.156269, 0.359674, 66.020218, 145.562531, -569.096069, , 
1759228137.928935, 0.048931, 9.682750, 1.219247, -0.147062, 0.155558, 0.370566, 66.313309, 146.118027, -569.737671, , 
1759228137.949446, -0.070479, 9.727043, 1.379659, -0.140276, 0.093216, 0.390484, 66.641953, 146.191681, -569.347473, , 
1759228137.969363, -0.075118, 9.689035, 1.494730, -0.128394, 0.124402, 0.420137, 66.983078, 146.409897, -570.235413, , 
1759228137.988564, -0.175375, 9.705645, 1.420659, -0.122157, 0.163927, 0.444881, 67.147507, 146.881210, -570.126343, , 
1759228138.009433, -0.225654, 10.037541, 1.335965, -0.090955, 0.294223, 0.482998, 67.162811, 147.143173, -569.501404, , 
1759228138.029433, -0.381726, 10.575488, 0.808342, -0.020973, 0.354657, 0.503058, 67.343277, 147.576828, -569.953796, , 
1759228138.049451, -0.726042, 11.274146, 0.319177, 0.231500, 0.297759, 0.422203, 67.459229, 147.592239, -569.587036, , 
1759228138.069370, -1.129465, 11.093982, 0.546177, 0.341281, 0.239086, 0.380938, 67.716568, 148.228302, -570.437134, , 
1759228138.088575, -1.768118, 10.745327, 1.287033, 0.462957, 0.249038, 0.325721, 67.901352, 148.606873, -570.501526, , 
1759228138.109434, -2.293346, 10.563816, 1.488445, 0.472712, 0.374817, 0.308987, 68.145828, 148.684113, -570.416138, , 
1759228138.129432, -2.378639, 11.402834, 0.972345, 0.471797, 0.541530, 0.253206, 68.131165, 148.816666, -571.217407, , 
1759228138.149482, -2.281973, 11.506084, -0.097115, 0.672491, 0.786724, -0.070066, 68.439133, 148.758530, -570.779053, , 
1759228138.169384, -2.957138, 11.624897, -0.287304, 0.856330, 0.921925, -0.220313, 68.315384, 149.098679, -572.297241, , 
1759228138.188588, -2.883068, 11.397597, -0.169240, 1.222501, 1.179707, -0.443946, 68.451767, 148.987900, -572.919006, , 
1759228138.209436, -1.173608, 10.620080, -1.744924, 1.642519, 1.235566, -0.623101, 68.333130, 148.620132, -573.562256, , 
1759228138.229432, -0.376039, 10.070910, -2.143559, 2.200346, 1.103117, -0.984827, 68.166473, 148.496841, -575.033630, , 
1759228138.249481, -0.075567, 10.760440, -1.340454, 2.531186, 0.840936, -1.778439, 68.211639, 147.683029, -574.890198, , 
1759228138.269400, -0.008230, 11.047146, -0.574908, 2.480304, 0.905448, -1.869422, 68.402008, 146.542679, -576.738770, , 
1759228138.288625, 1.186028, 12.863896, 1.050456, 2.316148, 0.713494, -1.831713, 68.290802, 145.814957, -577.244446, , 
1759228138.309435, 1.514183, 12.753912, 3.470545, 2.065317, 0.051583, -1.621172, 68.393677, 144.844772, -576.939758, , 
1759228138.329432, 0.779462, 12.844742, 5.995979, 1.324159, -0.590132, -1.635959, 68.377075, 144.322525, -577.030762, , 
1759228138.349431, -0.562787, 13.460202, 2.394351, -0.021678, -0.796833, -1.965094, 68.415176, 143.311203, -575.641541, , 
1759228138.369408, -4.480748, 13.357550, -2.160917, 0.031853, -0.453904, -2.266948, 68.393570, 142.781906, -576.257019, , 
1759228138.388623, -5.007323, 14.039449, -2.078766, -0.016305, 0.633112, -3.196738, 68.679276, 141.269165, -576.492737, , 
1759228138.409432, -1.536180, 14.359224, 0.374842, 0.205974, 1.414225, -3.141061, 68.848038, 139.665176, -576.859009, , 
1759228138.428535, -0.997185, 10.973075, -2.343325, 0.647540, 1.460843, -2.743668, 68.778122, 138.433258, -578.487305, , 
1759228138.449444, -0.546327, 9.827899, -1.038635, 0.968447, 2.094730, -2.467341, 69.504150, 137.075745, -578.632019, , 
1759228138.469412, -0.937480, 9.230994, -1.188571, 0.851266, 2.529253, -2.304659, 69.805115, 136.444427, -580.894836, , 
1759228138.488642, -1.130662, 9.025991, -0.622044, 0.838255, 2.411767, -2.090120, 70.480698, 135.208710, -581.864624, , 
1759228138.509433, -0.570419, 8.948329, -1.349432, 0.872229, 2.415469, -1.979660, 71.289520, 134.324036, -582.876709, , 
1759228138.529433, -0.133626, 7.460332, -1.845780, 0.872372, 2.256183, -1.744271, 72.029419, 133.688995, -584.453369, , 
1759228138.549450, -0.124498, 6.691345, -2.330306, 0.859339, 2.187204, -1.516154, 72.806519, 132.907913, -584.696655, , 
1759228138.569408, -0.742352, 5.472247, -2.279729, 0.839254, 2.166461, -1.239504, 73.438538, 132.460419, -586.645020, , 
1759228138.588661, -1.935263, 4.881628, -2.190096, 0.633297, 1.875364, -1.091891, 74.257538, 132.110397, -586.998901, , 
1759228138.609277, -3.682282, 5.049222, -3.113360, 0.455472, 1.547554, -1.011611, 75.071655, 131.696808, -587.277100, , 
1759228138.629433, -4.625897, 5.368548, -3.960159, 0.379453, 1.549751, -0.887310, 75.704865, 131.599319, -588.318298, , 
1759228138.649439, -4.449325, 5.693711, -4.149600, 0.352166, 1.695777, -0.666690, 76.145767, 131.488922, -588.573242, , 
1759228138.668974, -4.398448, 6.206220, -4.323030, 0.301101, 1.692612, -0.536307, 76.844086, 131.537170, -589.782471, , 
1759228138.688675, -4.207809, 6.140080, -4.281281, 0.108799, 1.460242, -0.534426, 77.323471, 131.576172, -590.126831, , 
1759228138.709432, -4.296694, 5.248988, -5.397129, -0.166391, 1.396467, -0.537492, 78.208527, 131.693192, -590.315308, , 
1759228138.729438, -3.431340, 4.096928, -6.149956, -0.487444, 1.369654, -0.294662, 78.542114, 132.201904, -591.792480, , 
1759228138.749433, -2.436998, 3.640982, -6.284031, -0.946602, 0.956479, 0.099228, 78.991394, 132.848877, -591.804626, , 
1759228138.769406, -4.482544, 8.209119, -7.241861, -0.664881, 0.114214, 0.433325, 79.024307, 133.472595, -592.507507, , 
1759228138.788696, -2.328062, 12.611158, -5.497087, -0.351253, -0.836748, 0.475189, 78.657272, 134.079102, -592.368652, , 
1759228138.809424, 2.494160, 11.004499, -3.354277, -1.058171, -1.428072, 0.966978, 77.619217, 134.872192, -592.264160, , 
1759228138.829433, -0.393846, 11.335348, -9.078513, -1.088759, -0.590326, 1.036536, 77.629379, 135.886826, -591.883545, , 
1759228138.849430, -6.308572, 11.722161, -2.338387, -0.694558, -0.805867, 0.596741, 77.573990, 136.537399, -590.732422, , 
1759228138.868961, -1.177199, 7.258471, 0.520888, -0.943531, -1.367113, 0.535343, 76.767914, 137.416672, -591.969727, , 
1759228138.888702, 0.555305, 5.122245, -1.558925, -1.058420, -1.205962, 0.619868, 76.057190, 138.208588, -591.410889, , 
1759228138.909366, -0.279373, 4.375553, -0.307206, -1.127915, -1.731694, 0.718155, 75.521759, 139.213379, -590.576416, , 
1759228138.929434, -1.233762, 5.938069, 0.987010, -1.523722, -2.340678, 0.822311, 74.626587, 140.354279, -589.887207, , 
1759228138.949438, -2.394651, 8.476671, 1.257255, -1.867864, -2.764313, 0.920489, 74.041458, 141.193436, -586.958557, , 
1759228138.969402, -2.371008, 11.998691, 0.010175, -1.778485, -3.018734, 1.163409, 73.322754, 142.705673, -586.827515, , 
1759228138.988732, -3.158700, 14.720899, -1.751359, -1.484585, -2.407982, 1.481715, 72.567947, 143.934982, -585.375793, , 
1759228139.009427, -1.844283, 13.920637, -0.887052, -1.263441, -1.720360, 1.566571, 71.919891, 145.022964, -584.101379, , 
1759228139.029451, 0.023493, 11.189152, -0.669778, -1.130382, -1.433903, 1.651629, 71.944305, 146.218796, -584.361084, , 
1759228139.048995, 1.573888, 10.285790, -0.360327, -0.984836, -1.185201, 1.828807, 71.867310, 147.311829, -582.901062, , 
1759228139.068959, 1.476923, 10.648062, 0.112827, -0.896753, -0.945545, 2.083316, 71.663605, 148.704071, -583.124512, , 
1759228139.088740, 1.568352, 11.305121, 0.806547, -0.838788, -0.917099, 2.165186, 71.751419, 150.047668, -582.678650, , 
1759228139.109417, 0.802955, 11.111191, 1.177648, -0.670238, -1.010444, 1.961171, 71.821091, 151.218964, -582.005737, , 
1759228139.129426, 0.778415, 10.906786, 1.568651, -0.428496, -0.137032, 1.553063, 72.336105, 152.342682, -582.189514, , 
1759228139.149434, -0.501735, 11.238532, 3.821894, -0.452472, 0.875035, 1.172823, 73.028366, 152.873367, -581.668091, , 
1759228139.169403, -2.215385, 11.011831, 3.184737, -0.426193, 0.184860, 0.982529, 73.460220, 153.864471, -582.386047, , 
1759228139.188752, -5.292981, 11.113884, -0.475249, -0.633686, -0.948686, 0.913101, 74.030869, 154.374374, -581.253418, , 
1759228139.209425, -6.378004, 10.028114, -0.012121, -1.287596, -1.074209, 0.946500, 73.909668, 155.064331, -580.249023, , 
1759228139.229436, -3.644723, 8.820987, 0.804003, -1.389593, -1.334139, 0.528854, 73.303970, 155.703003, -580.055542, , 
1759228139.249419, -0.338780, 9.238626, -1.022474, -1.089099, -0.426144, 0.352626, 73.608719, 156.342285, -579.139282, , 
1759228139.269406, 0.632817, 7.600543, -0.290746, -0.769680, 0.018533, 0.717077, 73.730988, 156.606659, -579.266602, , 
1759228139.288767, 0.233584, 7.306206, 0.116268, -0.719222, 0.117864, 0.723463, 73.654434, 157.155899, -578.680359, , 
1759228139.309406, 0.153079, 8.383147, 0.127641, -0.620184, -0.028313, 0.591502, 74.004990, 157.674500, -577.646851, , 
1759228139.329407, 0.445621, 9.516054, 0.230592, -0.521676, -0.038047, 0.606942, 74.076202, 158.512451, -577.914551, , 
1759228139.349403, 0.231040, 9.991602, 0.125696, -0.436587, 0.078398, 0.697189, 74.636536, 159.094528, -578.053772, , 
