SamplingTime, AccelerationX, AccelerationY, AccelerationZ, GyroX, GyroY, GyroZ, MagneticFieldX, MagneticFieldY, MagneticFieldZ, Latitude, Longitude
1759228110.827312, 0.828843, -2.867505, -8.549245, -0.310115, -0.563919, 0.566404, -36.652954, -94.628479, -207.480698, , 
1759228110.847310, 0.379930, -2.744054, -8.186823, -0.283481, -0.539763, 0.794158, -36.893600, -94.056747, -206.999313, 13.727692, 100.772455
1759228110.867328, 0.209942, -2.467225, -8.660576, -0.098891, -0.641118, 0.991685, -37.316956, -93.429611, -206.553040, 13.727692, 100.772455
1759228110.887316, 0.114323, -2.728043, -8.679729, 0.347986, -0.900194, 1.208754, -37.629578, -92.972778, -206.250153, 13.727692, 100.772455
1759228110.907292, 0.048183, -2.568679, -8.315362, 0.880800, -1.015296, 1.325880, -38.094650, -91.828735, -204.934845, 13.727693, 100.772455
1759228110.927334, 0.051924, -2.678663, -8.715343, 1.228713, -1.059688, 1.380164, -38.583069, -91.139664, -204.298004, 13.727693, 100.772455
1759228110.947318, -0.681599, -3.167678, -8.955661, 1.288399, -0.796633, 1.482250, -38.374939, -90.143692, -203.511490, 13.727693, 100.772455
1759228110.967353, -1.013047, -3.078644, -9.373449, 0.988157, -0.559760, 1.615990, -38.640625, -88.918564, -202.978790, 13.727693, 100.772455
1759228110.987351, -0.913089, -3.363554, -9.469367, 0.499579, -0.333883, 1.786676, -38.426514, -88.028305, -203.220993, 13.727693, 100.772455
1759228111.007063, -1.133654, -3.451541, -8.916905, 0.102058, 0.148585, 2.037833, -38.220428, -86.563461, -203.140808, 13.727693, 100.772455
1759228111.027404, -1.263390, -3.357269, -9.128492, -0.067991, 0.227763, 2.194405, -38.149246, -84.699783, -203.446793, 13.727693, 100.772455
1759228111.047381, -0.200065, -3.360262, -8.842535, 0.214801, -0.318877, 2.087367, -37.690323, -82.932465, -203.329849, 13.727693, 100.772455
1759228111.067408, -0.098611, -3.440617, -9.334693, 0.694457, -1.509025, 1.904601, -37.741699, -81.438538, -202.299988, 13.727693, 100.772455
1759228111.087385, -0.739958, -3.467702, -9.564536, 1.127123, -2.367058, 1.752225, -37.768814, -80.344666, -201.527740, 13.727693, 100.772455
1759228111.106928, -3.338415, -4.566491, -9.804705, 1.453819, -2.537814, -0.253412, -38.112839, -79.888428, -199.588821, 13.727693, 100.772455
1759228111.126825, -4.691588, -6.747309, -9.359084, 0.798414, -2.577907, -0.554436, -38.678192, -80.761063, -196.928635, 13.727693, 100.772455
1759228111.147312, -5.630863, -4.346673, -8.319103, 0.065168, -1.939941, -0.683319, -39.244293, -81.605499, -195.985275, 13.727693, 100.772455
1759228111.167348, -4.929512, -3.134459, -7.801207, -0.448017, -0.912681, -0.281121, -39.677017, -81.818771, -194.590958, 13.727693, 100.772455
1759228111.187320, -3.863194, -2.441637, -8.220940, -0.702623, -0.824122, 0.317223, -39.259567, -81.888382, -193.527603, 13.727693, 100.772455
1759228111.207427, -3.151667, -2.360384, -7.119757, -0.239397, -1.428093, 0.587487, -39.432785, -81.603073, -192.537796, 13.727693, 100.772455
1759228111.227080, -2.680608, -2.404826, -7.071574, 0.504825, -1.922453, 0.320661, -39.669037, -81.009094, -191.077606, 13.727693, 100.772455
1759228111.247032, -3.512593, -3.044227, -8.201787, 0.864480, -2.294956, -0.029335, -39.601105, -80.962723, -189.595810, 13.727693, 100.772455
1759228111.266906, -4.895394, -4.265869, -9.604490, 0.760069, -2.733546, -0.193773, -39.441086, -81.136322, -187.548676, 13.727693, 100.772455
1759228111.287314, -5.752818, -3.504064, -10.324845, 0.363524, -3.159916, -0.267697, -39.365601, -81.373444, -185.280624, 13.727693, 100.772455
1759228111.307250, -6.245425, -3.178303, -9.202713, -0.187414, -3.244673, -0.212804, -39.031403, -81.506012, -182.242615, 13.727693, 100.772455
1759228111.327382, -6.574178, -2.522441, -6.790106, -0.762411, -2.174937, -0.303168, -38.728821, -81.772461, -179.300323, 13.727693, 100.772455
1759228111.347037, -8.377312, -3.584718, -3.983802, -0.599137, -1.834953, -0.294819, -37.979416, -82.259476, -177.501999, 13.727693, 100.772455
1759228111.367396, -9.290400, -3.508703, -2.378340, 0.019515, -0.816164, -0.132167, -37.682922, -82.621735, -176.279037, 13.727683, 100.772468
1759228111.387327, -8.327183, -2.426523, -4.653729, 0.064087, -0.489889, 0.061610, -37.688232, -82.562180, -176.418808, 13.727683, 100.772468
1759228111.407351, -8.036587, -2.680758, -5.431396, -0.471695, -0.286880, 0.482564, -37.510910, -82.093063, -176.422577, 13.727683, 100.772468
1759228111.427197, -6.514473, -2.644994, -5.998074, -0.890657, -0.242114, 0.796301, -37.479721, -82.246460, -175.649109, 13.727683, 100.772468
1759228111.446766, -5.505018, -1.962647, -4.674230, -1.036688, 0.103365, 0.809492, -37.102707, -81.900070, -175.249954, 13.727683, 100.772468
1759228111.467320, -4.863970, -2.479196, -3.987543, -1.168936, 0.754284, 0.752981, -37.014938, -81.136459, -175.652847, 13.727683, 100.772468
1759228111.487316, -3.590255, -1.802235, -3.768922, -1.051611, 1.449231, 0.583260, -37.186859, -80.710571, -176.017365, 13.727683, 100.772468
1759228111.507379, -2.886060, -0.975787, -3.796755, -0.778890, 2.153010, 0.328814, -37.493439, -80.484650, -177.572632, 13.727683, 100.772468
1759228111.527318, -3.076399, -0.913837, -4.464737, -0.637557, 2.733387, 0.114797, -38.545761, -80.774994, -179.549973, 13.727683, 100.772468
1759228111.547309, -3.457227, -0.903213, -6.251859, -0.844673, 2.903203, -0.038632, -39.020859, -80.810089, -181.810165, 13.727683, 100.772468
1759228111.567366, -4.274697, -0.725892, -7.466318, -1.157039, 2.908092, -0.062235, -39.494446, -80.863495, -184.539612, 13.727683, 100.772468
1759228111.587322, -4.732888, -0.895880, -7.738509, -1.406129, 3.067289, 0.049718, -39.820419, -81.058823, -187.186066, 13.727683, 100.772468
1759228111.607354, -4.237737, -0.791284, -8.789264, -1.693690, 2.973023, -0.024686, -39.986343, -81.131531, -189.353760, 13.727683, 100.772468
1759228111.627320, -4.659865, -0.595408, -9.591321, -1.946514, 2.614548, -0.087018, -39.646378, -81.047424, -192.061203, 13.727683, 100.772468
1759228111.647299, -5.509956, -0.723049, -9.742156, -2.025444, 1.859498, 0.040491, -40.061508, -80.953613, -193.405655, 13.727683, 100.772468
1759228111.667325, -6.344335, -0.872986, -9.942521, -2.343160, 0.969602, 0.368795, -39.962082, -80.262589, -193.435440, 13.727683, 100.772468
1759228111.687314, -6.330718, -0.025588, -10.835409, -2.407770, 0.388724, 0.673925, -39.851410, -79.860779, -193.368668, 13.727683, 100.772468
1759228111.707358, -6.010045, -0.148740, -10.874165, -2.435925, -0.016373, 1.006759, -39.605362, -79.065491, -193.458588, 13.727683, 100.772468
1759228111.727320, -5.880608, -0.642993, -10.440964, -2.458137, -0.289252, 1.314754, -39.535736, -77.447037, -192.549805, 13.727683, 100.772468
1759228111.747320, -5.760898, -0.425120, -10.743082, -2.489426, -0.809326, 1.452240, -39.213501, -75.772293, -191.485641, 13.727683, 100.772468
1759228111.767466, -7.028628, -0.246752, -10.986842, -2.591849, -1.672929, 1.709884, -38.474930, -74.577301, -189.689743, 13.727683, 100.772468
1759228111.787320, -7.452551, 0.715866, -10.654796, -2.504110, -2.250679, 2.108139, -38.189484, -73.226364, -186.280518, 13.727683, 100.772468
1759228111.807449, -7.216124, 1.848024, -9.293243, -2.167758, -2.622155, 2.180279, -36.841370, -71.039215, -183.060043, 13.727683, 100.772468
1759228111.827321, -7.126341, 2.876484, -8.423250, -1.801202, -2.784311, 1.971286, -35.934402, -69.910110, -179.857925, 13.727683, 100.772468
1759228111.847297, -7.475895, 3.224391, -8.251317, -1.748032, -2.400732, 1.635641, -34.554550, -68.604507, -177.514801, 13.727683, 100.772468
1759228111.867401, -6.521356, 2.772336, -8.339902, -1.653901, -1.482442, 0.820242, -33.539383, -68.166946, -175.019775, 13.727683, 100.772468
1759228111.887011, -4.906018, 1.574337, -7.254880, -0.839070, 0.113612, -0.203762, -33.382080, -68.573334, -173.421555, 13.727683, 100.772468
1759228111.907361, -3.720889, -0.526724, -9.524882, 0.300156, 0.958831, -0.640680, -33.954147, -68.757431, -174.162552, 13.727683, 100.772468
1759228111.927385, -4.435408, -2.274791, -11.349863, 1.365573, 1.170499, -0.216229, -34.567657, -69.023163, -176.458679, 13.727683, 100.772468
1759228111.947326, -5.894824, -2.397943, -11.490672, 2.098323, 1.541379, 0.480414, -34.437576, -68.168900, -178.303040, 13.727683, 100.772468
1759228111.967350, -7.041048, -1.777395, -13.567941, 2.499649, 1.568272, 1.113173, -34.568771, -67.254684, -180.596451, 13.727683, 100.772468
1759228111.987314, -7.393594, -1.903989, -15.144074, 2.667599, 1.225518, 1.552657, -34.009613, -66.109055, -183.430038, 13.727683, 100.772468
1759228112.007367, -7.524527, -3.172317, -14.005930, 2.745269, 0.691856, 1.889448, -32.736115, -64.402908, -185.753235, 13.727683, 100.772468
1759228112.027324, -6.926425, -3.883694, -13.037775, 2.685105, -0.074671, 1.927511, -32.086365, -63.079208, -187.362015, 13.727683, 100.772468
1759228112.047303, -6.310517, -2.808997, -11.983279, 2.677798, -0.348320, 1.918805, -30.529877, -62.122238, -188.771545, 13.727683, 100.772468
1759228112.067369, -6.299593, -1.011101, -10.283246, 2.940428, 0.024516, 2.165650, -28.929962, -60.397583, -190.536697, 13.727683, 100.772468
1759228112.087298, -4.938490, -0.167744, -10.207529, 2.926623, -0.185247, 2.223768, -27.613159, -59.574539, -192.393448, 13.727683, 100.772468
1759228112.107370, -3.942652, 0.881515, -10.045172, 2.379403, -0.483810, 1.815600, -26.213089, -58.901367, -193.757065, 13.727683, 100.772468
1759228112.127363, -3.529801, 2.606537, -8.706065, 1.774803, 0.001991, 1.360606, -25.049088, -58.295624, -194.865967, 13.727683, 100.772468
1759228112.147318, -3.372832, 3.457526, -7.744943, 1.388550, 0.540211, 1.118893, -24.137985, -58.053024, -195.936218, 13.727683, 100.772468
1759228112.167331, -2.552219, 4.354155, -8.179191, 1.176920, 0.334610, 0.701364, -23.244980, -57.853638, -197.298019, 13.727683, 100.772468
1759228112.187300, -2.640056, 4.449773, -7.203554, 0.858501, 0.262947, 0.169686, -22.726379, -58.317062, -198.510788, 13.727683, 100.772468
1759228112.207400, -2.646491, 4.085107, -7.000496, 0.531804, 0.495925, -0.167010, -22.740677, -58.794525, -198.782684, 13.727683, 100.772468
1759228112.227328, -2.714725, 2.997092, -6.939594, 0.359579, 0.450558, -0.465195, -22.900620, -59.368622, -199.281204, 13.727683, 100.772468
1759228112.247313, -2.888455, 2.545934, -6.524050, 0.456724, 0.298369, -0.614891, -23.052094, -59.774628, -199.954193, 13.727683, 100.772468
1759228112.267327, -2.656067, 2.652626, -6.363189, 0.695076, 0.258300, -0.678922, -23.320984, -60.329361, -200.731537, 13.727683, 100.772468
1759228112.287305, -2.450465, 2.643797, -6.558018, 0.747857, 0.568502, -0.712171, -23.642197, -60.928528, -201.691208, 13.727683, 100.772468
1759228112.307395, -2.258480, 2.643199, -7.690026, 0.575642, 0.682604, -0.937197, -24.061478, -61.581253, -202.200470, 13.727683, 100.772468
1759228112.327323, -2.443732, 2.618209, -8.038831, 0.279301, 0.784601, -1.060994, -24.514297, -62.341507, -202.959778, 13.727683, 100.772468
1759228112.347018, -2.835034, 2.032528, -8.482507, -0.083646, 0.796690, -0.905478, -24.624802, -62.968674, -203.726013, 13.727683, 100.772468
1759228112.367366, -2.633173, 1.806874, -9.011775, -0.366745, 0.397824, -0.831563, -24.647629, -63.187012, -203.883774, 13.727683, 100.772468
1759228112.387344, -2.616414, 1.833809, -8.442105, -0.520794, 0.051470, -0.830779, -25.483734, -63.641083, -202.965836, 13.727683, 100.772468
1759228112.407371, -2.430264, 1.840991, -7.786692, -0.577628, -0.031735, -0.571155, -25.908203, -64.062881, -203.209122, 13.727683, 100.772468
1759228112.427371, -2.494608, 2.126650, -8.175600, -0.768315, 0.262756, -0.179905, -25.877228, -64.211044, -202.765991, 13.727683, 100.772468
1759228112.446332, -1.862539, 1.906832, -9.233089, -1.181532, 0.072301, -0.061197, -26.038300, -63.499664, -202.488861, 13.727683, 100.772468
1759228112.467398, -1.883788, 2.469918, -9.011625, -1.449537, -0.507473, -0.363651, -26.526764, -63.634872, -201.388275, 13.727683, 100.772468
1759228112.486474, -1.875707, 4.025700, -8.888773, -1.614315, -1.409635, -0.748379, -26.940430, -63.335968, -199.801483, 13.727683, 100.772468
1759228112.507450, -2.532766, 5.800851, -9.381829, -2.200698, -2.186883, -1.047404, -27.638229, -63.457520, -197.302765, 13.727683, 100.772468
1759228112.526434, -2.525135, 7.334936, -10.221894, -3.321386, -2.976391, -1.436589, -29.349426, -64.096085, -193.615738, 13.727683, 100.772468
1759228112.546612, -3.181445, 8.202535, -8.596531, -4.632607, -2.914536, -1.693541, -30.103897, -64.932800, -189.414658, 13.727683, 100.772468
1759228112.566763, -3.555988, 8.280047, -6.533926, -5.540564, -2.423501, -1.487048, -30.726654, -65.846222, -184.334915, 13.727683, 100.772468
1759228112.587332, -3.741239, 8.742278, -4.664653, -6.159793, -1.884769, -1.084725, -31.297791, -67.198532, -180.165298, 13.727683, 100.772468
1759228112.607434, -3.749320, 9.254787, -3.354875, -6.550180, -1.088850, -0.807201, -31.761520, -69.110535, -175.816803, 13.727683, 100.772468
1759228112.627338, -4.318541, 8.649203, -2.620454, -6.473152, 0.246548, -1.014285, -32.301743, -71.800278, -172.501297, 13.727683, 100.772468
1759228112.647294, -3.617788, 7.568670, -4.235043, -6.198667, 0.895363, -1.800620, -33.303925, -75.051102, -170.771683, 13.727683, 100.772468
1759228112.667181, -5.487510, 6.287922, -5.922956, -5.653486, 0.817034, -2.328025, -34.294632, -78.962906, -169.883759, 13.727683, 100.772468
1759228112.687058, -8.369231, 4.267964, -7.401525, -4.802835, 0.532275, -2.429582, -35.203705, -82.237579, -168.844223, 13.727683, 100.772468
1759228112.707395, -10.185981, 2.753482, -9.526828, -3.589003, -0.485445, -2.227741, -35.865280, -86.104446, -167.858459, 13.727683, 100.772468
1759228112.727324, -11.802516, 0.533159, -9.741707, -2.352879, -1.268654, -1.804125, -35.841614, -88.406006, -165.994064, 13.727683, 100.772468
1759228112.747315, -12.760945, -1.225831, -10.276512, -1.136839, -1.620986, -1.269429, -35.385696, -90.236771, -165.306274, 13.727683, 100.772468
1759228112.767370, -12.847585, -2.748244, -13.488633, 0.757812, -2.958835, -0.286525, -33.627457, -90.344803, -162.715530, 13.727683, 100.772468
1759228112.787397, -11.241226, -1.290325, -13.008446, 2.913605, -4.130194, 1.950200, -31.515366, -88.283752, -159.304123, 13.727683, 100.772468
1759228112.807408, -7.427711, 3.301754, -7.944111, 2.572815, -1.962040, 1.925789, -29.564270, -85.322937, -158.654495, 13.727683, 100.772468
1759228112.827309, -4.448576, 4.359542, -9.612271, 1.757007, -1.610967, 1.161831, -28.186890, -82.712128, -157.273087, 13.727683, 100.772468
1759228112.847318, -5.203797, 3.867234, -8.860342, 0.893244, -1.625981, 0.138878, -26.956299, -82.490494, -156.600479, 13.727683, 100.772468
1759228112.867319, -9.460089, 2.336591, -6.791003, 0.948997, -1.764568, -0.532467, -26.206924, -82.336548, -156.411636, 13.727683, 100.772468
1759228112.887330, -11.882423, 2.813187, -4.739472, 1.174273, -2.736387, -0.905170, -24.305450, -82.000778, -154.863708, 13.727683, 100.772468
1759228112.907379, -11.693131, 4.305223, -2.788646, 1.244099, -3.734796, -0.755718, -21.659546, -81.362442, -152.903595, 13.727683, 100.772468
1759228112.927326, -10.807726, 3.996222, 0.330400, 0.696004, -3.099583, -0.428618, -19.352737, -81.290329, -151.208344, 13.727683, 100.772468
1759228112.946420, -7.626131, 4.236540, 1.871966, -0.024329, -1.700492, 0.034418, -17.649292, -80.732117, -150.548355, 13.727683, 100.772468
1759228112.967378, -3.450643, 5.232228, 2.558504, -0.601309, -0.110618, -0.095555, -17.623459, -81.639038, -150.499664, 13.727683, 100.772468
1759228112.987330, -0.993743, 5.389348, 0.430208, -0.376696, 0.135464, -0.480022, -17.761108, -81.741989, -149.956085, 13.727683, 100.772468
1759228113.007430, -2.227356, 7.069629, 0.400281, 0.709400, 0.235414, -0.760845, -18.321594, -81.803116, -151.006607, 13.727683, 100.772468
1759228113.027314, -4.104111, 7.967155, -1.451784, 1.275988, 0.444920, -1.464133, -19.198792, -81.849930, -151.252609, 13.727683, 100.772468
1759228113.046379, -7.581688, 5.537788, -2.724003, 0.831943, 1.285181, -0.901600, -19.910782, -81.356339, -152.244461, 13.727683, 100.772468
1759228113.067120, -9.288904, 3.640833, -3.197157, 0.645286, 1.070223, -0.054340, -20.909225, -80.688400, -152.806183, 13.727683, 100.772468
1759228113.087092, -10.263943, 3.336769, -1.158943, 0.794408, 0.381028, 0.618607, -21.065109, -80.083176, -152.993042, 13.727683, 100.772468
1759228113.107360, -9.953444, 3.797204, 1.086668, 1.185414, -0.030073, 1.045840, -21.088211, -78.638275, -153.478836, 13.727683, 100.772468
1759228113.127015, -9.280823, 3.773262, 0.487519, 1.694864, -0.481576, 1.269468, -20.204010, -76.557983, -153.437057, 13.727683, 100.772468
1759228113.146870, -8.911817, 3.738097, -0.124648, 2.047631, -0.231183, 1.307789, -19.190445, -75.198929, -153.981720, 13.727683, 100.772468
1759228113.167322, -7.317129, 3.581127, -1.477073, 2.181114, 0.651727, 1.345043, -19.554596, -72.520599, -155.710831, 13.727683, 100.772468
1759228113.187334, -6.667702, 4.835090, -2.356044, 2.070910, 1.680552, 1.173398, -20.134140, -70.802216, -156.758240, 13.727683, 100.772468
1759228113.207178, -6.787562, 4.843171, -2.704849, 2.171588, 3.268037, 1.036765, -21.512009, -68.763275, -159.404556, 13.727683, 100.772468
1759228113.227005, -6.564901, 4.142567, -7.435044, 2.106040, 3.166483, 1.171005, -23.387863, -66.890457, -161.788696, 13.727683, 100.772468
1759228113.247320, -5.598691, 8.066215, -19.125481, 1.325921, -0.021165, 0.805962, -22.492233, -65.575073, -163.286026, 13.727683, 100.772468
1759228113.267382, -9.942970, 10.782138, -6.172102, 0.060691, 0.825856, 0.001002, -22.709885, -65.662827, -163.720932, 13.727683, 100.772468
1759228113.287331, -7.485172, 7.352893, -5.363012, 0.064614, 0.973893, -0.385720, -23.538620, -65.777603, -164.322174, 13.727683, 100.772468
1759228113.306881, -5.696105, 5.850980, -4.900632, 0.688052, 0.755622, -0.707444, -24.445755, -65.823303, -165.422470, 13.727683, 100.772468
1759228113.327333, -4.267066, 5.376778, -5.111471, 1.135293, 0.653978, -1.473613, -25.528320, -66.393295, -166.142502, 13.727683, 100.772468
1759228113.347318, -6.644059, 4.221726, -4.939837, 1.028534, 1.095133, -1.767666, -26.907318, -67.141113, -167.908112, 13.727683, 100.772468
1759228113.367301, -7.233482, 3.650858, -4.661660, 0.680741, 1.140298, -1.227863, -27.890366, -67.573380, -168.916168, 13.727683, 100.772468
1759228113.387409, -6.928221, 3.781492, -5.103390, 0.038124, -0.088766, -0.537541, -28.177444, -67.528091, -168.803101, 13.727683, 100.772468
1759228113.407368, -5.844845, 4.482694, -4.130896, -0.848789, -0.075549, 0.110769, -28.053772, -68.036224, -168.633728, 13.727683, 100.772468
1759228113.427043, -4.463989, 4.565144, -5.501576, -1.940449, -0.584646, 0.397192, -28.251724, -68.034454, -166.385574, 13.727683, 100.772468
1759228113.446400, -5.554548, 3.893271, -5.553051, -3.071997, -0.720325, 1.083166, -27.142929, -69.192337, -165.829956, 13.727683, 100.772468
1759228113.467403, -6.153098, 3.497779, -5.411045, -3.810000, -0.921647, 2.028974, -25.543976, -69.604477, -163.438583, 13.727683, 100.772468
1759228113.487332, -6.261735, 3.265541, -6.295404, -3.800068, -2.148925, 2.710885, -23.767410, -69.886856, -160.164963, 13.727683, 100.772468
1759228113.507156, -6.908319, 5.182249, -3.977816, -0.950133, -2.437832, 3.226172, -20.840668, -69.545395, -158.819778, 13.727683, 100.772468
1759228113.526933, -2.386271, 7.359177, -0.895880, 0.870987, -1.904395, 2.987223, -18.539001, -67.044739, -157.607620, 13.727683, 100.772468
1759228113.547321, -0.719458, 9.342624, -3.525163, 0.532713, -1.939424, 2.073960, -15.992981, -65.834595, -157.507507, 13.727683, 100.772468
1759228113.567370, -4.033482, 10.244789, -5.473145, -0.024595, -2.288249, 1.065353, -13.887802, -65.280746, -156.455887, 13.727683, 100.772468
1759228113.587336, -8.047810, 7.587973, -4.866514, 0.241050, -2.349811, 0.990833, -11.992661, -64.972504, -155.729095, 13.727683, 100.772468
1759228113.607389, -8.545953, 6.611738, -5.312733, 0.706534, -2.383072, 1.204227, -9.771774, -63.926208, -156.133118, 13.727683, 100.772468
1759228113.627334, -7.820211, 5.725733, -4.047996, 0.753085, -1.922195, 1.406582, -7.433487, -63.270981, -155.253265, 13.727683, 100.772468
1759228113.646637, -8.208221, 6.055385, -3.085827, 0.334229, -1.065237, 1.537284, -5.770599, -62.407318, -156.033218, 13.727683, 100.772468
1759228113.666669, -6.150405, 5.767482, -2.638859, -0.223227, -0.120993, 1.401841, -5.081802, -62.098083, -156.330978, 13.727683, 100.772468
1759228113.687331, -3.581277, 5.441123, -1.611298, -0.738804, 0.942019, 1.198316, -4.756424, -62.175827, -155.699265, 13.727683, 100.772468
1759228113.706507, -3.768174, 5.317672, -1.224036, -1.182102, 1.349943, 1.248700, -4.949966, -62.500717, -155.664444, 13.727683, 100.772468
1759228113.727325, -4.947618, 6.390872, -1.561169, -1.575753, 0.856982, 1.704890, -4.430145, -63.080185, -154.465134, 13.727683, 100.772468
1759228113.746742, -3.412186, 8.156297, -0.516399, -1.448747, 0.224100, 1.890648, -3.779800, -63.960190, -154.305588, 13.727683, 100.772468
1759228113.767388, -4.138826, 6.500706, 0.284012, -0.801008, -1.184362, 2.548896, -1.336151, -63.847977, -154.005585, 13.727683, 100.772468
1759228113.787332, -5.066131, 3.486855, -0.138564, -0.374490, -2.458956, 3.743693, 2.533203, -63.499786, -153.807526, 13.727683, 100.772468
1759228113.807436, -2.105850, 2.415001, 1.865233, 0.106266, -1.900617, 4.121061, 6.069824, -63.324936, -153.349838, 13.727683, 100.772468
1759228113.827343, -2.451812, 2.714576, 1.235857, 0.353724, -1.175826, 4.427341, 9.598602, -62.873260, -153.362991, 13.727683, 100.772468
1759228113.847299, -1.093851, 2.882469, 1.266982, 0.027029, 0.098078, 4.463388, 12.291779, -63.252090, -154.478622, 13.727683, 100.772468
1759228113.867332, 0.494552, 2.295441, 1.908628, -0.473102, 1.320121, 4.242053, 14.039398, -64.306870, -153.930984, 13.727683, 100.772468
1759228113.887334, 0.599149, 1.254711, 1.834407, -0.912005, 2.324459, 4.045911, 14.587097, -64.722870, -152.665619, 13.727683, 100.772468
1759228113.907407, -0.946159, 5.987449, 1.692102, -1.279603, 3.824840, 3.845148, 14.059464, -66.505707, -151.652405, 13.727683, 100.772468
1759228113.927400, -1.387889, 34.153436, 7.836521, -1.275816, 7.159960, 4.719669, 11.114151, -67.422409, -149.664642, 13.727683, 100.772468
1759228113.947327, 14.015956, 43.720965, 12.103138, -0.680604, 7.520501, 1.659990, 6.411713, -67.940735, -148.942230, 13.727683, 100.772468
1759228113.966519, 13.268815, 21.591509, 1.957409, -0.706644, 3.464342, -1.288271, 2.884674, -69.018204, -148.774063, 13.727683, 100.772468
1759228113.986856, 7.681646, 8.011448, -1.210867, -0.955002, -0.073300, -2.737813, 1.242554, -69.806412, -147.484436, 13.727683, 100.772468
1759228114.007379, 5.577293, 1.361852, -13.366080, -1.709170, -2.390164, -2.275085, 1.645981, -71.033020, -147.648849, 13.727683, 100.772468
1759228114.027328, 7.806295, 2.797026, -9.962423, -1.024169, -3.103148, -0.787312, 3.798904, -71.661942, -147.332138, 13.727683, 100.772468
1759228114.046723, 5.122843, 9.092879, -0.288501, -0.648240, -3.841680, -0.464603, 7.253464, -72.364349, -147.013367, 13.727683, 100.772468
1759228114.066784, 4.970961, 11.147553, 3.282301, -0.471230, -4.470696, -1.038560, 10.835373, -72.849091, -147.589401, 13.727683, 100.772468
1759228114.087336, 2.970606, 8.063970, 4.990564, -0.710556, -2.822635, -1.101316, 12.348648, -72.873352, -147.400192, 13.727683, 100.772468
1759228114.107390, 1.467945, 7.587375, 5.750274, -0.603911, -0.025227, -0.665682, 12.755081, -73.272476, -147.227081, 13.727683, 100.772468
1759228114.127330, 1.061978, 8.381053, 4.822521, -0.487785, 1.688055, -0.155010, 11.313675, -73.616791, -146.506851, 13.727683, 100.772468
1759228114.147320, 0.931045, 8.477120, 2.509423, -0.625970, 1.973519, 0.003416, 9.606598, -73.816193, -146.712234, 13.727683, 100.772468
1759228114.166522, 0.884209, 8.504952, 0.885406, -0.772365, 1.314540, -0.092069, 8.628021, -74.312592, -146.601349, 13.727683, 100.772468
1759228114.187334, 0.112827, 9.183110, -1.340154, -0.056003, 0.162892, -0.266776, 8.105286, -74.346680, -146.017639, 13.727683, 100.772468
1759228114.207439, -0.070779, 9.695170, -2.604891, -0.014878, -1.097703, -0.046495, 9.379135, -74.188629, -146.767410, 13.727683, 100.772468
1759228114.226950, 0.950049, 10.180145, -1.161188, -0.648161, -1.764149, 0.157014, 10.718109, -74.394073, -146.317505, 13.727683, 100.772468
1759228114.247298, 2.252046, 13.027151, 1.057938, -0.965658, -1.625793, 0.098029, 12.025162, -75.080505, -146.803284, 13.727683, 100.772468
1759228114.267156, 3.664326, 17.971626, 3.190274, -0.736566, -0.625177, -0.199775, 12.353821, -75.621964, -147.331177, 13.727683, 100.772468
1759228114.286646, 4.511274, 21.220707, 3.475333, -0.390014, 0.468309, -0.785245, 11.935028, -75.616852, -146.611053, 13.727683, 100.772468
1759228114.307430, 3.185336, 17.822886, 2.360234, -0.016442, 1.346306, -1.102539, 10.644089, -75.962692, -146.811447, 13.727683, 100.772468
1759228114.326347, 1.243339, 10.145280, -0.126294, 1.075845, 1.605467, -0.189675, 8.679962, -74.854355, -146.752762, 13.727683, 100.772468
1759228114.347013, -0.190489, 7.339425, -2.852093, 2.016504, -0.038010, 0.794370, 8.946335, -73.261063, -148.312744, 13.727683, 100.772468
1759228114.367369, 0.514155, 9.543886, -2.115576, 2.499825, -2.277429, 1.984330, 11.422958, -71.609558, -149.341003, 13.727683, 100.772468
1759228114.387343, 4.302231, 13.522002, 2.448670, 3.774074, -2.859265, 2.281352, 14.674561, -69.085938, -151.905518, 13.727683, 100.772468
1759228114.407438, 8.238598, 16.641497, 4.677223, 5.044358, -1.491778, 1.512558, 16.490768, -66.374008, -155.157440, 13.727683, 100.772468
1759228114.426359, 8.378958, 16.065093, 1.672649, 4.330980, -0.066359, 1.368009, 17.330811, -63.647079, -157.047745, 13.727683, 100.772468
1759228114.447309, 6.189909, 12.383709, 0.752528, 3.072729, 0.181333, 1.380380, 17.838730, -62.380859, -159.924988, 13.727683, 100.772468
1759228114.466531, 3.643975, 10.443508, -1.698836, 2.918935, -1.486107, 1.343544, 19.350616, -61.435272, -162.071091, 13.727683, 100.772468
1759228114.487338, 2.942623, 10.314670, -3.099144, 3.711608, -3.923618, 1.504798, 21.817520, -60.602310, -165.092422, 13.727683, 100.772468
1759228114.507346, 4.711490, 10.566510, -1.965640, 4.024322, -3.966146, 1.420688, 24.058395, -59.666641, -169.483185, 13.727683, 100.772468
1759228114.526374, 5.904999, 10.770466, -2.500444, 3.609568, -2.419399, 1.134805, 25.448532, -59.351929, -172.711105, 13.727683, 100.772468
1759228114.547214, 5.556792, 9.664943, -3.331681, 3.269104, -2.315414, 0.846388, 26.318695, -58.712311, -176.191513, 13.727683, 100.772468
1759228114.567386, 4.932205, 9.363723, -1.970727, 3.089962, -2.944108, 0.399995, 27.328842, -58.560394, -179.274811, 13.727683, 100.772468
1759228114.587329, 3.166781, 10.027964, 3.384054, 3.050934, -1.471975, -0.256027, 26.956604, -58.299850, -181.830124, 13.727683, 100.772468
1759228114.607392, 0.698808, 8.533533, 5.161899, 4.225164, -0.277506, -0.594986, 26.783127, -57.681442, -184.637207, 13.727683, 100.772468
1759228114.626678, -0.975637, 5.583727, 1.881843, 5.637422, -0.222355, -0.327188, 25.886490, -57.479492, -188.107849, 13.727683, 100.772468
1759228114.647299, -0.364966, 4.159327, -4.386477, 4.286856, 0.056549, 0.133072, 25.698441, -57.974030, -191.826340, 13.727683, 100.772468
1759228114.667375, 0.446369, 4.072088, -4.236989, 3.571763, 0.078839, 0.166805, 25.843491, -58.536774, -194.123764, 13.727683, 100.772468
1759228114.687394, 1.309628, 2.463334, -1.079486, 3.090150, 0.522955, 0.361655, 25.869537, -58.794327, -195.687592, 13.727683, 100.772468
1759228114.707374, 2.309507, 1.656339, -0.694169, 2.723596, 0.458392, 0.367883, 26.115417, -59.518616, -197.491165, 13.727683, 100.772468
1759228114.726682, 3.966893, 0.929698, -2.343624, 2.275110, 0.652706, 0.247677, 25.774719, -59.926712, -198.321533, 13.727683, 100.772468
1759228114.747352, 3.651457, -1.671602, -7.228244, 0.262163, 0.712497, -0.083920, 26.280411, -60.069061, -199.441483, 13.727683, 100.772468
1759228114.767385, 2.360384, -3.542670, -8.964041, -0.991355, 0.469827, -0.136602, 26.260895, -60.407318, -199.085342, 13.727683, 100.772468
1759228114.787327, 1.319355, -1.600075, -9.631424, -1.779030, 0.420432, -0.243639, 26.088318, -60.253281, -197.705750, 13.727683, 100.772468
1759228114.807339, 0.459687, 1.378761, -9.617807, -2.284387, 0.307560, -0.363250, 25.857819, -59.784027, -196.490433, 13.727683, 100.772468
1759228114.826324, -0.046687, 2.201468, -8.409334, -2.449913, 0.199354, -0.418172, 25.411957, -59.075745, -194.562286, 13.727683, 100.772468
1759228114.847319, 0.484826, 2.636315, -5.787683, -2.751752, -0.041122, -0.604487, 25.173035, -59.244949, -193.730209, 13.727683, 100.772468
1759228114.867333, 1.564012, 2.122011, -8.267178, -2.914318, -0.005702, -0.517658, 24.977829, -58.605194, -191.895096, 13.727683, 100.772468
1759228114.886633, 2.282422, 1.732504, -9.060707, -2.925401, -0.031455, -0.225420, 24.365601, -58.819595, -189.694016, 13.727683, 100.772468
1759228114.907333, 10.257358, 6.361543, -17.196503, -2.119451, 0.377696, 0.723533, 24.543060, -59.265991, -188.812790, 13.727683, 100.772468
1759228114.926369, 12.208034, 10.452486, -19.468301, -2.481478, 0.580806, 0.727917, 25.076111, -59.466522, -186.483398, 13.727683, 100.772468
1759228114.947304, 8.089558, 11.710190, -6.195745, -3.514300, -0.001281, 0.315491, 25.636017, -59.896774, -184.722809, 13.727683, 100.772468
1759228114.966736, 5.050119, 7.879018, -2.384774, -3.741200, -0.044770, 0.168205, 26.047974, -60.146515, -182.371521, 13.727683, 100.772468
1759228114.987337, -0.045041, 2.793884, -1.890372, -4.645498, -1.764608, -0.266897, 26.069214, -61.317169, -179.263550, 13.727683, 100.772468
1759228115.007334, 3.094955, 1.935113, -0.983867, -4.745718, -3.203424, -0.441660, 26.900879, -61.707169, -178.148438, 13.727683, 100.772468
1759228115.027331, 3.983203, 2.293944, -0.545130, -4.960913, -3.822032, -0.211334, 27.314346, -62.506516, -176.828934, 13.727683, 100.772468
1759228115.047335, 4.671087, 6.239589, -3.520075, -5.499194, -3.619356, 0.699203, 28.065186, -64.229691, -175.967529, 13.727683, 100.772468
1759228115.067310, 7.483077, 11.421240, -4.023157, -4.816866, -3.598990, 1.283399, 29.811417, -66.115372, -174.463242, 13.727683, 100.772468
1759228115.087338, 9.339032, 13.251308, 5.608118, -3.039656, -1.504933, 0.764751, 30.523239, -67.590469, -174.070435, 13.727683, 100.772468
1759228115.107312, 4.753837, 14.136863, 4.979491, -1.810910, -0.182899, 0.691764, 31.342773, -68.747192, -173.707108, 13.727683, 100.772468
1759228115.127337, -0.942268, 20.923527, 4.976498, 0.991341, 3.658049, -1.737537, 30.925720, -68.941544, -172.484360, 13.727683, 100.772468
1759228115.147376, -4.804265, 16.323966, -6.512677, 0.044901, 2.956549, -0.720972, 29.510117, -67.840683, -171.389130, 13.727683, 100.772468
1759228115.167320, -1.881693, 9.573814, -2.591574, -1.023532, 2.360769, 0.221430, 28.543732, -68.432755, -169.996750, 13.727683, 100.772468
1759228115.187335, -0.025289, 7.878420, -1.678036, -1.365393, 1.777707, -0.261955, 27.558533, -69.033035, -168.223541, 13.727683, 100.772468
1759228115.207322, 0.542736, 7.246201, -2.179621, -1.326101, 1.063519, -0.822307, 26.629410, -69.423218, -167.184814, 13.727683, 100.772468
1759228115.227338, -0.002245, 8.281394, -2.025345, -1.328030, 0.742012, -1.086265, 25.532501, -69.372070, -165.767334, 13.727683, 100.772468
1759228115.247320, -0.606631, 8.091055, -1.536180, -1.317281, 0.787700, -0.913984, 24.917084, -69.507416, -165.167740, 13.727683, 100.772468
1759228115.266796, -0.920720, 7.820211, -0.839467, -1.258046, 0.904403, -0.742999, 24.156189, -69.982285, -164.552673, 13.727683, 100.772468
1759228115.287338, -0.549769, 8.006510, -0.987608, -1.524584, 0.127679, -0.585809, 23.377106, -70.693512, -163.788162, 13.727683, 100.772468
1759228115.306682, 0.749235, 8.166622, -1.118092, -1.571636, -1.081803, -0.578189, 23.345306, -71.393616, -163.808746, 13.727683, 100.772468
1759228115.327332, 2.964171, 7.713669, -0.203507, -1.002682, -0.966840, -0.456178, 23.913208, -71.812164, -162.550262, 13.727683, 100.772468
1759228115.347320, 4.174740, 7.694066, 1.166126, -0.544194, 0.036098, -0.098883, 23.714142, -72.030472, -163.534073, 13.727683, 100.772468
1759228115.367328, 4.317643, 7.623437, 1.628057, -0.463422, 0.693767, -0.130070, 23.682693, -72.163269, -163.063110, 13.727683, 100.772468
1759228115.387336, 1.281496, 8.464850, 1.827374, -0.308456, 1.262100, 0.105063, 23.396652, -71.992447, -162.533112, 13.727683, 100.772468
1759228115.407339, 0.029778, 8.950723, 1.066916, -0.152298, 1.206486, 0.206945, 22.816254, -72.263962, -161.999130, 13.727683, 100.772468
1759228115.426906, -0.057910, 9.954342, 0.399233, -0.052541, 1.172575, 0.224519, 21.912582, -72.543976, -161.330658, 13.727683, 100.772468
1759228115.446360, 0.487070, 10.708366, -1.331475, -0.296022, 1.573553, 0.265293, 21.518890, -72.857544, -161.472549, 13.727683, 100.772468
1759228115.466399, 0.406266, 10.338462, -2.240225, -0.776472, 1.862451, 0.449723, 20.362091, -73.479248, -160.838776, 13.727683, 100.772468
1759228115.487337, 0.169988, 10.562619, -2.872892, -1.169236, 1.657142, 0.539434, 19.358276, -73.906525, -159.834579, 13.727683, 100.772468
1759228115.506540, 0.902464, 12.138004, -1.051204, -1.214780, 1.203319, 0.499477, 18.487198, -74.793488, -159.201645, 13.727683, 100.772468
1759228115.527323, 2.029684, 14.814721, 0.985663, -0.861968, 0.365000, 0.509803, 18.314255, -75.347260, -158.880692, 13.727683, 100.772468
1759228115.547323, 3.945345, 18.746150, 2.270601, -0.076216, 0.333214, 0.421263, 17.800293, -75.916168, -158.409485, 13.727683, 100.772468
1759228115.567339, 5.107431, 19.643676, 0.119560, 0.587139, 1.829239, 0.402950, 17.646500, -76.271729, -158.524338, 13.727683, 100.772468
1759228115.587337, 3.413832, 15.499912, -1.022474, 1.376530, 2.282875, 0.381043, 15.724060, -76.059525, -158.587341, 13.727683, 100.772468
1759228115.607342, 2.198925, 11.329063, -2.469170, 1.936976, 0.888554, 0.621477, 15.095917, -75.084686, -159.201370, 13.727683, 100.772468
1759228115.626343, 1.542764, 7.064242, -3.705626, 2.524934, -0.894761, 1.466951, 15.853516, -74.280502, -159.738159, 13.727683, 100.772468
1759228115.647301, 4.750545, 11.191247, -2.641553, 3.644761, -0.823052, 2.111542, 16.997345, -73.319229, -161.510391, 13.727683, 100.772468
1759228115.667342, 6.445640, 17.214310, -1.946187, 5.234517, -0.316005, 2.074262, 17.361389, -71.530411, -163.722015, 13.727683, 100.772468
1759228115.687337, 4.614524, 18.001254, -6.780229, 5.337930, -2.756181, 1.597368, 19.258194, -69.454407, -165.604523, 13.727683, 100.772468
1759228115.707338, 1.145027, 14.710873, -3.234716, 3.566295, -4.351158, 1.074032, 21.597198, -68.509155, -168.600052, 13.727683, 100.772468
1759228115.727383, 1.730110, 10.720786, 2.683152, 2.468149, -4.549206, 0.631935, 23.190552, -67.762177, -172.221100, 13.727683, 100.772468
1759228115.747200, 4.293402, 8.523508, 5.391144, 2.208373, -4.050231, 0.451685, 24.916504, -67.650894, -174.991409, 13.727683, 100.772468
1759228115.767337, 5.596446, 6.710049, 3.413982, 3.024865, -2.054663, 0.495667, 25.230103, -67.196259, -176.812317, 13.727683, 100.772468
1759228115.786896, 5.905598, 6.125116, 2.694524, 4.215186, 1.105623, 1.001604, 25.529465, -66.806885, -178.815613, 13.727683, 100.772468
1759228115.806794, 5.093215, 7.859565, 1.796250, 4.941418, 3.056027, 0.812942, 25.643936, -66.375900, -180.459946, 13.727683, 100.772468
1759228115.826410, 3.827431, 11.661857, -4.817283, 5.290313, 0.839801, -0.464410, 25.439087, -65.711792, -181.332413, 13.727683, 100.772468
1759228115.846427, 1.902193, 10.553791, -1.198896, 4.534976, -0.423217, -1.083932, 25.240097, -65.259033, -184.314224, 13.727683, 100.772468
1759228115.867314, 1.018882, 6.330718, -1.192163, 4.105940, -0.655600, -0.457352, 24.515717, -64.701492, -187.392395, 13.727683, 100.772468
1759228115.887345, 1.737293, 3.993528, -2.687491, 3.564822, -0.046006, 0.174505, 24.184860, -64.484665, -188.801727, 13.727683, 100.772468
1759228115.907444, 2.064999, 4.429722, -1.269525, 3.280035, 0.499875, 0.294909, 24.442993, -64.889725, -190.493179, 13.727683, 100.772468
1759228115.926320, 1.943942, 4.578761, -0.391751, 3.036520, 0.885426, -0.139258, 24.292236, -65.004227, -191.683105, 13.727683, 100.772468
1759228115.947333, 1.681328, 3.384803, -0.931644, 2.484694, 1.251101, -0.277388, 24.421829, -64.929443, -192.885818, 13.727683, 100.772468
1759228115.967330, 2.429217, 0.643741, -4.344728, 1.543216, 0.757217, -0.144491, 24.272232, -65.109299, -193.615784, 13.727683, 100.772468
1759228115.987398, 4.671836, -1.803732, -6.690746, 0.377209, 0.574848, -0.256768, 24.114700, -64.971970, -193.420563, 13.727683, 100.772468
1759228116.007333, 4.595221, -2.755427, -8.405892, -1.033980, 0.736976, -0.537520, 23.575897, -65.211380, -192.857254, 13.727683, 100.772468
1759228116.026349, 1.454926, -2.497452, -9.608829, -2.390910, 0.594789, -0.628298, 23.236710, -64.865265, -191.500565, 13.727683, 100.772468
1759228116.047310, 0.853533, -1.160589, -9.692177, -3.202188, 0.001532, -0.857198, 23.227936, -64.613388, -190.529770, 13.727683, 100.772468
1759228116.067407, 1.064073, 0.112976, -8.667309, -3.848217, -0.281306, -1.133864, 22.681885, -64.353226, -189.046005, 13.727683, 100.772468
1759228116.087337, 0.866851, 0.596007, -9.315689, -4.650133, -0.495063, -1.319311, 21.346527, -63.704651, -185.759201, 13.727683, 100.772468
1759228116.107316, 1.403601, 0.101604, -10.038289, -4.873992, -0.872702, -1.678063, 21.052460, -64.300354, -184.216003, 13.727683, 100.772468
1759228116.126402, 2.691681, 2.297985, -9.767445, -4.236386, -0.659136, -0.933286, 19.957870, -64.054520, -181.609116, 13.727683, 100.772468
1759228116.147326, 5.711368, 12.426056, -7.928997, -5.213212, -1.605942, 1.048400, 20.684677, -64.946609, -180.153656, 13.727683, 100.772468
1759228116.167336, 12.033706, 18.261923, -0.389058, -5.153726, -3.342197, 1.278056, 22.272552, -66.583679, -177.800323, 13.727683, 100.772468
1759228116.187339, 12.282853, 20.591481, -0.867748, -3.697530, -3.391103, -0.450154, 22.778610, -67.454895, -176.448746, 13.727683, 100.772468
1759228116.207347, 2.742708, 6.437410, 0.206350, -3.421573, -2.794869, -0.160483, 23.884460, -68.148849, -176.424637, 13.727683, 100.772468
1759228116.226352, 1.139790, 4.090344, -1.483507, -3.068884, -2.867883, -0.055181, 24.515060, -68.968826, -175.382233, 13.727683, 100.772468
1759228116.247303, 0.974889, 5.941211, -0.011522, -2.711707, -2.170845, 0.589209, 25.237228, -70.027969, -175.910385, 13.727683, 100.772468
1759228116.267344, 1.961749, 9.178172, 3.806481, -2.110298, -0.483571, 1.248339, 26.539749, -70.945374, -175.190552, 13.727683, 100.772468
1759228116.287164, 3.010110, 13.578565, 2.047641, -1.144700, 0.649961, 1.172011, 26.445587, -71.970078, -173.847321, 13.727683, 100.772468
1759228116.307269, 3.162890, 19.579332, 1.107917, -0.276867, 2.278986, -0.061759, 26.584564, -72.377136, -172.896271, 13.727683, 100.772468
1759228116.326401, 0.052224, 16.516699, -5.029170, -0.822614, 2.884422, -1.310851, 25.313110, -72.226486, -172.069794, 13.727683, 100.772468
1759228116.347303, -1.490839, 8.826075, -5.131223, -1.095766, 2.522342, -1.664053, 23.660782, -72.112320, -170.433212, 13.727683, 100.772468
1759228116.367381, -1.841440, 6.222231, -2.246809, -1.174254, 2.720174, -1.748761, 22.390350, -71.944061, -169.770203, 13.727683, 100.772468
1759228116.387342, -1.803432, 6.177040, -0.668431, -1.317846, 3.361145, -1.787232, 19.866821, -71.937775, -167.498398, 13.727683, 100.772468
1759228116.407348, -2.682853, 6.844424, -0.688183, -1.539287, 3.597506, -1.586009, 18.098648, -72.150345, -165.990646, 13.727683, 100.772468
1759228116.427357, -3.224391, 6.795044, -1.481861, -1.644416, 3.139595, -1.139277, 15.526932, -72.459122, -164.847565, 13.727683, 100.772468
1759228116.446449, -2.689287, 7.050325, -2.498050, -1.514761, 1.520824, -0.625735, 14.467926, -72.998398, -163.841583, 13.727683, 100.772468
1759228116.467357, -1.612794, 7.270293, -2.364125, -1.336555, -0.681583, 0.234651, 14.567108, -73.827393, -163.415344, 13.727683, 100.772468
1759228116.487340, 0.646285, 8.532935, -0.110433, -0.550441, -1.148336, 0.309504, 14.874847, -74.432419, -162.884811, 13.727683, 100.772468
1759228116.507405, 2.538752, 9.363723, 0.272340, 0.051618, -0.369405, 0.009441, 15.487320, -74.462601, -163.728012, 13.727683, 100.772468
1759228116.526361, 4.390667, 9.077466, -0.770933, -0.265876, 0.733318, 0.012259, 15.055435, -74.435867, -163.171280, 13.727683, 100.772468
1759228116.547303, 5.275773, 9.574113, 0.247501, -0.613739, 1.487318, -0.111327, 14.488815, -74.693420, -162.950043, 13.727683, 100.772468
1759228116.567408, 3.957615, 9.453655, 1.162086, -0.423445, 1.666720, -0.482660, 13.733902, -75.138794, -162.769516, 13.727683, 100.772468
1759228116.587338, 0.196624, 10.517279, 0.758363, -0.185407, 1.988353, -0.593823, 12.438232, -75.104034, -162.021591, 13.727683, 100.772468
1759228116.607341, -1.585859, 10.766575, -1.764527, -0.386098, 1.851923, -0.388200, 11.206635, -75.183319, -162.165619, 13.727683, 100.772468
1759228116.626351, -2.814534, 10.745027, -3.547758, -0.744321, 1.498461, 0.023672, 10.217804, -75.077423, -161.492996, 13.727683, 100.772468
1759228116.646598, -2.855385, 12.001385, -3.682282, -0.992807, 0.925566, 0.344152, 10.010437, -75.733353, -161.286545, 13.727683, 100.772468
1759228116.666566, -1.605611, 13.319243, -2.288857, -0.963487, -0.009564, 0.493848, 9.734375, -76.515442, -161.327621, 13.727683, 100.772468
1759228116.687338, 0.190938, 13.891158, -0.651073, -0.784033, -0.819102, 0.765663, 9.876480, -77.012650, -160.473282, 13.727683, 100.772468
1759228116.707341, 1.570297, 16.205453, 1.296759, -0.654410, -0.459550, 1.246243, 10.874222, -77.381927, -160.737686, 13.727683, 100.772468
1759228116.727316, 3.537283, 20.385430, 2.321328, -0.098782, 1.047427, 0.759316, 10.555664, -77.954468, -160.236847, 13.727683, 100.772468
1759228116.747329, 1.838747, 16.930896, 1.812860, 0.307368, 1.724086, -0.068219, 9.932709, -77.946350, -160.023254, 13.727683, 100.772468
1759228116.767339, 0.132878, 14.992790, 2.238429, 0.354374, 1.166566, -0.643622, 8.910980, -77.874481, -160.454437, 13.727683, 100.772468
1759228116.787340, -1.150713, 8.655937, 1.296909, 0.796749, 1.046542, 0.019502, 8.058060, -77.722733, -159.860870, 13.727683, 100.772468
1759228116.807341, 0.755071, 5.126734, -0.377835, 2.524521, 2.456561, 1.552600, 6.958084, -76.826599, -161.129578, 13.727683, 100.772468
1759228116.826327, 1.797447, 9.447220, -4.872649, 4.839681, 3.544014, 3.067413, 5.648010, -74.977097, -161.595474, 13.727683, 100.772468
1759228116.847304, 3.353379, 12.646772, -14.860510, 7.040215, 0.562612, 4.249297, 6.034943, -71.684708, -164.911011, 13.727683, 100.772468
1759228116.867379, 5.015852, 14.922460, -19.865140, 5.512883, -5.759249, 4.255395, 10.007858, -69.428986, -167.183914, 13.727683, 100.772468
1759228116.887338, 10.821642, 17.398514, -5.985205, 2.378065, -9.079082, 0.922115, 14.188278, -68.404358, -169.574554, 13.727683, 100.772468
1759228116.907449, 9.459341, 14.556447, 12.280010, 1.769176, -7.298682, -0.696937, 17.228409, -67.501404, -172.933350, 13.727683, 100.772468
1759228116.926351, 7.351097, 9.332149, 8.883536, 1.301904, -5.056608, -0.594980, 18.503876, -67.059845, -174.570953, 13.727683, 100.772468
1759228116.946978, 5.300164, 5.865196, 7.505822, 0.857602, 0.054391, 0.028799, 18.799332, -67.194107, -176.038757, 13.727683, 100.772468
1759228116.967400, 3.413383, 5.818359, 6.597672, 3.316138, 5.882196, -0.016641, 17.765915, -66.412704, -175.668610, 13.727683, 100.772468
1759228116.987342, 1.034445, 10.158448, -3.984251, 6.675625, 2.029737, -0.212273, 16.259354, -65.003387, -177.309067, 13.727683, 100.772468
1759228117.007406, -0.283863, 11.846360, -2.956989, 6.858868, -0.564113, -1.147640, 16.436890, -63.647629, -181.170486, 13.727683, 100.772468
1759228117.027337, 1.497723, 8.461558, -0.488268, 4.793376, 2.285280, -1.211038, 15.180466, -62.938034, -184.081665, 13.727683, 100.772468
1759228117.047325, -0.048333, 5.572504, -5.328894, 4.002345, 0.198217, -0.208411, 14.913467, -62.130447, -186.220627, 13.727683, 100.772468
1759228117.067444, 0.784550, 5.199607, -1.987936, 3.574402, 0.502479, -0.289781, 14.644211, -62.365341, -188.489090, 13.727683, 100.772468
1759228117.087339, 0.834529, 4.939388, -1.122132, 3.210860, 1.838583, -0.506756, 13.923080, -61.920013, -189.926849, 13.727683, 100.772468
1759228117.107385, 0.088286, 3.601179, -1.548450, 2.803463, 1.619620, -0.415220, 14.172714, -62.122253, -191.748764, 13.727683, 100.772468
1759228117.127364, 1.390433, 1.798195, -3.035399, 1.922536, 1.339732, -0.139016, 13.805847, -62.061539, -192.159012, 13.727683, 100.772468
1759228117.147325, 4.639664, 0.397288, -5.340716, 0.851626, 0.679103, -0.205993, 13.877701, -62.275467, -192.844147, 13.727683, 100.772468
1759228117.167404, 7.028329, -0.827496, -6.715736, -0.297116, 0.503410, -0.754180, 13.710861, -62.467361, -192.884354, 13.727683, 100.772468
1759228117.187340, 3.591901, -2.153135, -8.442105, -1.624596, 0.591232, -1.039025, 12.685806, -61.873962, -191.663132, 13.727683, 100.772468
1759228117.207454, 0.386065, -2.644695, -8.470985, -2.984518, 0.706430, -1.043654, 12.214340, -61.820312, -190.797394, 13.727683, 100.772468
1759228117.227344, 0.064045, -2.314146, -9.407866, -4.125721, 0.482146, -0.826105, 11.857681, -61.649551, -188.090652, 13.727683, 100.772468
1759228117.247305, -0.294636, -1.327435, -11.398794, -5.144219, -0.691455, -0.662670, 11.091873, -61.447327, -185.462646, 13.727683, 100.772468
1759228117.267409, 1.144428, -0.809689, -9.944167, -5.249274, -2.492512, -0.766112, 11.065033, -62.016785, -182.747070, 13.727683, 100.772468
1759228117.287341, 6.101324, 0.278924, -6.565649, -4.129223, -1.986376, 0.640971, 11.094772, -62.673096, -180.060883, 13.727683, 100.772468
1759228117.307461, 10.955717, 10.777499, -8.186673, -4.934462, -0.232762, 2.458245, 12.746948, -63.961212, -178.018570, 13.727683, 100.772468
1759228117.326352, 14.360122, 23.941568, -7.540538, -4.940372, -4.490495, 1.898407, 14.656891, -65.614792, -175.388992, 13.727683, 100.772468
1759228117.347306, 14.090326, 23.526323, 3.144485, -4.422847, -4.098471, -0.678663, 16.295364, -66.606140, -174.290115, 13.727683, 100.772468
1759228117.367326, 1.498022, 7.358579, 1.195604, -4.502819, -2.652820, -1.017883, 16.766785, -67.461548, -172.544052, 13.727683, 100.772468
1759228117.387328, 0.149189, 3.242048, 1.328183, -4.339283, -1.962112, -1.301974, 16.916016, -68.777100, -170.862152, 13.727683, 100.772468
1759228117.406840, -0.050877, 5.206491, 3.753510, -4.001382, -0.706801, -1.046345, 16.559387, -70.015457, -169.715973, 13.727687, 100.772464
1759228117.426352, -0.526275, 11.282077, 4.077026, -2.695675, -0.323537, -0.476919, 16.147049, -71.352158, -168.251602, 13.727687, 100.772464
1759228117.447313, -1.121683, 18.484584, 4.881328, -0.567905, 0.262295, -0.113487, 16.562195, -71.521454, -167.887268, 13.727687, 100.772464
1759228117.467452, -2.175132, 18.879178, 1.409586, 0.162888, 1.048218, -0.617781, 16.077072, -71.530167, -167.940216, 13.727687, 100.772464
1759228117.487400, -4.586991, 8.324190, -9.234735, -1.281178, 1.895996, -0.031738, 15.193573, -71.854248, -167.212860, 13.727687, 100.772464
1759228117.507447, -1.154903, 6.001216, -2.842965, -1.957491, 3.443292, 0.070695, 13.847824, -72.470001, -166.146545, 13.727687, 100.772464
1759228117.526376, -0.470760, 6.828263, -0.878971, -1.986796, 3.775809, -0.345485, 11.918335, -73.709702, -164.379028, 13.727687, 100.772464
1759228117.547375, -0.917877, 6.637625, -0.893935, -1.983461, 3.360629, -0.650408, 10.177368, -74.654404, -163.257095, 13.727687, 100.772464
1759228117.566542, -1.535431, 6.878242, -1.370830, -1.945678, 2.439450, -0.841520, 8.568375, -75.257614, -162.923355, 13.727687, 100.772464
1759228117.587343, -1.886930, 6.632986, -2.233641, -1.853186, 0.144459, -0.413319, 7.775238, -76.450989, -161.885956, 13.727687, 100.772464
1759228117.607333, -0.501286, 7.312191, -0.373645, -0.718514, -2.010495, -0.501441, 8.669037, -76.963531, -161.832840, 13.727687, 100.772464
1759228117.626404, 0.625036, 9.038261, -0.719158, 0.278422, -2.893539, -0.658404, 9.507217, -77.037231, -161.515762, 13.727687, 100.772464
1759228117.647308, 1.530044, 9.877728, -1.401057, -0.040528, -2.033942, 0.122240, 10.915817, -76.973282, -162.381989, 13.727687, 100.772464
1759228117.667382, 3.102586, 9.945514, 0.534057, -0.489329, 0.209188, 0.217453, 10.896469, -77.231308, -162.729263, 13.727687, 100.772464
1759228117.687348, 1.808670, 11.214441, 0.650624, -0.706573, 1.699197, -0.029418, 10.173752, -77.398056, -161.539291, 13.727687, 100.772464
1759228117.707471, -0.752528, 11.569231, -0.535104, -0.764562, 1.746454, -0.110095, 9.459473, -77.826492, -161.661636, 13.727687, 100.772464
1759228117.727346, -1.829469, 11.492767, -1.435922, -0.748763, 0.870338, -0.026623, 8.568893, -78.430069, -160.776199, 13.727687, 100.772464
1759228117.747335, -2.059462, 11.160122, -1.993472, -0.732424, 0.153487, 0.427502, 8.670181, -78.487091, -160.539047, 13.727687, 100.772464
1759228117.767432, -1.177199, 11.036521, -1.639579, -0.797261, 0.377651, 0.759626, 8.743912, -79.278625, -160.997238, 13.727687, 100.772464
1759228117.787358, -0.287155, 12.520926, -1.404499, -0.900078, 0.852013, 0.908583, 8.673492, -79.563492, -160.382248, 13.727687, 100.772464
1759228117.807427, 1.119589, 14.687529, -0.934487, -0.877950, 1.036239, 0.965149, 7.935165, -80.092651, -160.242844, 13.727687, 100.772464
1759228117.827363, 3.215413, 15.640422, -0.707786, -0.588665, 0.794714, 0.850114, 7.276459, -80.426208, -159.963226, 13.727687, 100.772464
1759228117.847326, 5.312883, 14.377929, -0.183156, 0.190584, 0.217208, 0.285078, 7.596222, -80.571976, -160.422394, 13.727668, 100.772465
1759228117.867402, 3.385102, 13.965229, 2.303821, 0.922482, 0.577003, -0.143723, 7.195877, -80.139160, -160.845001, 13.727668, 100.772465
1759228117.887347, 1.065270, 12.068871, 3.125780, 1.453247, 0.790408, 0.055045, 7.041031, -79.227234, -160.450699, 13.727668, 100.772465
1759228117.907360, 0.805050, 8.227524, 0.534954, 2.198768, 1.745332, 1.479686, 6.044373, -78.513687, -161.324432, 13.727668, 100.772465
1759228117.926653, 3.716848, 12.216264, -2.094478, 4.182450, 3.942133, 2.301603, 4.336029, -76.640930, -161.836380, 13.727668, 100.772465
1759228117.947320, 3.111415, 15.259444, -10.543914, 6.075409, 2.729861, 2.727664, 3.448761, -73.982513, -164.084656, 13.727668, 100.772465
1759228117.967385, -1.731307, 17.436522, -20.510527, 4.968661, -6.150968, 2.760375, 7.124329, -70.948120, -167.066971, 13.727668, 100.772465
1759228117.987341, 1.600225, 16.501586, -2.653374, 2.865556, -10.044789, 1.223728, 11.605896, -69.921249, -168.696167, 13.727668, 100.772465
1759228118.007453, 7.077859, 13.274950, 11.135881, 2.991873, -7.726276, -0.257002, 14.509979, -68.954956, -171.778748, 13.727668, 100.772465
1759228118.026356, 6.643311, 9.896433, 7.343316, 1.952044, -2.623939, -0.168379, 15.718948, -68.374069, -173.073486, 13.727668, 100.772465
1759228118.047361, 5.071967, 5.279065, 5.092916, 1.623611, 1.533218, 0.312459, 15.679779, -68.171219, -173.705063, 13.727668, 100.772465
1759228118.067377, 5.278915, 4.855441, 4.190451, 2.828303, 5.532308, 0.686787, 14.047867, -67.316849, -174.018234, 13.727668, 100.772465
1759228118.087342, 3.725228, 6.830807, -2.010531, 5.598155, 3.569155, 1.154570, 13.152710, -66.119110, -175.337036, 13.727668, 100.772465
1759228118.107454, 3.341557, 10.175507, -5.547066, 6.452537, -0.416678, 0.063703, 13.488373, -65.412445, -178.817245, 13.727668, 100.772465
1759228118.127348, 4.329315, 12.634801, -3.838653, 3.964426, 0.584284, -1.124098, 12.761673, -64.146240, -181.559830, 13.727668, 100.772465
1759228118.147354, 1.790414, 9.574263, -1.434576, 3.448810, 0.196721, -0.830997, 12.132156, -63.548645, -182.787491, 13.727668, 100.772465
1759228118.167342, 0.445022, 6.898892, 1.432930, 4.207964, -0.384227, -0.423376, 11.827576, -63.488678, -185.726181, 13.727668, 100.772465
1759228118.187344, 1.372476, 4.785111, 0.820463, 3.996236, 0.842954, -0.211165, 11.927979, -63.171097, -187.313248, 13.727668, 100.772465
1759228118.207467, 1.827225, 3.168127, -2.320580, 3.122308, 0.991578, -0.244460, 11.860031, -63.199661, -189.073364, 13.727668, 100.772465
1759228118.226354, 1.817199, 1.777695, -1.486799, 2.305711, 0.943275, -0.098873, 11.707642, -63.252060, -189.834396, 13.727668, 100.772465
1759228118.247369, 2.739565, 0.586280, -1.580023, 1.634834, 0.951877, 0.076756, 11.698914, -63.302414, -191.066635, 13.727668, 100.772465
1759228118.267384, 3.999813, -0.665588, -5.160702, 0.681711, 0.364973, -0.027157, 11.668823, -63.204758, -191.713776, 13.727668, 100.772465
1759228118.287344, 3.774758, -1.528997, -8.508245, -0.739646, 0.027247, -0.405538, 11.235764, -63.448792, -191.226440, 13.727668, 100.772465
1759228118.307454, 1.571344, -1.606958, -9.430461, -2.296469, 0.097374, -0.685850, 11.136475, -63.191727, -190.706024, 13.727668, 100.772465
1759228118.326352, 0.161609, -1.704073, -9.097817, -3.420820, 0.088641, -0.686755, 10.347473, -63.167313, -188.657852, 13.727668, 100.772465
1759228118.347348, -0.677559, -1.549647, -9.215133, -4.060668, -0.058782, -0.700397, 10.117645, -63.308701, -186.690231, 13.727668, 100.772465
1759228118.367419, -1.294515, -0.557999, -11.077223, -4.549791, -0.180146, -0.611374, 9.640594, -63.265442, -184.323090, 13.727668, 100.772465
1759228118.386413, -1.642871, 1.149067, -14.738406, -4.294919, -1.039128, -0.019281, 9.032623, -64.360870, -181.709763, 13.727668, 100.772465
1759228118.407391, 3.807379, 10.645219, -9.989208, -3.666430, -1.052195, 0.955061, 10.109100, -64.713806, -180.061539, 13.727668, 100.772465
1759228118.426375, 11.829301, 22.226571, -5.981763, -3.681383, -0.424317, 1.342524, 10.538208, -65.654922, -177.704681, 13.727668, 100.772465
1759228118.447334, 16.209344, 26.327390, -4.029741, -2.650615, -2.570600, 0.079064, 11.841766, -66.301575, -176.690094, 13.727668, 100.772465
1759228118.467343, 5.166388, 6.972215, 0.593612, -2.950592, -1.573671, -0.165558, 12.262070, -66.858322, -175.634369, 13.727668, 100.772465
1759228118.487347, 0.682497, 0.014365, 0.504578, -2.777127, -0.270429, -0.572569, 11.845276, -67.577591, -173.930328, 13.727668, 100.772465
1759228118.507391, -0.494103, -0.849193, -2.129343, -2.687348, -0.634486, -0.947723, 12.133743, -68.279205, -173.790741, 13.727668, 100.772465
1759228118.527337, 0.414047, 2.005892, -2.192490, -3.157649, -1.767464, -0.476367, 12.363342, -69.316284, -171.913864, 13.727668, 100.772465
1759228118.547383, 2.016666, 5.766435, -1.328483, -3.860865, -2.436931, 0.870362, 13.233795, -70.422379, -170.932770, 13.727668, 100.772465
1759228118.566632, 4.276194, 9.563339, 0.418686, -3.611310, -2.362118, 1.891823, 15.059464, -72.175476, -170.034561, 13.727668, 100.772465
1759228118.587345, 7.291242, 17.875259, 4.275595, -2.143254, -0.724461, 0.811176, 15.667831, -73.298660, -169.230591, 13.727668, 100.772465
1759228118.607345, 3.588759, 21.095909, 0.807594, -1.634225, 1.513043, -0.769323, 15.331589, -73.782623, -168.372131, 13.727668, 100.772465
1759228118.627339, -0.874931, 15.923835, -2.314594, -1.291449, 1.906333, -1.709867, 13.894653, -74.097763, -167.237717, 13.727668, 100.772465
1759228118.647352, -2.701857, 8.782979, -3.537583, -1.149889, 1.301536, -1.757963, 12.420105, -74.318604, -166.961151, 13.727668, 100.772465
1759228118.667379, -2.205209, 8.217050, -0.142006, -0.905147, 2.062778, -1.523613, 11.564804, -74.553207, -166.330292, 13.727668, 100.772465
1759228118.687345, -2.621800, 7.542483, -0.170886, -0.828181, 2.794111, -1.014997, 9.766983, -74.760895, -165.491150, 13.727668, 100.772465
1759228118.706464, -2.563891, 7.804349, -1.851167, -0.911970, 2.602792, -0.620698, 7.962219, -75.070892, -165.376801, 13.727668, 100.772465
1759228118.727330, -1.860744, 9.220669, -3.275268, -1.261075, 1.406847, -0.555513, 7.080215, -75.895157, -164.711502, 13.727668, 100.772465
1759228118.747355, -1.067664, 8.664017, -3.215712, -1.327603, -0.053739, -0.444242, 7.004044, -76.375885, -163.595535, 13.727668, 100.772465
1759228118.767346, 0.091279, 8.513332, -1.695843, -0.913114, -0.862073, -0.733809, 7.170273, -77.152374, -164.367966, 13.727668, 100.772465
1759228118.787344, 0.352546, 8.521113, -1.789815, -0.522287, -1.666135, -0.951158, 7.175125, -77.497467, -164.435608, 13.727668, 100.772465
1759228118.807449, 1.918204, 7.407810, -2.182315, -0.539212, -0.774855, 0.079139, 7.834244, -77.609146, -164.453659, 13.727668, 100.772465
1759228118.826887, 4.152144, 7.934235, 0.526126, -0.660688, 1.415356, 0.451322, 7.289810, -77.734558, -163.711014, 13.727668, 100.772465
1759228118.847316, 3.877859, 9.116072, 0.584036, -0.737356, 2.154809, -0.092040, 6.182999, -78.322678, -163.572449, 13.727668, 100.772465
1759228118.867343, -0.138415, 10.404452, -0.909497, -0.617515, 1.405328, -0.297296, 5.462448, -78.549820, -163.977478, 13.727668, 100.772465
1759228118.887344, -2.438794, 10.916811, -1.121085, -0.362290, 0.697497, -0.075533, 5.076202, -78.610275, -163.054382, 13.727668, 100.772465
1759228118.907392, -2.551770, 11.142315, -0.743699, -0.422098, 0.844592, 0.175717, 4.679398, -78.831787, -164.002213, 13.727668, 100.772465
1759228118.926555, -1.747169, 12.979566, -1.132457, -0.572075, 1.282477, 0.344996, 4.059326, -79.293472, -163.744186, 13.727668, 100.772465
1759228118.947344, -1.382053, 14.752921, -2.369063, -0.494824, 1.457193, 0.690878, 3.697220, -79.606689, -163.674789, 13.727668, 100.772465
1759228118.967364, -0.609025, 18.010083, -3.609409, -0.335420, 1.054041, 1.260092, 2.956085, -80.000778, -163.435394, 13.727668, 100.772465
1759228118.987344, 3.024924, 20.701914, -2.188151, 0.221751, 1.019427, 0.802427, 2.596893, -79.698395, -163.672882, 13.727668, 100.772465
1759228119.007456, 5.046678, 17.944242, 0.423474, 1.033947, 1.073986, -0.483750, 2.164871, -79.590973, -163.812744, 13.727668, 100.772465
1759228119.027341, 1.998709, 12.283901, 0.012270, 1.287892, 0.104920, -0.557028, 2.045624, -78.733597, -164.551926, 13.727668, 100.772465
1759228119.047322, 0.234781, 5.443966, -0.448314, 1.696926, -0.688496, 1.033104, 2.105637, -78.359222, -164.503067, 13.727668, 100.772465
1759228119.067337, 3.250727, 5.928941, -0.364517, 3.087592, 0.476554, 2.739219, 2.769226, -76.902298, -165.835297, 13.727668, 100.772465
1759228119.087243, 5.580136, 13.001114, -1.724873, 4.395178, 1.705854, 3.357102, 2.957718, -75.106384, -166.814133, 13.727668, 100.772465
1759228119.107421, 5.840655, 17.542316, -4.765658, 4.819788, 0.307527, 2.785552, 4.245255, -73.079437, -169.021240, 13.727661, 100.772465
1759228119.127327, 3.646219, 16.674417, -7.018153, 3.992867, -3.271983, 0.748910, 5.828812, -71.491211, -170.054031, 13.727661, 100.772465
1759228119.147335, 0.949600, 13.534721, -4.578013, 2.708346, -6.166559, 0.245178, 7.931030, -70.897507, -171.754852, 13.727661, 100.772465
1759228119.167344, 2.822614, 9.830143, 2.437447, 2.049005, -5.472730, 0.563356, 9.742004, -70.497971, -173.495346, 13.727661, 100.772465
1759228119.187346, 5.192275, 7.425616, 5.027075, 2.150141, -2.500135, 0.775897, 10.702347, -69.843094, -174.147064, 13.727661, 100.772465
1759228119.207381, 7.310545, 7.107936, 3.247286, 3.029071, 0.334961, 0.509975, 10.822723, -69.193176, -175.708252, 13.727661, 100.772465
1759228119.227328, 6.198738, 6.407482, 2.543989, 3.619502, 1.458020, 0.570418, 10.953506, -68.209824, -176.598663, 13.727661, 100.772465
1759228119.247355, 3.302352, 6.937050, 2.908805, 4.253021, 1.164588, -0.028231, 10.540115, -67.762421, -178.431564, 13.727661, 100.772465
1759228119.267122, 2.018462, 9.962123, -2.214786, 5.257624, -0.572860, -0.844693, 10.456848, -66.606293, -181.095062, 13.727661, 100.772465
1759228119.286925, 1.799691, 8.120833, -2.254141, 4.711603, 1.088438, -0.904728, 9.241684, -66.229294, -183.240967, 13.727661, 100.772465
1759228119.307452, 1.313818, 6.449081, -3.864241, 4.335163, 0.792056, -0.085391, 9.645630, -65.704529, -185.274155, 13.727661, 100.772465
1759228119.327334, 1.420809, 6.383839, -1.804181, 3.746860, 0.747148, -0.021980, 9.259369, -65.383270, -186.878983, 13.727661, 100.772465
1759228119.347336, 0.899621, 4.823269, -0.047884, 3.475067, 1.033556, -0.308873, 9.321411, -65.283142, -188.841690, 13.727661, 100.772465
1759228119.367346, 0.238971, 2.168399, 0.543633, 3.272101, 1.381739, -0.053935, 9.475204, -65.440964, -190.471970, 13.727661, 100.772465
1759228119.387345, 1.495628, 0.453552, -2.783409, 2.500634, 1.442360, 0.274116, 9.216293, -65.332718, -191.398758, 13.727661, 100.772465
1759228119.407449, 4.130148, -1.041178, -7.613112, 0.855336, 0.887671, 0.149424, 9.569641, -65.491379, -192.701797, 13.727661, 100.772465
1759228119.427133, 5.149628, -3.742137, -9.496002, -0.835307, 0.273279, -0.319700, 8.879990, -65.527878, -191.494354, 13.727661, 100.772465
1759228119.447331, 3.669413, -3.773561, -9.333945, -2.362358, -0.334253, -0.533370, 8.834869, -65.302750, -190.492691, 13.727661, 100.772465
1759228119.467339, 2.143559, -2.425775, -8.858247, -3.572684, -0.527104, -0.725194, 7.892120, -65.375488, -188.923340, 13.727661, 100.772465
1759228119.487346, 0.608426, -2.159570, -9.918729, -4.632878, -0.173319, -0.698399, 7.527496, -65.564087, -186.779068, 13.727661, 100.772465
1759228119.507385, -1.351826, -2.565387, -14.835671, -5.185175, -0.876407, -0.584241, 7.337250, -66.308731, -184.036179, 13.727661, 100.772465
1759228119.527338, 0.308702, 0.522086, -12.462867, -4.821502, -1.686887, 0.625362, 7.589081, -66.666702, -181.354019, 13.727661, 100.772465
1759228119.547335, 10.234614, 12.332084, -3.589058, -4.564976, -0.160525, 1.471284, 8.497513, -67.367889, -179.442932, 13.727661, 100.772465
1759228119.567351, 14.833725, 28.807483, -6.332813, -4.406461, -2.786847, 1.082332, 9.758240, -68.692810, -177.412140, 13.727661, 100.772465
1759228119.587348, 14.248792, 22.174647, -0.739958, -4.532541, -3.720018, -0.623571, 10.795609, -69.568726, -175.853607, 13.727661, 100.772465
1759228119.607419, 2.106299, 3.705177, 0.495450, -4.661273, -2.829479, -0.427689, 11.388916, -70.745926, -174.606979, 13.727661, 100.772465
1759228119.627340, 0.836773, 0.186000, -0.421679, -4.627538, -3.224234, -0.644410, 12.196579, -71.926605, -172.399536, 13.727661, 100.772465
1759228119.647316, 0.345064, 0.414945, 0.402376, -4.478450, -2.983988, -0.834750, 12.857117, -73.609131, -171.552032, 13.727661, 100.772465
1759228119.667374, 0.444873, 3.429245, 1.926435, -4.086988, -2.176128, -0.175816, 13.919998, -74.537537, -170.935135, 13.727661, 100.772465
1759228119.687348, 0.997185, 9.819968, 5.306000, -2.759666, -0.936355, 1.576509, 14.524078, -76.063400, -169.567123, 13.727661, 100.772465
1759228119.707391, 2.561646, 18.214937, 4.794688, -0.620693, -0.683250, 2.049379, 15.515198, -76.607315, -169.781067, 13.727661, 100.772465
1759228119.727344, 2.958934, 20.646248, 0.670526, -0.206583, 1.066234, 0.574223, 15.372620, -77.026245, -168.891525, 13.727661, 100.772465
1759228119.747354, -1.606958, 13.106907, -6.013037, -1.474232, 2.807217, 0.119087, 14.405685, -77.510925, -168.364395, 13.727661, 100.772465
1759228119.767380, -0.412252, 7.798214, -1.924040, -1.112683, 2.175234, -0.006537, 13.436996, -77.657700, -167.771469, 13.727661, 100.772465
1759228119.787261, 0.452803, 6.065560, 0.715417, -0.776019, 2.232266, -0.131326, 12.314224, -78.138840, -167.158859, 13.727661, 100.772465
1759228119.807420, 0.233285, 5.475689, -0.301819, -0.933253, 2.306874, -0.373646, 11.503098, -78.559341, -166.862961, 13.727661, 100.772465
1759228119.827325, -0.172532, 6.679374, -2.851943, -1.636144, 2.025973, -0.583301, 10.206146, -79.498947, -166.148636, 13.727661, 100.772465
1759228119.847355, -0.843208, 9.235932, -3.315221, -2.225048, 1.105208, -0.786454, 9.612976, -80.581940, -165.584351, 13.727661, 100.772465
1759228119.867384, -1.251719, 9.567529, -1.745822, -2.127974, 0.065172, -1.073830, 9.307144, -80.979355, -165.134277, 13.727661, 100.772465
1759228119.886595, -2.001852, 9.708338, -0.486023, -1.371215, -1.261227, -0.895164, 9.769394, -81.479828, -165.057892, 13.727661, 100.772465
1759228119.907337, -1.940800, 10.354773, 0.976385, -0.523173, -1.876044, -0.725027, 10.417221, -81.950317, -165.161362, 13.727661, 100.772465
1759228119.927343, -0.911592, 10.434080, -1.556979, -0.224827, -2.249534, -0.588543, 11.265808, -81.884262, -164.817825, 13.727661, 100.772465
1759228119.946628, 0.346411, 9.801862, -2.544288, -0.504239, -2.279915, -0.243529, 12.636276, -82.277634, -165.110901, 13.727661, 100.772465
1759228119.967335, 2.651279, 8.527997, -0.517896, -0.564884, -1.593427, -0.124126, 13.171799, -82.429306, -165.790558, 13.727661, 100.772465
1759228119.987347, 3.585167, 9.245210, 2.877980, -0.274893, -0.168316, -0.367675, 13.078568, -82.430435, -164.760941, 13.727661, 100.772465
1759228120.007331, 1.549797, 9.204957, 3.243844, -0.443661, 1.024523, -0.116343, 12.213531, -82.826965, -165.337753, 13.727661, 100.772465
1759228120.027343, 0.263961, 9.735123, 1.820940, -0.123611, 1.991061, -0.000972, 11.284241, -82.702423, -164.815048, 13.727661, 100.772465
1759228120.047343, -1.051952, 9.493458, -2.599804, 0.178293, 1.605774, 0.252348, 10.717987, -82.570694, -164.508606, 13.727661, 100.772465
1759228120.067353, -0.950348, 10.347889, -4.441843, 0.276052, 0.619676, 0.395008, 10.663345, -82.905151, -164.265457, 13.727661, 100.772465
1759228120.087348, 0.047884, 11.311555, -3.558981, 0.223383, -0.157564, 0.331316, 10.759644, -82.625977, -164.568375, 13.727661, 100.772465
1759228120.107349, 1.333121, 11.641207, -1.738490, -0.126300, -0.711625, 0.359868, 10.864975, -83.088898, -164.938248, 13.727661, 100.772465
1759228120.127342, 2.633622, 13.712491, 0.782156, -0.470172, -0.760717, 0.674180, 11.446411, -83.385254, -164.652451, 13.727661, 100.772465
1759228120.147315, 4.781819, 17.714249, 2.510919, -0.403007, 0.357003, 1.234940, 11.226135, -83.584305, -164.263016, 13.727661, 100.772465
1759228120.167325, 8.641422, 21.777808, 2.755427, 0.549874, 2.895644, 1.122214, 10.086349, -83.651276, -164.438263, 13.727661, 100.772465
1759228120.187349, 5.528062, 16.968755, -1.150414, 1.529636, 3.201115, 0.437148, 8.851410, -82.871735, -165.090454, 13.727661, 100.772465
1759228120.207418, 0.705990, 14.002488, -4.886566, 2.130901, 1.540468, -0.159169, 7.999268, -82.277832, -164.985153, 13.727661, 100.772465
1759228120.227354, -2.057068, 8.439411, -6.821679, 2.791628, -0.865191, -0.072897, 8.171997, -81.121964, -165.603073, 13.727661, 100.772465
1759228120.247381, -4.699070, 9.053075, -9.016414, 3.258212, -3.632977, 0.854792, 10.201645, -79.634598, -166.193207, 13.727661, 100.772465
1759228120.267368, -3.312977, 15.814450, -8.176648, 2.863020, -4.722057, 1.324118, 11.943680, -78.836502, -167.820633, 13.727661, 100.772465
1759228120.287367, 0.265008, 17.302446, 1.688810, 2.880364, -2.577476, 0.303114, 13.571625, -77.863342, -168.805466, 13.727661, 100.772465
1759228120.307415, 1.385794, 11.898135, 6.910863, 2.898523, 0.212584, -1.144884, 13.576477, -76.897079, -169.768005, 13.727661, 100.772465
1759228120.327344, -0.827346, 10.525210, 3.088520, 3.049251, 0.486914, -1.702086, 12.422089, -75.405334, -170.274307, 13.727661, 100.772465
1759228120.347313, -2.549525, 11.406575, -0.300772, 3.499419, -0.144925, -1.067319, 11.979248, -74.343826, -171.479156, 13.727661, 100.772465
1759228120.367366, -0.259172, 10.062231, -2.508226, 3.175798, 0.678516, -0.868626, 11.424316, -73.329269, -172.213501, 13.727661, 100.772465
1759228120.387347, 0.569371, 9.240421, -3.959561, 2.750326, 0.869550, -1.459624, 10.274796, -72.184906, -172.879883, 13.727661, 100.772465
1759228120.407330, 0.463727, 8.881291, -1.645714, 2.913070, 0.640375, -1.537206, 9.953842, -71.522202, -174.222504, 13.727661, 100.772465
1759228120.427362, 1.141885, 8.145822, 1.083676, 2.635562, 1.512427, -1.770161, 8.497177, -70.827301, -174.293808, 13.727661, 100.772465
1759228120.447338, 1.999308, 9.431359, 0.266505, 2.791268, 2.116192, -2.224657, 6.936874, -69.686493, -175.411789, 13.727661, 100.772465
1759228120.467350, 0.805200, 11.372159, -2.447173, 3.892432, 1.201144, -2.542221, 5.726120, -69.333191, -176.927917, 13.727661, 100.772465
1759228120.487347, 1.122432, 10.880150, -3.501670, 3.875088, 2.163970, -2.350166, 4.317322, -68.131622, -178.126022, 13.727661, 100.772465
1759228120.506818, 0.735469, 9.507524, -4.353407, 3.647282, 1.931466, -1.951748, 3.330429, -68.012390, -180.980438, 13.727661, 100.772465
1759228120.527354, -0.378882, 7.299023, -0.609773, 3.725373, 1.721692, -1.620552, 1.891464, -66.802643, -181.885437, 13.727661, 100.772465
1759228120.547371, 0.075866, 5.197961, 0.171036, 3.851411, 2.465630, -1.385563, 1.038422, -66.627945, -183.642059, 13.727661, 100.772465
1759228120.567328, 0.374543, 4.811148, -0.417489, 3.801480, 2.973068, -1.220201, 0.346298, -66.381317, -185.873611, 13.727661, 100.772465
1759228120.587349, 0.639252, 5.237166, -1.074997, 3.396037, 3.292233, -1.240669, -0.544876, -66.260529, -187.274384, 13.727661, 100.772465
1759228120.607340, 1.795801, 3.775057, -0.687136, 2.933228, 3.194223, -1.068275, -0.718781, -65.997879, -189.260757, 13.727661, 100.772465
1759228120.627348, 3.430592, 1.506402, -2.025345, 2.236241, 2.634785, -1.008405, -1.537308, -66.439285, -190.397980, 13.727661, 100.772465
1759228120.647330, 4.776881, -1.548899, -4.230854, 1.140364, 2.106739, -1.000533, -2.109528, -66.875046, -191.034454, 13.727661, 100.772465
1759228120.667349, 4.820276, -3.977218, -6.128408, -0.062581, 1.214546, -1.092518, -2.546021, -67.449081, -191.576706, 13.727661, 100.772465
1759228120.687062, 2.941726, -1.897704, -6.945878, -1.073786, 0.200267, -1.265142, -3.165955, -67.041138, -190.279373, 13.727661, 100.772465
1759228120.707183, 2.239626, 0.357035, -5.513398, -1.423838, -0.183794, -1.540780, -3.982132, -67.599335, -190.205276, 13.727661, 100.772465
1759228120.727387, 0.711377, 0.760758, -6.538415, -1.855911, -0.096974, -1.635019, -4.947968, -67.903275, -189.087265, 13.727661, 100.772465
1759228120.747362, -0.286706, 1.330578, -8.432079, -2.018644, -0.181851, -1.701437, -6.026382, -68.315857, -188.402618, 13.727661, 100.772465
1759228120.767353, -0.304662, 1.603965, -6.884228, -1.651706, 0.221793, -1.435128, -6.907349, -68.868805, -187.550797, 13.727661, 100.772465
1759228120.787352, 1.167473, 2.775778, -8.667459, -1.113608, 0.927221, -0.919321, -7.455353, -69.090698, -186.725662, 13.727661, 100.772465
1759228120.807460, 3.475483, 4.411466, -10.624719, -0.778056, 1.611895, -0.326813, -7.430511, -69.395508, -187.413269, 13.727661, 100.772465
1759228120.827320, 6.301838, 5.429750, -13.263728, -0.880767, 1.889713, -0.451301, -8.072861, -69.681503, -188.022797, 13.727661, 100.772465
1759228120.847369, 6.599767, 4.467131, -13.966725, -1.215502, 1.559107, -1.004142, -8.227509, -70.308746, -186.905319, 13.727661, 100.772465
1759228120.867352, 1.672200, 1.891419, -11.878233, -1.547705, 1.139787, -0.871896, -8.820419, -70.308243, -186.897232, 13.727661, 100.772465
1759228120.887354, 1.977162, 1.314716, -11.593173, -1.883466, 0.900320, -0.679679, -9.547867, -70.585068, -185.850266, 13.727661, 100.772465
1759228120.907457, 4.083760, 3.785981, -16.712874, -1.571163, 0.233593, -0.342612, -10.062561, -71.398987, -185.555237, 13.727661, 100.772465
1759228120.927349, 8.286930, 14.348600, -23.594708, -0.309486, -0.273114, -0.108113, -9.801468, -71.211838, -183.798126, 13.727661, 100.772465
1759228120.947328, 9.145701, 30.007278, -20.854993, -2.286079, -0.790181, -0.046623, -9.662430, -71.127441, -183.217270, 13.727661, 100.772465
1759228120.967352, 2.917933, 9.892841, 6.723666, -2.310910, 1.188767, -1.011788, -9.909073, -71.844971, -182.546936, 13.727661, 100.772465
1759228120.987351, -0.898723, -5.638495, 10.209325, -1.716994, 2.547974, -1.148841, -10.561111, -72.234131, -181.975052, 13.727661, 100.772465
1759228121.007020, -2.753182, -6.804171, -4.542698, -0.972987, -1.523714, -0.601459, -10.620850, -72.670105, -181.330841, 13.727661, 100.772465
1759228121.026821, -0.608576, 3.364602, -6.004209, -1.749836, -4.903114, 0.607551, -9.309143, -72.798935, -179.046692, 13.727661, 100.772465
1759228121.047317, 4.070442, 7.777863, -4.299088, -2.825636, -5.263928, 1.757333, -8.173157, -72.883698, -176.280670, 13.727661, 100.772465
1759228121.067349, 5.412841, 10.844387, -5.317073, -4.566367, -3.005308, 2.732730, -6.021576, -73.584152, -173.885849, 13.727661, 100.772465
1759228121.087350, 6.971017, 12.794314, 0.150685, -4.243573, -2.123529, 1.274793, -5.132599, -74.659027, -171.555511, 13.727661, 100.772465
1759228121.107460, 6.940192, 13.375058, 0.417639, -3.636875, -2.597277, -0.646904, -4.630875, -75.979385, -170.008163, 13.727661, 100.772465
1759228121.127359, 1.951873, 9.654020, 0.685490, -2.887851, -2.233252, -0.620405, -3.551575, -77.891495, -169.020050, 13.727661, 100.772465
1759228121.147343, 0.398784, 8.826374, 2.800767, -2.015707, -0.663596, -0.501477, -3.493317, -78.271286, -167.793961, 13.727661, 100.772465
1759228121.167343, 0.140659, 10.067917, 3.719841, -1.135772, 0.861509, -0.709042, -4.037094, -78.839828, -167.802460, 13.727661, 100.772465
1759228121.187186, -1.077690, 12.534095, 1.832761, -0.014721, 1.346989, -1.181704, -5.410385, -79.212158, -167.864777, 13.727661, 100.772465
1759228121.207456, -2.823362, 12.941558, -1.788169, 0.557028, 0.907418, -1.445216, -5.675751, -79.136414, -168.491714, 13.727661, 100.772465
1759228121.227125, -4.824915, 10.466851, -6.154445, -0.158607, 1.065815, -1.031721, -6.557220, -79.799164, -168.316544, 13.727661, 100.772465
1759228121.247336, -3.895665, 8.133552, -4.497059, -0.982106, 2.015147, -0.547825, -7.792648, -80.006699, -168.423523, 13.727661, 100.772465
1759228121.267343, -2.456152, 9.023297, -0.906654, -0.950356, 2.671143, -0.388607, -8.922836, -80.490753, -169.310379, 13.727661, 100.772465
1759228121.286371, -1.858200, 10.209774, 0.034267, -0.768042, 2.587866, -0.623673, -9.769699, -81.054520, -169.422852, 13.727661, 100.772465
1759228121.306816, -1.541866, 8.927080, 0.437391, -0.797697, 2.161231, -0.793657, -10.560623, -81.851959, -170.481537, 13.727661, 100.772465
1759228121.326624, -1.221641, 7.615806, 0.551415, -0.833600, 1.641277, -0.673159, -11.319473, -82.246765, -170.686386, 13.727661, 100.772465
1759228121.347349, -0.607529, 7.380875, -0.004040, -0.875921, 1.183915, -0.423541, -12.020401, -82.973282, -170.410141, 13.727661, 100.772465
1759228121.367364, 0.271143, 7.961020, -0.330849, -0.876208, 1.128773, -0.265508, -12.725708, -83.052704, -170.580444, 13.727661, 100.772465
1759228121.387351, 0.906654, 8.831312, -0.359280, -0.782782, 1.574240, -0.178028, -13.302490, -83.423080, -170.899673, 13.727661, 100.772465
1759228121.407341, 1.292869, 10.053702, -0.759411, -0.778391, 2.269558, -0.009974, -13.596451, -83.771088, -172.213699, 13.727661, 100.772465
1759228121.427371, 1.593491, 10.114305, -1.059734, -0.716905, 2.785409, 0.155385, -14.614868, -84.115189, -172.825775, 13.727661, 100.772465
1759228121.447337, 2.069937, 10.130615, -1.855955, -0.494033, 2.972554, 0.222269, -15.561066, -83.779007, -173.833054, 13.727661, 100.772465
1759228121.467440, 2.393005, 11.256938, -3.806032, -0.455921, 2.767214, 0.084778, -16.127136, -83.946503, -175.008408, 13.727661, 100.772465
1759228121.487355, 1.607557, 11.124658, -5.439477, -0.691939, 1.875101, -0.073599, -16.833344, -84.276535, -175.344772, 13.727661, 100.772465
1759228121.507338, 0.874033, 10.242544, -5.307047, -0.900421, 0.504146, -0.188898, -17.228668, -84.731857, -175.999771, 13.727661, 100.772465
1759228121.527347, 0.538246, 9.744850, -4.298789, -1.006179, -0.903985, -0.186399, -17.014862, -85.466583, -175.154663, 13.727661, 100.772465
1759228121.546354, 0.116119, 9.968857, -2.089539, -0.913161, -1.316289, -0.088382, -16.445267, -85.390244, -173.759659, 13.727661, 100.772465
1759228121.567373, 0.009128, 10.336367, 0.686088, -0.382181, -1.030689, 0.043982, -16.029999, -85.506149, -173.641724, 13.727661, 100.772465
1759228121.587357, -0.247650, 10.690110, 1.957709, 0.135652, -0.674186, 0.145346, -15.886154, -85.196320, -173.155090, 13.727661, 100.772465
1759228121.607320, -0.325911, 9.795577, 2.611176, 0.279889, -0.463587, 0.099270, -15.821472, -85.519348, -173.313431, 13.727661, 100.772465
1759228121.627344, -0.475997, 9.684097, 3.487005, 0.069865, -0.406894, -0.119345, -15.287308, -85.145111, -173.329819, 13.727661, 100.772465
1759228121.646828, -0.018405, 9.022399, 3.419219, -0.354335, -0.348926, -0.154177, -15.805130, -85.727554, -172.729019, 13.727661, 100.772465
1759228121.667348, 1.153407, 7.513304, 2.854936, -0.617531, -0.137336, -0.034084, -15.397812, -85.592667, -173.332123, 13.727661, 100.772465
1759228121.687355, 1.710059, 6.705411, 3.217807, -0.729214, 0.090001, 0.344927, -15.598312, -85.727280, -172.728210, 13.727661, 100.772465
1759228121.707393, 2.484283, 7.808539, 3.214515, -0.652701, 0.041289, 0.522297, -15.592194, -85.761459, -173.169434, 13.727661, 100.772465
1759228121.727346, 3.072210, 9.498696, 2.978537, -0.410292, -0.176778, 0.386270, -15.579895, -86.152649, -172.881180, 13.727661, 100.772465
1759228121.747373, 3.209876, 10.674698, 2.423980, -0.304426, -0.268902, 0.077681, -15.443298, -85.547165, -172.665100, 13.727661, 100.772465
1759228121.767421, 1.932270, 9.924415, 1.286883, -0.555020, -0.062569, 0.112345, -15.184265, -86.274872, -172.375076, 13.727661, 100.772465
1759228121.787351, 1.765275, 9.431808, 0.786495, -0.870128, 0.746840, 0.138837, -15.204224, -85.836029, -172.721573, 13.727661, 100.772465
1759228121.807352, 1.141585, 9.396942, 1.501913, -0.607456, 0.846901, 0.160868, -15.717606, -86.336334, -173.241867, 13.727661, 100.772465
1759228121.827322, 0.715417, 9.760711, 1.159991, -0.277647, 0.546251, 0.154367, -15.860306, -86.461014, -173.358887, 13.727661, 100.772465
1759228121.846830, 0.204854, 9.809792, 0.054767, -0.282062, 0.510551, 0.106925, -16.203186, -86.712036, -172.971283, 13.727661, 100.772465
1759228121.867373, 0.102502, 9.948656, 0.061651, -0.190831, 0.227347, 0.000724, -15.744675, -86.794449, -173.542236, 13.727661, 100.772465
1759228121.887351, 0.078410, 9.734375, 0.644938, 0.028796, -0.370305, -0.032835, -16.138168, -86.852234, -173.092606, 13.727661, 100.772465
1759228121.907116, 0.485873, 10.206931, 1.026514, -0.009581, -0.646146, -0.048377, -16.066040, -86.868927, -173.362961, 13.727661, 100.772465
1759228121.927346, 0.956633, 10.321703, 1.461660, -0.172391, -0.426996, -0.014230, -15.972275, -86.637085, -172.909653, 13.727661, 100.772465
1759228121.947361, 1.318906, 9.698911, 1.733552, -0.241126, 0.100673, 0.039461, -15.715866, -86.733002, -172.861130, 13.727661, 100.772465
1759228121.967435, 1.356764, 9.314642, 1.879598, -0.135559, 0.439624, 0.128165, -15.770554, -86.923965, -172.783218, 13.727661, 100.772465
1759228121.987357, 1.191864, 9.418490, 1.422455, -0.089694, 0.404753, 0.146662, -16.161072, -86.703278, -173.274231, 13.727661, 100.772465
1759228122.007357, 0.838270, 9.736470, 1.168520, -0.127358, 0.294773, 0.092167, -16.047226, -86.764969, -173.746384, 13.727661, 100.772465
1759228122.027349, 0.729483, 10.059538, 1.245883, -0.160030, 0.175594, 0.017911, -15.673050, -86.972473, -173.364761, 13.727661, 100.772465
1759228122.047319, 0.877924, 10.150966, 1.291373, -0.195127, -0.020797, -0.036969, -15.906387, -87.138626, -172.968414, 13.727661, 100.772465
1759228122.067400, 1.110760, 9.895385, 1.359757, -0.216224, -0.150052, -0.061201, -15.758286, -87.023102, -173.315002, 13.727661, 100.772465
1759228122.087352, 1.464054, 9.608081, 1.419163, -0.217319, -0.106938, -0.063631, -16.022980, -87.073914, -172.828323, 13.727661, 100.772465
1759228122.107369, 1.809717, 9.500192, 1.449240, -0.155747, 0.081848, -0.039528, -15.903122, -87.156815, -173.477051, 13.727661, 100.772465
1759228122.127344, 1.646014, 9.421333, 1.249923, -0.083794, 0.119874, 0.039253, -16.058273, -86.913727, -173.692261, 13.727661, 100.772465
1759228122.147408, 1.146823, 10.428544, 1.143680, -0.050982, 0.011504, 0.060925, -15.971603, -87.154388, -172.729752, 13.727661, 100.772465
1759228122.166697, 0.891242, 10.450840, 1.194108, -0.029506, -0.077457, 0.039927, -15.972214, -87.030243, -173.459961, 13.727661, 100.772465
1759228122.186370, 0.804302, 9.836278, 1.249175, -0.033258, -0.125622, 0.013728, -16.141266, -87.171677, -173.210526, 13.727661, 100.772465
1759228122.207460, 0.847697, 9.517700, 1.440860, -0.046374, -0.198101, 0.013165, -15.921661, -87.366882, -173.095673, 13.727661, 100.772465
1759228122.227353, 0.972046, 9.556905, 1.632995, -0.040795, -0.196571, 0.025582, -16.044067, -87.163055, -173.038055, 13.727661, 100.772465
1759228122.247317, 1.010503, 9.645490, 1.688511, -0.020769, -0.052411, 0.033625, -16.089539, -87.095871, -172.656006, 13.727661, 100.772465
1759228122.267372, 0.921019, 9.454553, 1.543961, -0.035828, 0.139056, 0.042478, -15.710571, -86.916794, -173.254288, 13.727661, 100.772465
1759228122.287376, 0.888249, 9.226056, 1.315315, -0.043843, 0.249679, 0.048031, -16.071732, -87.092651, -172.891663, 13.727661, 100.772465
1759228122.307405, 0.922217, 9.133430, 1.164031, -0.015849, 0.241111, 0.060395, -15.787674, -86.950058, -173.101440, 13.727661, 100.772465
1759228122.327351, 0.895581, 9.310751, 1.078887, -0.006731, 0.228408, 0.069801, -16.177353, -86.675095, -173.549728, 13.727661, 100.772465
1759228122.347078, 0.817470, 9.445275, 0.957830, -0.039040, 0.243319, 0.054788, -16.061188, -87.132538, -173.689468, 13.727661, 100.772465
1759228122.367347, 0.700304, 9.591770, 1.008258, -0.022963, 0.192825, 0.053717, -16.321762, -86.878723, -173.574280, 13.727661, 100.772465
1759228122.387364, 0.786795, 9.778967, 1.105074, 0.035201, 0.045736, 0.045990, -16.692978, -87.126434, -173.184311, 13.727661, 100.772465
1759228122.407403, 0.836175, 9.740809, 1.136348, 0.032643, -0.041874, 0.038876, -15.876846, -86.919128, -173.284424, 13.727661, 100.772465
1759228122.427344, 0.787243, 9.802909, 1.335815, -0.009053, -0.004448, 0.028044, -15.978516, -87.395798, -173.686310, 13.727661, 100.772465
1759228122.447367, 0.835277, 10.121338, 1.692551, -0.023302, 0.044358, 0.043120, -16.194214, -86.936661, -173.977112, 13.727661, 100.772465
1759228122.467387, 0.924910, 10.192266, 1.732355, -0.026619, 0.048796, 0.041045, -15.831177, -87.121277, -173.708893, 13.727661, 100.772465
1759228122.487348, 1.112256, 9.978733, 1.687463, -0.071006, 0.052297, 0.022466, -16.172379, -86.903748, -173.561462, 13.727661, 100.772465
1759228122.507348, 1.188123, 9.647136, 1.588553, -0.122630, 0.091098, 0.021276, -15.665665, -86.997849, -173.784470, 13.727661, 100.772465
1759228122.527353, 1.276409, 9.591321, 1.424550, -0.172118, 0.299507, 0.032797, -15.777359, -87.176346, -174.348190, 13.727661, 100.772465
1759228122.547337, 1.308132, 9.603292, 1.101632, -0.161916, 0.358782, 0.049207, -16.499557, -87.238892, -174.043976, 13.727661, 100.772465
1759228122.567425, 0.921019, 9.632023, 0.797718, 0.021697, 0.231794, 0.084628, -16.471359, -86.919937, -174.292511, 13.727661, 100.772465
1759228122.587355, 0.826748, 9.600150, 0.606780, 0.067604, -0.028966, 0.068132, -16.583374, -87.193375, -173.910965, 13.727661, 100.772465
1759228122.607349, 0.656759, 9.581745, 0.691775, 0.062611, -0.263901, 0.046067, -16.489700, -86.850754, -174.582642, 13.727661, 100.772465
1759228122.627348, 0.639551, 9.337686, 1.218649, 0.066850, -0.375430, 0.038928, -16.096848, -86.897339, -173.883743, 13.727661, 100.772465
1759228122.647320, 0.783802, 9.332748, 1.597531, 0.028913, -0.391137, 0.058267, -16.244415, -86.895050, -174.000443, 13.727661, 100.772465
1759228122.667353, 0.979528, 9.620800, 1.892766, -0.039692, -0.197110, 0.082908, -15.504684, -86.880112, -173.515381, 13.727661, 100.772465
1759228122.687405, 1.124976, 9.797522, 2.124405, -0.061027, 0.133214, 0.092942, -15.896927, -87.135971, -173.597900, 13.727661, 100.772465
1759228122.707351, 1.274912, 9.640702, 1.882142, -0.098744, 0.230285, 0.092781, -16.076050, -86.735291, -174.096191, 13.727661, 100.772465
1759228122.726722, 1.246631, 9.592519, 1.678036, -0.130846, 0.173066, 0.086568, -15.824127, -86.928757, -173.610321, 13.727661, 100.772465
1759228122.747338, 0.978031, 9.582044, 1.694047, -0.142570, 0.114924, 0.081359, -16.304916, -86.982803, -174.125687, 13.727661, 100.772465
1759228122.767338, 1.006163, 9.595960, 1.590797, -0.122261, 0.207065, 0.080686, -15.838242, -86.990280, -174.235855, 13.727661, 100.772465
1759228122.787360, 1.196502, 9.726295, 1.214160, -0.156516, 0.248718, 0.079780, -15.880356, -87.090256, -173.568253, 13.727661, 100.772465
1759228122.807354, 1.196203, 9.786000, 1.070657, -0.131985, 0.240724, 0.090066, -16.004471, -86.989944, -174.157074, 13.727661, 100.772465
1759228122.827325, 1.090409, 9.576208, 0.914735, -0.041414, 0.204721, 0.107025, -16.053131, -86.702957, -174.231796, 13.727661, 100.772465
1759228122.847358, 0.928501, 9.580248, 0.685939, 0.031732, 0.074214, 0.109220, -15.954788, -86.757202, -174.079254, 13.727661, 100.772465
1759228122.866875, 0.819266, 9.605687, 0.643442, 0.056726, -0.100051, 0.092013, -16.145203, -86.983963, -174.745987, 13.727661, 100.772465
1759228122.887353, 0.538845, 9.483134, 0.999729, 0.087726, -0.139957, 0.092436, -16.111267, -87.159073, -174.114883, 13.727661, 100.772465
1759228122.907357, 0.627281, 9.538799, 1.238850, 0.093685, -0.023133, 0.087073, -16.232834, -86.774185, -173.977737, 13.727661, 100.772465
1759228122.927345, 0.740108, 9.755624, 1.253215, 0.071583, 0.194945, 0.081976, -16.114380, -87.036850, -174.281052, 13.727661, 100.772465
1759228122.946590, 0.751181, 9.840618, 1.205481, 0.062197, 0.297497, 0.078475, -16.040359, -87.087662, -174.630646, 13.727661, 100.772465
1759228122.967368, 0.580594, 10.025570, 0.711676, 0.088664, 0.451842, 0.063938, -16.361633, -86.532822, -174.625412, 13.727661, 100.772465
1759228122.986848, 0.528520, 10.125228, 0.492008, 0.175351, 0.506480, 0.054320, -16.867386, -86.622940, -174.251083, 13.727661, 100.772465
1759228123.007354, 0.213533, 10.385598, -0.511461, 0.269342, 0.745832, 0.107071, -16.773407, -86.700241, -175.636902, 13.727661, 100.772465
1759228123.027343, 0.130933, 10.634296, -1.133505, 0.499855, 0.901251, 0.144120, -17.050858, -86.128784, -175.912552, 13.727661, 100.772465
1759228123.047353, 0.206201, 10.747122, -1.055993, 0.861145, 0.651237, 0.115889, -17.289001, -86.263351, -175.954605, 13.727661, 100.772465
1759228123.067355, 0.386963, 10.364200, -1.105223, 1.035178, 0.363214, 0.070723, -16.941574, -86.061340, -176.330917, 13.727661, 100.772465
1759228123.086474, 0.557849, 10.537779, -1.236456, 1.138799, 0.228229, -0.002083, -17.191376, -85.595398, -176.229477, 13.727661, 100.772465
1759228123.107354, 0.711976, 10.857405, -1.686565, 1.802010, -0.528765, -0.123342, -17.383347, -85.347092, -176.645401, 13.727661, 100.772465
1759228123.126823, 0.269497, 11.109994, -2.362628, 2.467306, -0.841672, -0.160788, -16.992599, -84.874710, -175.921524, 13.727661, 100.772465
1759228123.147394, 0.050877, 10.598831, -3.864541, 3.004706, -1.269212, 0.156554, -16.932480, -84.620895, -176.082047, 13.727661, 100.772465
1759228123.167367, 1.877653, 12.222998, -4.930559, 2.575342, -0.926465, 0.069644, -16.584503, -83.265884, -176.349228, 13.727661, 100.772465
1759228123.186429, 3.040038, 12.149676, -4.220978, 2.395343, -0.632412, -0.109255, -16.533295, -83.140717, -175.475632, 13.727661, 100.772465
1759228123.207352, 4.842273, 9.676914, 1.420360, 2.224358, 0.065307, -0.055736, -16.455353, -82.210114, -176.541779, 13.727661, 100.772465
1759228123.227335, 3.598934, 9.305963, 1.473781, 2.659357, 0.277432, 0.199644, -16.428101, -81.742950, -177.033157, 13.727661, 100.772465
1759228123.247340, 2.600552, 10.879701, 0.719458, 2.965907, 1.659387, 0.152463, -17.305618, -81.089966, -178.182358, 13.727661, 100.772465
1759228123.267364, 0.478092, 10.515483, -2.050783, 3.051091, 2.529884, 0.201892, -17.714706, -80.198486, -179.577042, 13.727661, 100.772465
1759228123.287354, -1.193360, 10.743082, -5.639392, 2.572650, 1.786266, 0.204692, -17.928802, -79.480621, -180.714981, 13.727661, 100.772465
1759228123.307358, -0.996886, 10.595689, -4.801721, 2.196089, 1.087380, -0.100355, -18.181305, -79.270554, -182.700012, 13.727661, 100.772465
1759228123.327388, 0.081253, 8.697237, -2.141763, 2.154771, 1.594983, -0.159266, -18.378098, -78.911926, -183.282516, 13.727661, 100.772465
1759228123.347328, 1.070956, 6.719926, -1.753603, 2.137653, 2.552980, -0.101245, -18.806030, -78.389282, -184.829178, 13.727661, 100.772465
1759228123.367347, 1.859397, 5.574749, -3.550302, 2.096706, 2.520988, -0.166528, -19.046616, -78.801468, -186.818985, 13.727661, 100.772465
1759228123.387359, 2.537405, 3.999514, -3.975721, 1.828592, 2.341111, -0.253923, -19.440475, -78.249847, -187.479721, 13.727661, 100.772465
1759228123.407354, 3.406500, 3.219453, -5.083489, 1.402454, 2.341844, -0.310414, -19.350769, -78.711227, -189.716660, 13.727661, 100.772465
1759228123.426989, 3.724330, 3.732860, -6.353164, 0.835341, 2.045556, -0.457568, -19.336578, -79.097855, -190.621353, 13.727661, 100.772465
1759228123.447187, 3.613748, 4.529830, -5.731719, 0.397163, 1.752266, -0.556754, -19.576141, -79.363327, -191.382980, 13.727661, 100.772465
1759228123.467345, 3.776554, 4.890157, -4.714333, 0.106732, 1.626749, -0.503608, -19.548019, -79.539413, -192.860306, 13.727661, 100.772465
1759228123.487338, 3.801543, 4.934150, -4.351462, -0.134122, 1.566249, -0.359367, -20.102341, -79.505585, -192.973465, 13.727661, 100.772465
1759228123.507359, 4.065803, 4.825364, -4.676774, -0.171531, 1.392407, -0.125604, -19.672897, -79.992966, -193.750366, 13.727661, 100.772465
1759228123.527353, 4.407426, 5.135862, -4.217685, 0.040232, 1.354277, 0.156645, -19.626221, -79.892456, -195.171310, 13.727661, 100.772465
1759228123.547339, 4.495263, 5.689371, -5.031864, 0.308990, 1.188725, 0.399830, -19.520782, -79.472580, -194.750275, 13.727661, 100.772465
1759228123.567350, 5.398625, 6.536470, -6.456563, 0.494434, 0.859569, 0.416083, -19.297852, -79.407501, -195.061172, 13.727661, 100.772465
1759228123.587358, 5.461174, 7.799860, -7.872135, 0.598174, 0.437095, 0.309082, -19.526123, -79.617279, -195.245102, 13.727661, 100.772465
1759228123.607390, 4.840328, 8.049605, -7.539191, 0.719521, -0.071841, 0.212970, -19.310974, -79.825119, -195.979309, 13.727661, 100.772465
1759228123.627244, 3.977966, 8.378359, -6.446987, 0.671320, -0.313642, 0.088703, -19.729691, -79.755676, -195.822906, 13.727661, 100.772465
1759228123.647359, 2.799720, 7.178265, -5.796362, 0.463157, -0.441363, -0.161899, -19.842941, -79.498230, -195.209442, 13.727661, 100.772465
1759228123.667356, 2.166154, 5.104588, -3.850475, 0.361769, 0.412966, -0.281390, -19.972473, -80.040802, -195.849457, 13.727661, 100.772465
1759228123.687356, 2.414253, 5.253327, -5.064784, 0.237871, 1.257175, -0.259315, -20.180450, -80.165421, -195.936935, 13.727661, 100.772465
1759228123.707355, 2.051532, 5.702988, -6.817789, 0.070957, 1.632123, -0.219989, -20.204941, -80.460236, -197.033112, 13.727661, 100.772465
1759228123.727352, 2.327014, 6.479308, -7.005135, -0.000007, 1.532562, -0.371974, -20.094360, -80.817551, -197.812332, 13.727661, 100.772465
1759228123.746434, 4.046650, 6.609792, -6.209811, 0.175274, 1.567958, -0.545659, -19.774841, -80.806732, -197.866425, 13.727661, 100.772465
1759228123.767324, 5.963807, 5.892579, -7.014412, 0.348574, 1.258406, -0.572060, -20.114670, -81.288284, -198.864990, 13.727661, 100.772465
1759228123.787357, 7.461679, 5.133168, -9.043947, 0.306804, 0.540714, -0.549890, -20.278717, -81.362778, -199.285400, 13.727661, 100.772465
1759228123.807348, 9.680805, 5.154267, -8.080880, -0.289483, -0.009246, -0.535961, -20.227707, -81.434418, -198.916351, 13.727661, 100.772465
1759228123.827350, 15.079281, 11.130045, -6.053739, -0.460389, 0.564584, -0.155353, -20.651779, -81.699020, -198.942474, 13.727661, 100.772465
1759228123.847161, 15.165622, 27.059417, -6.884826, 0.466309, -0.112249, 1.122139, -21.118942, -81.212112, -199.281235, 13.727661, 100.772465
1759228123.867186, 11.979987, 31.077336, -7.973739, 3.694074, 0.531641, 0.058410, -21.371643, -81.609787, -199.866409, 13.727661, 100.772465
1759228123.887350, -1.309928, 12.077401, -2.989161, 2.547585, 2.533335, 0.750167, -20.280685, -81.818115, -200.802521, 13.727661, 100.772465
1759228123.907394, -6.872107, -0.686537, 4.106355, -0.642570, 0.536678, 0.882461, -19.364731, -80.948532, -202.064575, 13.727661, 100.772465
1759228123.927346, -1.229423, -6.512079, 3.026121, -1.134242, -2.357541, -0.040899, -20.109436, -80.629425, -201.132935, 13.727661, 100.772465
1759228123.947352, 4.636970, -6.453271, -9.006089, -0.910937, -3.392072, 0.007553, -21.011169, -80.536453, -198.827820, 13.727661, 100.772465
1759228123.967349, 2.971354, 8.265981, -13.577967, -3.451862, -5.620031, 0.866070, -21.640182, -79.621155, -195.625290, 13.727661, 100.772465
1759228123.987356, 5.401319, 11.238083, -2.980781, -5.467827, -7.168759, 1.158731, -22.034973, -79.061127, -192.548050, 13.727661, 100.772465
1759228124.006819, 8.922741, 12.981062, 2.738219, -4.750980, -6.587967, 0.189906, -22.299408, -78.114746, -188.039398, 13.727661, 100.772465
1759228124.027352, 7.050924, 13.239037, 0.934188, -3.930637, -5.572340, -0.499407, -21.702332, -78.653122, -181.251205, 13.727661, 100.772465
1759228124.047370, 2.621202, 9.353697, 2.203414, -2.908545, -3.051422, -0.529608, -21.092789, -79.453247, -180.219009, 13.727661, 100.772465
1759228124.067361, 1.017386, 7.894880, 3.876961, -1.950079, -0.612648, -0.416643, -21.012741, -80.030029, -177.998093, 13.727661, 100.772465
1759228124.087357, 0.417788, 8.240094, 3.497629, -1.145664, 1.015092, -0.568636, -21.005737, -80.837418, -177.410751, 13.727661, 100.772465
1759228124.107349, -0.565481, 10.290877, 1.800739, -0.212056, 1.573347, -0.944951, -21.302353, -81.242416, -178.253891, 13.727661, 100.772465
1759228124.127344, -2.492663, 11.849802, -3.347393, 0.353606, 0.813538, -0.774777, -22.201035, -81.490952, -179.056442, 13.727661, 100.772465
1759228124.147355, -3.903596, 10.846182, -7.298873, -0.750266, 1.212982, -0.213269, -22.465118, -81.877380, -179.598602, 13.727661, 100.772465
1759228124.167352, -2.002151, 10.198701, -4.832098, -1.510475, 1.201802, -0.135256, -22.878174, -82.249023, -179.363159, 13.727661, 100.772465
1759228124.187357, 0.048483, 9.725696, -1.623568, -1.378140, 0.965998, -0.503691, -22.847641, -82.396927, -179.444901, 13.727661, 100.772465
1759228124.207377, 0.798915, 8.467992, 0.359430, -0.962636, 1.018916, -0.571148, -22.785446, -83.154236, -180.597687, 13.727661, 100.772465
1759228124.227332, 1.381454, 7.305158, -1.640178, -0.873197, 1.202090, -0.239161, -23.184311, -83.385162, -180.800339, 13.727661, 100.772465
1759228124.247334, 2.150741, 7.623587, -3.872023, -1.256576, 1.625382, -0.005988, -23.313614, -83.312653, -181.164017, 13.727661, 100.772465
1759228124.267349, 1.615637, 8.058284, -4.862175, -1.480870, 1.633687, -0.024779, -23.709991, -83.858521, -181.695618, 13.727661, 100.772465
1759228124.287355, 0.952892, 9.198074, -3.312827, -1.381745, 0.938631, -0.127339, -24.169174, -83.889709, -182.568588, 13.727661, 100.772465
1759228124.307378, 1.226430, 9.920225, -1.125275, -1.145325, 0.269893, -0.029416, -23.786880, -83.926514, -182.687057, 13.727661, 100.772465
1759228124.327351, 2.127398, 9.911546, -1.732355, -0.929531, -0.186892, 0.350171, -24.050980, -84.431198, -182.056839, 13.727661, 100.772465
1759228124.347344, 4.475361, 9.583840, -2.664896, -1.077829, -0.039871, 0.516662, -23.576233, -84.121262, -182.325272, 13.727661, 100.772465
1759228124.367396, 5.067477, 9.474305, -1.574637, -1.154454, -0.051580, 0.691107, -23.763794, -84.019073, -181.719299, 13.727661, 100.772465
1759228124.387368, 5.275474, 11.388469, 0.990302, -0.741250, -0.278423, 0.528147, -23.473557, -83.786865, -182.006683, 13.727661, 100.772465
1759228124.407327, 2.830246, 12.212972, 3.031508, -0.165495, -0.009506, 0.253004, -23.366348, -83.473785, -181.672089, 13.727661, 100.772465
1759228124.427330, 1.042974, 11.471219, 3.619285, 0.262683, 0.680440, -0.009012, -23.717804, -83.464005, -180.607468, 13.727661, 100.772465
1759228124.447317, 0.251541, 9.336788, 2.219425, 0.343901, 0.954048, -0.241597, -23.400040, -83.068588, -182.083740, 13.727661, 100.772465
1759228124.467377, -0.221164, 7.315184, 0.510264, -0.030451, 0.391353, -0.225849, -23.558105, -83.490173, -182.241531, 13.727661, 100.772465
1759228124.487357, 0.053121, 7.345111, -0.280421, -0.566573, -0.729452, -0.134694, -23.628754, -83.626297, -182.419983, 13.727661, 100.772465
1759228124.507344, 0.640150, 8.157494, 0.588375, -0.764739, -1.638613, -0.075740, -23.550598, -83.792694, -181.863113, 13.727661, 100.772465
1759228124.527383, 1.484854, 8.816947, 1.552041, -0.703879, -2.139146, -0.114577, -23.239395, -84.117508, -179.992416, 13.727661, 100.772465
1759228124.547336, 2.202366, 8.692149, 2.064700, -0.531455, -2.285083, -0.126846, -22.745605, -84.396622, -179.271225, 13.727661, 100.772465
1759228124.567403, 2.900126, 8.715792, 2.140117, -0.415844, -2.037309, -0.112214, -22.018997, -84.041733, -177.145309, 13.727661, 100.772465
1759228124.586632, 4.689643, 9.357737, 0.707487, -1.048079, -0.169930, -0.135796, -21.906494, -84.542038, -177.150497, 13.727661, 100.772465
1759228124.607384, 4.339939, 9.270498, 1.559224, -1.057746, 0.713951, 0.084161, -21.926468, -84.763199, -176.901779, 13.727661, 100.772465
1759228124.627347, 4.090194, 9.204957, 1.527800, -0.696481, 0.719165, 0.185432, -21.826782, -84.954605, -176.882812, 13.727661, 100.772465
1759228124.647333, 3.442263, 9.629629, 0.105195, -0.457675, 0.030481, 0.259112, -22.059433, -84.574829, -177.709183, 13.727661, 100.772465
1759228124.667388, 2.442385, 10.675147, -0.564882, -0.166176, -0.201328, 0.130327, -22.160660, -84.461899, -177.406967, 13.727661, 100.772465
1759228124.687356, 0.276530, 9.182512, 0.144251, -0.035961, 0.286025, 0.182290, -22.264404, -84.777740, -176.914383, 13.727661, 100.772465
1759228124.707348, -0.174178, 9.806351, -0.067935, -0.139870, 0.419535, 0.316438, -22.180710, -84.545853, -178.249023, 13.727661, 100.772465
1759228124.727384, 0.583138, 10.613496, 1.356764, 0.196286, -0.084910, 0.037930, -22.388016, -84.548874, -177.506851, 13.727661, 100.772465
1759228124.747363, 0.804751, 10.063877, 1.252467, 0.188571, -0.477236, -0.081167, -21.826721, -84.658142, -177.040680, 13.727661, 100.772465
1759228124.767392, 1.852364, 9.936386, 0.426318, -0.153676, -0.601113, -0.162980, -22.086731, -84.778854, -176.545914, 13.727661, 100.772465
1759228124.787357, 2.988263, 9.852589, 0.230891, -0.477472, -0.527833, -0.209053, -22.016693, -84.741425, -176.600632, 13.727661, 100.772465
1759228124.807350, 2.642002, 9.611074, 1.477671, -0.321688, -0.099372, -0.084394, -21.851730, -84.673325, -176.316406, 13.727661, 100.772465
1759228124.827377, 2.138022, 9.791986, 1.920000, 0.005236, 0.407750, 0.082388, -21.739334, -84.930496, -176.025436, 13.727661, 100.772465
1759228124.847382, 1.732504, 9.739762, 1.652149, 0.183061, 0.679224, 0.122518, -22.383804, -84.721634, -176.717224, 13.727661, 100.772465
1759228124.867344, 1.192013, 9.488820, 1.106271, 0.158652, 0.656250, 0.060650, -22.297836, -84.686722, -176.807190, 13.727661, 100.772465
1759228124.886630, 0.916081, 9.061754, 0.521038, -0.014847, 0.271698, -0.038791, -22.026779, -84.692673, -177.387085, 13.727661, 100.772465
1759228124.906577, 1.302595, 9.277831, 0.536152, -0.147476, -0.080273, -0.138859, -21.974808, -84.818405, -177.809174, 13.727661, 100.772465
1759228124.927353, 1.725322, 9.009231, 1.076493, -0.095827, -0.130640, -0.127158, -22.591217, -85.135315, -177.150589, 13.727661, 100.772465
1759228124.947337, 1.986738, 8.894459, 1.363049, -0.046699, 0.009684, -0.040117, -21.793335, -84.775818, -177.139404, 13.727661, 100.772465
1759228124.967400, 2.297386, 9.051878, 1.323096, -0.082620, 0.114594, 0.014492, -22.184708, -85.002121, -176.916870, 13.727661, 100.772465
1759228124.986494, 2.500295, 9.726744, 1.246781, -0.193051, 0.305056, 0.029167, -22.169083, -84.973587, -177.211838, 13.727661, 100.772465
1759228125.007345, 2.486229, 10.389488, 1.102380, -0.244069, 0.382876, 0.055572, -22.368546, -85.128372, -177.565781, 13.727661, 100.772465
1759228125.027354, 2.735824, 10.631153, 0.725593, -0.246549, 0.311378, 0.047681, -22.254929, -85.255310, -177.383499, 13.727661, 100.772465
1759228125.047311, 2.893991, 9.735722, 0.271443, -0.207737, 0.157803, 0.039430, -22.194565, -85.105331, -177.576767, 13.727661, 100.772465
1759228125.067356, 2.615216, 9.065944, 0.444124, -0.055505, -0.042200, 0.082392, -22.719131, -85.042511, -177.610565, 13.727661, 100.772465
1759228125.087420, 2.254440, 9.318382, 1.151312, 0.102307, -0.131695, 0.109767, -22.365036, -84.710022, -176.988373, 13.727661, 100.772465
1759228125.107060, 1.797896, 9.713126, 1.509694, 0.106543, -0.097525, 0.097629, -22.459869, -85.294769, -177.922562, 13.727673, 100.772460
1759228125.127353, 1.667113, 9.730335, 1.440412, -0.039103, -0.062692, 0.051557, -22.022491, -84.936401, -177.259445, 13.727673, 100.772460
1759228125.147324, 1.721581, 9.387216, 1.247978, -0.186648, 0.024290, 0.026972, -22.178894, -84.862808, -177.823257, 13.727673, 100.772460
1759228125.167354, 1.850269, 9.172187, 0.996138, -0.238430, 0.113898, 0.027963, -22.383698, -84.985504, -176.868607, 13.727673, 100.772460
1759228125.187358, 1.966238, 9.368810, 0.839766, -0.196815, 0.190771, 0.053581, -22.288925, -84.902115, -177.426254, 13.727673, 100.772460
1759228125.207002, 2.046743, 9.615712, 0.794127, -0.110479, 0.256563, 0.082821, -22.213913, -84.765610, -177.760468, 13.727673, 100.772460
1759228125.227365, 2.201319, 9.834183, 0.588674, -0.069108, 0.267191, 0.091338, -22.364838, -84.826782, -177.449432, 13.727673, 100.772460
1759228125.247290, 2.109890, 9.703999, 0.478840, -0.048987, 0.144609, 0.086575, -21.899155, -84.875275, -178.068619, 13.727673, 100.772460
1759228125.267374, 1.855207, 9.599552, 0.684293, -0.004802, -0.057384, 0.065066, -22.215912, -84.427109, -177.637405, 13.727673, 100.772460
1759228125.287363, 1.673697, 9.714623, 1.099238, 0.023809, -0.200439, 0.032201, -22.302979, -84.795364, -177.214081, 13.727673, 100.772460
1759228125.307361, 1.716643, 9.686491, 1.360056, -0.031492, -0.141747, 0.001621, -22.176956, -84.639282, -177.918152, 13.727673, 100.772460
1759228125.327359, 1.879149, 9.459491, 1.316512, -0.129091, 0.070138, 0.004992, -22.299728, -84.752075, -177.349091, 13.727673, 100.772460
1759228125.347297, 2.085948, 9.324069, 1.250970, -0.127517, 0.166810, 0.018202, -22.307785, -84.676239, -177.668320, 13.727673, 100.772460
1759228125.367363, 2.182165, 9.400534, 1.100884, -0.064932, 0.156736, 0.044702, -22.618225, -84.976624, -177.683899, 13.727673, 100.772460
1759228125.387359, 2.180370, 9.355642, 0.901118, -0.040845, 0.148375, 0.045746, -21.970627, -84.960236, -177.604950, 13.727673, 100.772460
1759228125.407469, 2.016367, 9.291897, 0.803105, -0.052730, 0.200001, 0.041865, -22.314636, -84.643097, -178.188690, 13.727673, 100.772460
1759228125.427383, 1.812710, 9.329605, 0.916680, -0.029447, 0.158572, 0.048567, -22.586472, -84.756683, -177.506134, 13.727673, 100.772460
1759228125.447337, 1.564910, 9.378686, 1.019331, -0.019054, 0.013117, 0.034010, -22.194305, -84.550278, -178.259338, 13.727673, 100.772460
1759228125.466532, 1.603367, 9.184158, 0.997784, -0.088873, -0.103551, -0.005416, -22.366058, -84.857422, -177.602478, 13.727673, 100.772460
1759228125.487342, 1.550246, 9.068937, 1.179144, -0.139612, -0.149164, 0.010737, -22.367050, -84.794586, -177.956161, 13.727673, 100.772460
1759228125.507335, 1.810316, 9.320777, 1.558027, -0.120530, -0.061180, 0.059730, -22.221085, -84.814835, -177.684631, 13.727673, 100.772460
1759228125.527213, 2.099715, 9.586683, 1.287183, -0.173017, 0.071224, 0.103448, -22.337616, -84.851868, -177.379562, 13.727744, 100.772417
1759228125.547278, 2.236633, 9.868151, 0.856226, -0.280489, 0.086715, 0.125010, -22.267181, -84.648010, -177.569611, 13.727744, 100.772417
1759228125.567362, 2.043002, 10.136900, 0.820164, -0.270651, 0.080655, 0.156429, -22.173721, -84.649597, -177.853485, 13.727744, 100.772417
1759228125.587359, 1.780239, 10.250774, 0.784999, -0.188978, 0.082342, 0.177121, -22.176346, -84.583771, -177.890320, 13.727744, 100.772417
1759228125.607436, 1.557877, 10.085724, 0.645088, -0.125712, 0.064386, 0.147043, -22.121033, -84.825348, -177.805923, 13.727744, 100.772417
1759228125.627348, 1.166874, 9.838224, 0.847547, -0.080470, -0.053405, 0.116825, -22.098434, -84.418198, -177.184448, 13.727744, 100.772417
1759228125.647271, 1.074099, 9.738266, 1.225382, -0.043291, -0.252242, 0.055388, -22.226791, -84.339935, -177.473083, 13.727744, 100.772417
1759228125.667356, 1.200991, 9.838972, 1.237653, -0.111456, -0.231196, -0.008733, -21.898743, -84.818039, -177.185150, 13.727744, 100.772417
1759228125.687363, 1.311274, 9.505878, 1.301548, -0.172491, -0.002377, 0.024858, -21.899796, -84.600937, -177.208664, 13.727744, 100.772417
1759228125.707415, 1.838747, 9.577854, 1.542016, -0.059654, 0.226205, 0.058390, -21.824478, -84.531799, -177.268753, 13.727744, 100.772417
1759228125.727355, 1.966088, 9.664345, 1.098939, 0.031505, 0.407361, 0.111620, -21.924438, -84.460464, -177.185974, 13.727744, 100.772417
1759228125.747303, 1.656788, 9.916035, 0.583736, 0.098639, 0.513053, 0.115377, -22.044342, -84.513885, -177.432266, 13.727744, 100.772417
1759228125.766706, 1.284340, 10.335918, 0.120758, 0.233053, 0.549024, 0.089244, -22.356979, -84.151260, -177.830124, 13.727744, 100.772417
1759228125.787361, 1.060182, 11.086052, -0.723797, 0.463458, 0.530386, 0.057873, -22.300064, -83.939285, -177.695023, 13.727744, 100.772417
1759228125.807405, 0.809988, 11.524340, -1.634492, 0.824949, 0.342835, 0.010184, -22.401169, -84.119751, -178.298874, 13.727744, 100.772417
1759228125.827359, 0.423774, 11.663353, -2.494309, 1.237109, -0.001181, -0.025684, -22.504639, -83.876083, -178.179260, 13.727744, 100.772417
1759228125.847267, 0.203208, 11.796381, -2.532018, 1.437273, 0.076867, -0.134194, -22.751266, -83.813095, -179.051178, 13.727744, 100.772417
1759228125.867361, -0.444124, 11.916690, -3.069516, 1.775230, -0.479669, -0.426556, -22.698822, -83.510300, -178.743729, 13.727744, 100.772417
1759228125.887362, -1.194707, 11.367221, -3.242797, 2.362095, -1.390838, -0.461790, -22.129410, -83.319931, -178.291962, 13.727744, 100.772417
1759228125.907358, -0.308852, 9.497499, -0.750881, 2.686687, -0.752272, -0.187361, -21.789658, -83.089874, -178.610641, 13.727744, 100.772417
1759228125.927366, 0.888997, 8.953865, -0.902464, 2.650184, 0.390853, 0.051180, -21.619995, -82.178619, -177.886093, 13.727744, 100.772417
1759228125.947264, 3.155109, 9.746795, -2.020407, 2.775757, 1.142488, -0.202558, -21.447052, -81.810562, -179.601501, 13.727744, 100.772417
1759228125.967436, 3.359065, 8.152406, -0.121206, 2.641186, 1.503414, 0.091874, -21.598114, -81.058655, -180.470581, 13.727744, 100.772417
1759228125.987363, 2.917784, 8.553435, 2.831293, 2.383073, 2.073375, 0.113377, -22.036880, -80.340500, -182.087311, 13.727744, 100.772417
1759228126.007470, 2.167950, 9.614366, 0.599748, 2.529811, 1.644704, -0.436678, -22.294113, -80.387543, -184.325562, 13.727744, 100.772417
1759228126.027343, -0.069282, 11.677120, -2.351854, 2.822315, 1.672926, -0.437073, -22.628693, -80.154205, -184.540634, 13.727744, 100.772417
1759228126.047261, -1.098789, 12.302905, -3.979462, 2.230970, 2.623521, -0.343600, -22.191238, -80.014236, -186.736832, 13.727744, 100.772417
1759228126.067371, -0.672771, 12.238560, -3.980959, 1.905215, 2.216343, -0.510127, -22.390701, -80.085968, -188.655640, 13.727744, 100.772417
1759228126.087362, 0.551115, 11.190349, -1.869423, 2.023295, 1.795466, -0.711199, -22.394135, -80.206039, -189.777115, 13.727744, 100.772417
1759228126.107471, 2.360982, 9.331401, 0.194080, 2.238612, 2.149792, -0.871006, -22.460114, -80.426437, -191.198914, 13.727744, 100.772417
1759228126.127360, 3.337367, 8.089259, -0.286107, 2.409379, 2.459231, -0.847424, -22.200272, -81.188889, -192.958237, 13.727744, 100.772417
1759228126.147284, 4.442890, 7.130531, -2.473809, 2.352036, 2.691104, -0.720951, -22.023438, -81.465393, -194.489838, 13.727744, 100.772417
1759228126.167355, 4.960187, 6.232705, -4.071340, 2.214299, 2.600346, -0.682186, -21.841553, -82.264801, -196.410080, 13.727744, 100.772417
1759228126.187372, 4.365228, 5.596746, -4.479402, 1.809028, 2.009371, -0.654876, -21.379227, -82.700378, -198.130844, 13.727744, 100.772417
1759228126.207365, 3.882348, 4.652981, -4.444835, 1.434819, 1.678024, -0.619995, -21.116623, -83.275696, -199.597534, 13.727744, 100.772417
1759228126.227359, 3.775656, 4.124312, -4.607491, 1.154124, 1.478779, -0.615841, -20.635284, -83.547775, -199.216888, 13.727744, 100.772417
1759228126.247254, 3.356072, 4.107552, -4.176086, 0.977986, 1.393908, -0.737137, -20.233932, -83.961136, -200.917343, 13.727744, 100.772417
1759228126.267330, 2.137124, 4.095282, -3.826682, 0.722227, 1.606073, -0.732750, -19.587448, -84.004318, -201.660263, 13.727744, 100.772417
1759228126.287361, 1.832163, 4.586093, -2.902521, 0.480983, 1.713749, -0.788608, -19.498337, -84.435211, -202.817215, 13.727744, 100.772417
1759228126.307136, 2.367716, 4.492271, -3.701735, 0.174939, 1.697111, -0.754038, -18.801437, -84.972870, -203.809937, 13.727744, 100.772417
1759228126.327356, 3.211073, 4.944176, -4.509030, -0.095180, 1.595309, -0.685279, -18.196381, -85.089417, -203.297897, 13.727744, 100.772417
1759228126.347299, 4.150049, 5.270236, -5.563975, -0.189425, 1.422240, -0.632032, -17.713501, -85.321320, -204.742996, 13.727744, 100.772417
1759228126.367396, 4.467730, 6.180183, -7.053168, -0.070767, 1.526486, -0.520090, -17.024521, -85.265594, -204.632324, 13.727744, 100.772417
1759228126.387361, 5.073463, 7.721899, -9.624840, 0.119882, 1.826884, -0.369638, -16.567245, -85.259018, -204.855576, 13.727744, 100.772417
1759228126.407406, 6.549788, 8.626309, -10.521918, 0.024064, 2.614419, -0.410243, -15.539017, -85.550537, -206.181320, 13.727744, 100.772417
1759228126.427355, 6.561908, 7.919121, -8.601469, -0.086868, 2.824071, -0.538171, -13.973953, -85.271942, -207.134964, 13.727744, 100.772417
1759228126.447318, 5.150077, 6.586299, -8.223185, -0.055619, 1.559140, -0.596673, -12.859497, -85.154831, -207.404388, 13.727744, 100.772417
1759228126.467398, 4.705055, 6.064812, -6.319346, 0.221476, 0.817807, -0.598646, -12.334763, -85.119263, -207.871796, 13.727744, 100.772417
1759228126.487362, 5.200954, 7.685387, -7.361272, 0.448042, 0.638827, -0.687266, -12.049316, -85.592346, -208.074738, 13.727744, 100.772417
1759228126.507366, 6.628347, 9.651925, -9.381380, 0.437112, 0.345360, -0.707820, -11.715759, -85.498871, -208.123398, 13.727744, 100.772417
1759228126.527354, 9.850494, 17.617134, -10.410737, 0.199147, 0.108680, 0.034391, -11.185654, -85.333038, -207.769562, 13.727744, 100.772417
1759228126.547241, 9.929951, 26.749966, -6.294207, 1.733764, 0.077694, 0.291386, -10.391327, -85.527985, -208.830688, 13.727744, 100.772417
1759228126.567399, 2.466477, 13.231855, -7.283161, 1.108180, 0.458416, 0.015621, -9.442337, -85.954437, -209.231766, 13.727744, 100.772417
1759228126.587367, -2.391957, -1.033846, 3.777152, -0.638251, 0.947530, 0.574789, -8.742432, -86.115723, -209.093643, 13.727744, 100.772417
1759228126.607466, -0.172233, -2.777424, 5.135862, -2.105836, -0.191742, 0.257222, -8.223419, -85.388565, -209.622787, 13.727744, 100.772417
1759228126.627362, 1.701978, 1.158794, -2.046743, -3.329743, -3.887256, 0.256556, -9.033401, -84.326584, -208.181915, 13.727744, 100.772417
1759228126.647256, 2.242918, 6.713940, -0.872836, -4.566821, -5.547294, 0.432328, -10.735458, -82.533768, -206.434753, 13.727744, 100.772417
1759228126.667354, 5.660791, 9.979182, 2.868703, -5.065112, -5.173153, 0.138942, -12.292480, -81.080246, -203.374252, 13.727744, 100.772417
1759228126.687363, 7.066037, 16.249896, 3.382408, -3.495859, -4.594063, -0.516106, -13.823837, -80.187256, -200.740906, 13.727744, 100.772417
1759228126.707439, 3.675997, 16.656910, 3.695899, -1.153488, -2.970730, -0.669740, -14.866150, -80.075623, -199.205048, 13.727744, 100.772417
1759228126.727360, -0.380379, 15.320048, 0.072125, -0.248882, 0.151484, -0.824805, -15.024338, -79.985657, -198.272446, 13.727744, 100.772417
1759228126.747236, -2.114230, 9.971700, -3.883994, -0.821881, 2.814118, -0.938604, -14.719238, -80.350967, -199.861664, 13.727744, 100.772417
1759228126.767148, -1.894711, 6.018724, -4.093486, -0.989678, 2.900158, -0.639126, -13.931396, -80.328156, -200.324005, 13.727744, 100.772417
1759228126.787326, -0.865055, 6.999449, -1.777545, -0.876843, 2.642938, -0.510321, -13.189056, -80.115494, -201.127991, 13.727744, 100.772417
1759228126.807484, 0.205901, 9.271995, -0.110133, -0.734838, 2.711844, -0.804901, -12.547562, -80.027710, -202.483261, 13.727744, 100.772417
1759228126.827049, -0.150236, 10.228628, 0.218471, -0.638807, 2.587745, -1.038462, -11.950317, -79.939697, -202.274231, 13.727744, 100.772417
1759228126.847274, -0.558597, 9.255535, -0.294038, -0.570732, 2.156359, -0.841947, -11.156281, -80.249405, -203.574829, 13.727744, 100.772417
1759228126.867398, 0.400580, 9.373898, -0.867000, -0.575139, 1.586800, -0.688696, -10.579803, -79.915985, -203.782822, 13.727744, 100.772417
1759228126.887363, 1.435773, 9.503484, -0.960673, -0.633512, 1.211966, -0.619039, -10.783936, -79.775497, -203.849762, 13.727744, 100.772417
1759228126.907403, 2.293196, 10.406996, -0.504728, -0.678559, 1.285912, -0.755264, -9.971893, -79.428696, -204.616302, 13.727744, 100.772417
1759228126.927396, 2.490269, 10.895563, -0.725742, -0.801957, 0.967013, -0.745881, -9.524582, -79.525864, -204.324554, 13.727744, 100.772417
1759228126.947287, 2.943671, 10.508450, -0.868197, -0.655940, 0.747592, -0.730976, -9.755081, -79.236374, -204.657532, 13.727744, 100.772417
1759228126.966444, 2.056769, 9.312098, -0.155025, -0.330883, 1.201460, -0.918885, -9.229874, -79.171844, -204.525513, 13.727744, 100.772417
1759228126.987364, 1.003919, 8.729110, -0.076465, -0.212932, 0.941997, -1.111993, -9.024765, -79.148331, -204.594864, 13.727744, 100.772417
1759228127.007417, 0.362273, 8.776545, -0.578349, -0.401595, -0.102747, -0.902090, -9.034988, -79.446594, -204.792480, 13.727744, 100.772417
1759228127.027231, 1.037587, 9.005041, -0.756717, -0.659825, -0.409862, -0.662539, -9.328018, -79.366257, -204.232590, 13.727744, 100.772417
1759228127.047281, 2.049736, 8.768315, 0.223858, -0.776759, 0.749773, -0.818247, -9.461807, -79.025055, -204.450928, 13.727744, 100.772417
1759228127.067334, 0.995838, 8.674791, -0.716016, -1.125340, 1.262214, -0.856401, -9.044266, -78.793533, -204.697800, 13.727744, 100.772417
1759228127.087363, 0.354491, 8.190265, -2.309806, -2.246257, 0.801571, -0.666519, -9.087738, -78.154907, -204.289520, 13.727744, 100.772417
1759228127.107411, 1.039084, 8.308628, -1.307384, -2.229338, 0.928536, -0.312840, -8.860687, -77.639618, -203.585480, 13.727744, 100.772417
1759228127.127359, 0.750732, 9.022848, -0.607080, -1.314659, 0.287969, -0.074044, -8.563965, -76.950073, -203.235138, 13.727744, 100.772417
1759228127.147271, -0.444274, 9.553463, -1.668010, -0.879039, -0.563692, -0.029840, -8.255844, -76.826416, -203.087280, 13.727744, 100.772417
1759228127.167365, -1.564162, 9.145252, -2.026841, -0.966354, -0.817777, 0.022081, -8.511169, -76.137939, -202.731094, 13.727744, 100.772417
1759228127.187368, -1.783231, 8.885032, 0.124199, -0.736971, -0.448246, 0.072859, -8.456314, -75.873260, -201.215759, 13.727744, 100.772417
1759228127.207470, -1.632546, 8.442703, 1.528548, -0.437761, 0.081967, 0.188081, -8.227036, -75.437088, -201.558929, 13.727744, 100.772417
1759228127.227380, -0.856825, 9.402329, 1.122881, -0.253218, 0.053859, 0.124455, -7.799820, -75.411484, -201.157471, 13.727744, 100.772417
1759228127.247240, -0.507720, 10.277859, 1.062577, -0.266013, -0.326938, -0.036151, -7.541595, -74.887589, -201.724792, 13.727744, 100.772417
1759228127.267355, -0.432602, 10.305542, 1.961450, -0.502280, -0.778294, -0.190060, -7.633560, -74.311935, -200.360184, 13.727744, 100.772417
1759228127.287362, -0.471957, 10.761039, 3.982156, -0.933431, -0.731836, -0.389677, -7.635208, -73.991013, -199.348007, 13.727744, 100.772417
1759228127.306945, -0.780210, 12.762741, 6.605752, -1.136304, 0.060369, -0.465130, -7.610092, -73.813766, -199.220749, 13.727744, 100.772417
1759228127.326901, -0.984167, 17.561469, 8.285733, -0.886839, 1.281262, -0.584005, -7.597687, -73.159637, -198.951828, 13.727744, 100.772417
1759228127.347309, -0.760159, 20.483143, 6.590190, -0.330895, 2.429893, -0.813736, -7.470764, -73.370605, -199.584061, 13.727744, 100.772417
1759228127.367382, -1.137545, 17.203237, 1.256357, 0.750784, 3.145050, -0.351249, -7.752014, -72.979172, -200.233887, 13.727744, 100.772417
1759228127.387086, -1.956212, 13.408577, -5.845144, 1.308818, 2.216888, 0.726028, -6.252243, -72.873764, -201.276505, 13.727744, 100.772417
1759228127.407444, -0.574908, 12.817209, -7.364115, 1.450363, 0.671091, 1.330108, -5.156555, -72.602463, -202.297379, 13.727744, 100.772417
1759228127.427346, 0.275034, 13.210756, -2.808399, 2.131284, -0.551477, 1.202583, -4.958008, -72.287476, -202.864670, 13.727744, 100.772417
1759228127.447283, 0.042347, 14.705785, 2.717569, 3.050521, -0.210653, 0.910695, -4.393158, -72.767609, -204.699722, 13.727744, 100.772417
1759228127.467398, -0.353444, 16.906356, 4.904821, 3.502735, 0.667987, 1.281813, -3.626877, -73.382019, -205.689316, 13.727744, 100.772417
1759228127.487393, -0.185700, 15.352818, 4.616919, 3.555477, 1.509641, 1.756332, -2.509064, -73.407593, -207.701935, 13.727744, 100.772417
1759228127.507465, 0.434548, 13.579463, 2.210896, 3.761084, 1.079064, 1.810258, -1.290726, -74.469452, -210.106842, 13.727744, 100.772417
1759228127.527357, -0.411354, 12.931981, -1.417367, 4.867127, -0.869824, 1.564650, -1.022964, -76.311111, -211.584946, 13.727744, 100.772417
1759228127.547263, -0.406715, 13.641862, -4.677821, 5.401435, -3.872183, 1.668990, -1.715790, -78.557083, -213.727127, 13.727744, 100.772417
1759228127.567408, 2.610578, 12.706028, -3.366248, 5.237258, -4.414625, 1.420119, -3.982101, -80.773453, -214.690582, 13.727744, 100.772417
1759228127.587428, 5.656601, 9.754426, -1.783381, 4.030264, -2.792324, 0.682072, -5.592636, -83.261322, -214.510101, 13.727744, 100.772417
1759228127.607475, 5.547216, 7.385663, 2.298434, 2.978937, -0.838702, -0.153247, -6.385757, -84.955734, -215.601913, 13.727744, 100.772417
1759228127.626998, 2.881871, 6.020370, 3.916166, 2.194088, 0.162833, -0.876816, -7.102112, -86.573105, -215.241776, 13.727744, 100.772417
1759228127.647207, 0.223858, 8.308478, 1.232715, 2.801205, -0.652000, -2.623945, -7.487091, -88.873535, -216.601349, 13.727744, 100.772417
1759228127.667413, -2.538452, 9.023746, 1.524957, 4.207336, -0.073651, -3.280280, -7.983795, -91.818802, -216.682938, 13.727744, 100.772417
1759228127.687144, -3.146280, 5.018995, 5.086332, 5.168851, 3.684240, -1.895463, -6.542801, -94.964386, -217.346405, 13.727744, 100.772417
1759228127.707412, -0.267702, 3.756652, -0.620697, 5.033089, 3.105638, -0.464993, -4.285477, -98.318588, -217.695389, 13.727744, 100.772417
1759228127.727377, 2.023100, 4.625448, -2.228104, 3.811197, 1.079330, 0.011915, -3.865509, -100.433365, -216.830841, 13.727744, 100.772417
1759228127.747244, 4.406079, 4.020613, 0.837522, 3.161202, 0.933681, -0.443113, -3.381302, -102.566681, -217.619705, 13.727744, 100.772417
1759228127.767408, 6.617124, 2.061108, 0.081852, 3.043332, 1.239871, -0.625170, -2.607437, -104.593185, -216.558243, 13.727744, 100.772417
1759228127.787379, 7.325958, 0.090830, -3.831172, 2.220096, 1.500645, -0.721279, -1.852722, -105.874969, -215.908005, 13.727744, 100.772417
1759228127.807469, 4.221875, -2.045396, -9.673473, 0.353429, 0.723328, -0.703055, -0.848480, -106.607361, -216.183823, 13.727744, 100.772417
1759228127.826604, 0.929848, -2.885911, -10.064775, -1.290495, -0.211968, -0.606874, -0.999176, -105.948853, -215.819870, 13.727744, 100.772417
1759228127.847209, -0.582390, -2.786402, -9.631125, -2.612629, -0.524551, -0.461964, -0.678711, -105.249054, -217.377975, 13.727744, 100.772417
1759228127.867407, -1.013047, -2.420987, -9.828347, -3.893872, 0.029635, -0.156326, -0.695282, -103.211823, -218.496719, 13.727744, 100.772417
