SamplingTime, AccelerationX, AccelerationY, AccelerationZ, GyroX, GyroY, GyroZ, MagneticFieldX, MagneticFieldY, MagneticFieldZ, Latitude, Longitude
1759228107.125207, 1.227926, -2.421585, -9.176676, -0.241533, -0.002224, -0.081267, -60.523453, -204.218048, -885.803284, , 
1759228107.144305, 0.901567, -2.764854, -9.423278, -0.069130, -0.175312, -0.139256, -60.443161, -203.908295, -886.121643, 13.727691, 100.772436
1759228107.165215, 0.745345, -2.853290, -9.764602, 0.117356, -0.243653, -0.257702, -60.463394, -203.512283, -886.106079, 13.727691, 100.772436
1759228107.185234, 0.799514, -2.744653, -9.849596, 0.244990, -0.187155, -0.314478, -60.333389, -203.433945, -886.601379, 13.727691, 100.772436
1759228107.205226, 0.944961, -2.571073, -9.563489, 0.280308, -0.102789, -0.301429, -60.349060, -203.262497, -886.476440, 13.727691, 100.772436
1759228107.225203, 1.163432, -2.359635, -9.303718, 0.223740, 0.056069, -0.218691, -60.290741, -203.011307, -886.534668, 13.727691, 100.772436
1759228107.244514, 1.561019, -1.981352, -9.164705, 0.098097, 0.406096, 0.027187, -60.398514, -202.931274, -886.088013, 13.727691, 100.772436
1759228107.265217, 1.739388, -1.636138, -9.056517, -0.138800, 0.886043, 0.417719, -60.380966, -203.096954, -885.586853, 13.727691, 100.772436
1759228107.285281, 1.626561, -1.812560, -8.629900, -0.424092, 1.235186, 0.738688, -60.285080, -203.796936, -884.601257, 13.727691, 100.772436
1759228107.305227, 1.501913, -2.207903, -8.560618, -0.617028, 1.463747, 0.865345, -60.391693, -204.412964, -883.324890, 13.727691, 100.772436
1759228107.325230, 1.638083, -2.246360, -8.907328, -0.732709, 1.817723, 0.836891, -60.433762, -205.329208, -882.336182, 13.727691, 100.772436
1759228107.345194, 1.720683, -2.426224, -8.430134, -0.852970, 2.054922, 0.734687, -60.557144, -205.924332, -880.658813, 13.727691, 100.772436
1759228107.365225, 2.067543, -2.538003, -7.940071, -0.932655, 2.079344, 0.683737, -60.585388, -206.435669, -879.225769, 13.727691, 100.772436
1759228107.385221, 2.438045, -2.680608, -7.942614, -0.790912, 1.748215, 0.607834, -60.770035, -207.124863, -877.822693, 13.727691, 100.772436
1759228107.405226, 2.737171, -2.563442, -8.469189, -0.357162, 1.173468, 0.447178, -60.927856, -207.388336, -876.710327, 13.727691, 100.772436
1759228107.425243, 2.355894, -3.312378, -9.419986, 0.237577, 0.589518, 0.005446, -61.147263, -207.461472, -876.216919, 13.727691, 100.772436
1759228107.445193, 2.390161, -3.625420, -10.147524, 0.847195, -0.006685, -0.560925, -60.821365, -207.140335, -876.071350, 13.727691, 100.772436
1759228107.465264, 2.614169, -3.636942, -9.790788, 1.101725, -0.461226, -1.074523, -60.666214, -206.048096, -876.012878, 13.727691, 100.772436
1759228107.485214, 3.074903, -3.170970, -8.932916, 0.952453, -0.720526, -1.365404, -60.141388, -204.872925, -876.681213, 13.727691, 100.772436
1759228107.505229, 3.350685, -2.751087, -9.089138, 0.667430, -0.749895, -1.455986, -59.866013, -203.552948, -877.075378, 13.727691, 100.772436
1759228107.524812, 3.558382, -2.461239, -9.041852, 0.314419, -1.033961, -1.426167, -59.656097, -202.155746, -877.826172, 13.727691, 100.772436
1759228107.545199, 3.115605, -2.380136, -9.626636, 0.166755, -1.259354, -1.441813, -59.121582, -201.031677, -879.304932, 13.727691, 100.772436
1759228107.565208, 1.807323, -2.082656, -10.538079, 0.347491, -1.177616, -1.578018, -58.934021, -199.471420, -880.243103, 13.727691, 100.772436
1759228107.585195, 1.900398, -1.673996, -10.270078, 0.629065, -0.895134, -1.792127, -58.819839, -198.045517, -881.221375, 13.727691, 100.772436
1759228107.605196, 2.810194, -1.103727, -10.116699, 0.881667, -0.662094, -1.799430, -58.891312, -196.165283, -882.092041, 13.727691, 100.772436
1759228107.625224, 3.403807, -0.753725, -10.914716, 1.227658, -0.462351, -1.539819, -59.048691, -194.848404, -882.375977, 13.727691, 100.772436
1759228107.645190, 3.078494, -0.360926, -11.016320, 1.571527, -0.098671, -1.246281, -59.086472, -193.784027, -882.273438, 13.727691, 100.772436
1759228107.665201, 2.978686, 0.188992, -10.140043, 1.519284, 0.746613, -0.856609, -59.024033, -192.949188, -881.795654, 13.727691, 100.772436
1759228107.685203, 4.537910, 1.363348, -9.076568, 0.630158, 1.377096, 0.256842, -59.141800, -193.109207, -880.576538, 13.727691, 100.772436
1759228107.705194, 5.546767, 3.126378, -8.787468, -0.613411, 3.209660, 1.963396, -59.173035, -194.937515, -878.044189, 13.727691, 100.772436
1759228107.725203, 4.492420, -0.822109, -9.261969, -1.078094, 5.023130, 2.440215, -59.545380, -197.132095, -873.668396, 13.727691, 100.772436
1759228107.744389, 3.876512, -5.378724, -9.502287, 0.378633, 4.082074, 0.937143, -60.431747, -197.991074, -870.212830, 13.727691, 100.772436
1759228107.765199, 4.669142, -5.954230, -4.884022, 1.650326, 1.186748, -0.013844, -60.495193, -197.861908, -869.182068, 13.727691, 100.772436
1759228107.785218, 4.045602, -3.393033, -3.132214, 1.781346, -0.549292, -0.814685, -60.431122, -196.860397, -869.755371, 13.727691, 100.772436
1759228107.805208, 5.750423, -3.386598, -2.621501, 1.585046, -1.830695, -1.005916, -60.215714, -195.491806, -871.337463, 13.727691, 100.772436
1759228107.825204, 6.455366, -4.240879, -5.232528, 1.253872, -3.047694, -1.033414, -59.852722, -194.488373, -874.085388, 13.727691, 100.772436
1759228107.845199, 5.563376, -2.446724, -6.927174, 1.270202, -3.656203, -1.130168, -59.549622, -193.446060, -877.266602, 13.727691, 100.772436
1759228107.865252, 5.644330, -1.029207, -6.515521, 1.785054, -4.818196, -1.175497, -59.658249, -192.449326, -881.960388, 13.727691, 100.772436
1759228107.885234, 5.400122, -1.495777, -5.194969, 2.366993, -7.161353, -0.947873, -60.557053, -191.927536, -888.599487, 13.727691, 100.772436
1759228107.905217, 2.641852, -2.851943, -2.379986, 2.243141, -10.547130, -1.342790, -63.721924, -191.377533, -897.896729, 13.727691, 100.772436
1759228107.925223, 0.292691, -2.007538, -11.524939, -0.215758, -8.997618, -1.954307, -68.196518, -189.727356, -905.070618, 13.727691, 100.772436
1759228107.945202, 3.651906, 2.022352, -9.135076, -1.676111, -4.142809, -0.309325, -70.383728, -188.579788, -908.117981, 13.727691, 100.772436
1759228107.965202, 3.948487, -0.862661, -8.346337, -2.020812, -1.476400, 1.123751, -71.365051, -188.285202, -909.037598, 13.727691, 100.772436
1759228107.985047, 2.752434, 2.111985, -6.602011, -1.879981, -1.011827, 2.241423, -71.413910, -188.892990, -909.302002, 13.727691, 100.772436
1759228108.004337, 1.107917, 3.412934, -6.867767, -2.119142, -1.614311, 2.635746, -71.591446, -189.334671, -909.860229, 13.727691, 100.772436
1759228108.025217, -4.490176, -2.383577, -7.049727, -1.942329, -3.803200, 1.178542, -74.963943, -188.897766, -913.589844, 13.727691, 100.772436
1759228108.044397, -5.932233, -0.960374, -7.652766, -1.012527, -5.092831, -0.012859, -76.594650, -188.650970, -914.545776, 13.727691, 100.772436
1759228108.065197, -6.392369, 0.739509, -5.832275, -1.066373, -5.666177, -0.619471, -83.041916, -186.895065, -918.930420, 13.727691, 100.772436
1759228108.085237, -5.286248, 1.447893, -4.523694, -1.617310, -5.740142, -0.772698, -87.980011, -185.327911, -921.228027, 13.727691, 100.772436
1759228108.105242, -5.174019, 3.308338, -3.534590, -2.453163, -5.793822, -0.425808, -93.181992, -182.872116, -922.597656, 13.727691, 100.772436
1759228108.125201, -7.438336, 4.227562, -4.037522, -3.308840, -5.602549, 0.146407, -97.943390, -180.154663, -922.994995, 13.727691, 100.772436
1759228108.145200, -9.277681, 4.974403, -5.699547, -4.003001, -4.916102, 0.468747, -102.302780, -176.429031, -922.210815, 13.727691, 100.772436
1759228108.165197, -9.165154, 6.310218, -5.386505, -4.567989, -3.797070, 0.717301, -105.231094, -172.476227, -920.921814, 13.727691, 100.772436
1759228108.185191, -9.166500, 6.788908, -6.098032, -4.822861, -3.133655, 1.104189, -106.356033, -170.468384, -920.056274, 13.727691, 100.772436
1759228108.205209, -11.680262, 6.390723, -8.131457, -4.452149, -3.378512, 1.002914, -108.445984, -166.549820, -917.542114, 13.727691, 100.772436
1759228108.225213, -12.221651, 6.193650, -10.380959, -3.357087, -3.430374, 0.510477, -111.052048, -163.429993, -915.294189, 13.727691, 100.772436
1759228108.245194, -9.860669, 6.400599, -9.220669, -2.491391, -3.249750, 0.502485, -113.278534, -161.381851, -913.255127, 13.727691, 100.772436
1759228108.265221, -8.749909, 5.883751, -7.637653, -2.194389, -3.166787, 0.966404, -115.106873, -159.424042, -911.275818, 13.727691, 100.772436
1759228108.285200, -9.890896, 5.839159, -8.583213, -2.029530, -3.073828, 1.410574, -116.108124, -157.956970, -908.698608, 13.727691, 100.772436
1759228108.305202, -11.142315, 4.801422, -10.489147, -1.749760, -2.416085, 1.736644, -116.698212, -156.463074, -906.850830, 13.727691, 100.772436
1759228108.325212, -11.372308, 3.609558, -10.145130, -1.471925, -1.684208, 1.766775, -116.200195, -154.914520, -905.561157, 13.727691, 100.772436
1759228108.344345, -10.905888, 3.658939, -7.045387, -1.528648, -1.880721, 1.697717, -116.176514, -153.703644, -903.889038, 13.727691, 100.772436
1759228108.365212, -10.892570, 3.759495, -5.644330, -1.565119, -1.906035, 1.707451, -115.553802, -152.448959, -902.782593, 13.727691, 100.772436
1759228108.384229, -11.297639, 3.147926, -3.696198, -1.284216, -1.630677, 1.793286, -114.766876, -151.284744, -901.167114, 13.727691, 100.772436
1759228108.405216, -11.230003, 2.768894, -2.849549, -1.014284, -0.999947, 1.940090, -113.733566, -150.258514, -900.132263, 13.727691, 100.772436
1759228108.425208, -12.083536, 3.966444, -1.771111, -0.974518, -0.458541, 2.439007, -111.870880, -149.839966, -899.729065, 13.727691, 100.772436
1759228108.445191, -12.450597, 3.517382, -1.661426, -0.989930, -0.035631, 2.744762, -109.407822, -148.788788, -898.748108, 13.727691, 100.772436
1759228108.465202, -13.060370, 2.690933, -1.357812, -0.761948, 0.637060, 2.666077, -107.029007, -148.092056, -898.093689, 13.727691, 100.772436
1759228108.485195, -12.810176, 2.602348, -0.922366, -0.266763, 1.510663, 2.467047, -103.980637, -147.898895, -897.759521, 13.727691, 100.772436
1759228108.505221, -12.902353, 3.327791, -0.665887, 0.312049, 1.947302, 2.195748, -101.112976, -148.045532, -898.223267, 13.727691, 100.772436
1759228108.525210, -13.810054, 3.178752, 1.226131, 1.023098, 1.407913, 1.577597, -98.787231, -148.518219, -899.020386, 13.727691, 100.772436
1759228108.544530, -14.393043, 2.303072, 3.309685, 1.601546, -0.394325, 0.162475, -98.523575, -149.257690, -900.115479, 13.727691, 100.772436
1759228108.565219, -12.697948, 3.787477, 2.798074, 1.556491, -1.333782, -0.771776, -99.656845, -149.794128, -901.853271, 13.727691, 100.772436
1759228108.584956, -10.659584, 4.849306, 1.845780, 1.241042, -1.211474, -1.133028, -101.116394, -150.147934, -902.925171, 13.727691, 100.772436
1759228108.605251, -8.628703, 5.171326, 2.555960, 0.813298, -0.871857, -1.111309, -102.569534, -150.478973, -903.521729, 13.727691, 100.772436
1759228108.625133, -7.492953, 5.790377, 2.116025, 0.384003, -0.568932, -0.944257, -103.638809, -150.747742, -904.290405, 13.727691, 100.772436
1759228108.645184, -7.703793, 6.109404, 1.449539, 0.265911, -0.438158, -0.852383, -104.740067, -150.809280, -904.287476, 13.727691, 100.772436
1759228108.665225, -8.217050, 7.061997, 0.833033, 0.375885, -0.210444, -0.750942, -105.373383, -151.085159, -904.771606, 13.727691, 100.772436
1759228108.685191, -8.379556, 6.728754, 1.057339, 0.383264, 0.332547, -0.548261, -105.860748, -151.209579, -905.197205, 13.727691, 100.772436
1759228108.705211, -7.736713, 5.263353, 2.210447, 0.078346, 0.918909, -0.506127, -105.649948, -151.454041, -905.357422, 13.727691, 100.772436
1759228108.724329, -7.548170, 5.749975, 1.394323, -0.264253, 1.407885, -0.475716, -105.438141, -151.428162, -905.160461, 13.727691, 100.772436
1759228108.744240, -8.895806, 5.560533, 0.485125, -0.239982, 1.758942, -0.793043, -104.926315, -151.585449, -904.882690, 13.727691, 100.772436
1759228108.765214, -9.601048, 4.903175, -1.055244, 0.410742, 1.864400, -1.399338, -105.126602, -151.604721, -904.987488, 13.727691, 100.772436
1759228108.785185, -8.700828, 4.692037, -0.602740, 0.845330, 1.882395, -1.237455, -105.080383, -151.982559, -905.783081, 13.727691, 100.772436
1759228108.805220, -8.230667, 4.228010, 0.395343, 0.808916, 1.904608, -0.742225, -104.676346, -152.842514, -906.461426, 13.727691, 100.772436
1759228108.824223, -8.442105, 4.089745, 0.158765, 0.476058, 1.654840, -0.445843, -103.810989, -152.800354, -906.611084, 13.727691, 100.772436
1759228108.845186, -8.772804, 3.421763, -0.206799, -0.026364, 2.076175, -0.403160, -103.218033, -152.829712, -906.446350, 13.727691, 100.772436
1759228108.865211, -8.574085, 3.454234, -1.021127, -0.394444, 2.528430, -0.469103, -102.062012, -152.503281, -906.026794, 13.727691, 100.772436
1759228108.885183, -8.001721, 4.196437, -1.190068, -0.718646, 2.672906, -0.340417, -101.095444, -151.967163, -905.434937, 13.727691, 100.772436
1759228108.905204, -7.213281, 4.720617, -2.958934, -0.842147, 2.578295, -0.069975, -99.854828, -151.661865, -904.598511, 13.727691, 100.772436
1759228108.924212, -6.600066, 4.951957, -4.088548, -0.533238, 2.351359, 0.143517, -98.430481, -151.277512, -903.599854, 13.727691, 100.772436
1759228108.945185, -6.531981, 5.336975, -5.274726, -0.079712, 1.472160, 0.255094, -97.463287, -151.257309, -903.342468, 13.727691, 100.772436
1759228108.965208, -5.573253, 6.019023, -7.568221, 0.761425, 0.219411, 0.538613, -96.836533, -151.745956, -903.824280, 13.727691, 100.772436
1759228108.985177, -6.035932, 5.023185, -5.563676, 1.710143, -1.149637, 0.726740, -96.830627, -152.987000, -905.439026, 13.727691, 100.772436
1759228109.005211, -7.629124, 4.146907, -7.462128, 2.105484, -2.081415, 0.466327, -97.877060, -154.015076, -907.233337, 13.727691, 100.772436
1759228109.024228, -5.847389, 4.453365, -4.388572, 2.304053, -2.207138, 0.840857, -98.409775, -155.731750, -909.402649, 13.727691, 100.772436
1759228109.045181, -7.314436, 2.623297, -0.678008, 1.579752, -2.291311, 0.909315, -99.118286, -156.911987, -910.981750, 13.727691, 100.772436
1759228109.065210, -8.378958, 0.775272, 2.253243, 0.571873, -2.783995, 0.639802, -100.631165, -157.539780, -911.669678, 13.727691, 100.772436
1759228109.085129, -8.741829, 3.173365, -1.171513, 0.254223, -2.442121, 0.669439, -101.584412, -157.309433, -911.815125, 13.727691, 100.772436
1759228109.105209, -7.398233, 4.176834, -1.947833, 0.384657, -1.632740, 1.256662, -101.916382, -157.913925, -912.057373, 13.727691, 100.772436
1759228109.125208, -7.182455, 3.399168, -1.757943, 0.027946, -1.048584, 1.353047, -101.790085, -157.981339, -912.473145, 13.727691, 100.772436
1759228109.145180, -6.924929, 4.542698, -2.270601, -0.125514, -0.955720, 1.268011, -101.729889, -157.767120, -912.410217, 13.727691, 100.772436
1759228109.165204, -6.114941, 5.588516, -2.610278, -0.062536, -1.394663, 1.427814, -101.469101, -157.932312, -912.485107, 13.727691, 100.772436
1759228109.185181, -8.174553, 6.077232, -2.639158, 0.088582, -1.718976, 1.348163, -101.718552, -158.031570, -912.886597, 13.727691, 100.772436
1759228109.205216, -8.163031, 6.364536, -0.500987, -0.132369, -1.244454, 1.294183, -101.633072, -157.962723, -912.669800, 13.727691, 100.772436
1759228109.224250, -7.298424, 5.866842, 0.479888, -0.677833, -0.056149, 1.617718, -100.857422, -157.455322, -912.101807, 13.727691, 100.772436
1759228109.244708, -6.867019, 6.222979, -0.891990, -0.372951, 0.068424, 1.659762, -99.639374, -157.325348, -911.778442, 13.727691, 100.772436
1759228109.265188, -4.941333, 7.063045, 1.586159, -0.185307, -0.089799, 1.733579, -98.890930, -157.071091, -911.467896, 13.727691, 100.772436
1759228109.285197, -4.421342, 6.729502, 2.476802, -1.226268, -0.231583, 2.148383, -97.226852, -156.526886, -910.458374, 13.727691, 100.772436
1759228109.305210, -7.795670, 10.314520, -7.328202, -0.579823, -0.487337, 2.271833, -96.231049, -156.521957, -910.406189, 13.727691, 100.772436
1759228109.324293, -7.833229, 7.322815, -4.226963, -0.538202, 0.410247, 1.679194, -94.448898, -156.339645, -909.664307, 13.727691, 100.772436
1759228109.345179, -4.630087, 7.679701, -1.831864, -1.456876, 2.343731, 1.741508, -91.321335, -155.998199, -907.975708, 13.727691, 100.772436
1759228109.365202, -6.574328, 6.853552, 0.376339, -1.723951, 2.780596, 1.683562, -88.952515, -155.664993, -905.747314, 13.727691, 100.772436
1759228109.385182, -3.748572, 5.670517, 3.262549, -1.344347, 1.595669, 1.147163, -87.263596, -155.289413, -904.498169, 13.727691, 100.772436
1759228109.405219, -3.646369, 5.342960, -0.157718, -0.788993, -0.620045, 0.939580, -87.343613, -155.087860, -904.323608, 13.727691, 100.772436
1759228109.424319, -6.898892, 4.146757, -1.024120, -0.527991, -0.338351, 0.856480, -86.802002, -155.070190, -903.839905, 13.727691, 100.772436
1759228109.445180, -5.276372, 7.033267, -2.265064, -0.961816, 0.530846, 1.316392, -85.216278, -155.119659, -903.134888, 13.727691, 100.772436
1759228109.465216, -5.758354, 8.386140, -1.701230, -1.162859, 0.902341, 1.529714, -83.470261, -155.178574, -901.819153, 13.727691, 100.772436
1759228109.485185, -4.139874, 12.972533, 0.156521, -1.427721, 0.345480, 1.483759, -82.139954, -155.243439, -900.759949, 13.727691, 100.772436
1759228109.505262, -6.305280, 11.286416, -1.832462, -1.311238, -0.357254, 1.255599, -81.319061, -155.405151, -900.301270, 13.727691, 100.772436
1759228109.525009, -3.127725, 14.596849, 1.069011, -1.243046, -0.266954, 0.690708, -81.087662, -155.248428, -899.506409, 13.727691, 100.772436
1759228109.545178, -4.266018, 10.964097, 1.998560, -1.193081, -0.912784, 1.522109, -80.229218, -155.718994, -899.305908, 13.727691, 100.772436
1759228109.565202, -7.160459, 11.506683, -0.881216, -0.850288, -1.030395, 1.184795, -80.373047, -155.463425, -899.027588, 13.727691, 100.772436
1759228109.585180, -6.469731, 10.102035, -0.035464, -0.691890, -0.465132, 0.091698, -80.417694, -155.177917, -899.012451, 13.727691, 100.772436
1759228109.605190, -4.339341, 8.544756, 1.017685, -0.554514, 0.309496, -1.004080, -81.835251, -154.070511, -897.860901, 13.727691, 100.772436
1759228109.625185, -1.004218, 5.090522, 0.500687, -0.722865, -0.490716, 0.009085, -81.536072, -154.181732, -897.821350, 13.727691, 100.772436
1759228109.644730, -2.249502, 8.602367, 0.853383, -0.259678, -1.116382, 0.817208, -81.224594, -154.446579, -897.952271, 13.727691, 100.772436
1759228109.665209, -2.422932, 10.454880, 1.142483, 0.181138, -0.916201, 1.780422, -80.611481, -155.319305, -898.770874, 13.727691, 100.772436
1759228109.685180, -3.757999, 5.922806, 2.304569, 0.164072, -0.503517, 2.054380, -79.360992, -156.499680, -898.711426, 13.727691, 100.772436
1759228109.704734, -4.368371, 7.709479, -0.187047, 0.520998, 0.165530, -0.637241, -78.830521, -156.825256, -899.416077, 13.727691, 100.772436
1759228109.724381, -1.285686, 10.099940, -1.127669, 0.617901, 0.290691, -3.397970, -80.859116, -155.497131, -899.645020, 13.727691, 100.772436
1759228109.745178, -0.464325, 13.593978, 3.705925, -0.459232, -2.242719, -3.339624, -84.671341, -153.812790, -900.254639, 13.727691, 100.772436
1759228109.765198, -6.558467, 4.238036, -3.086126, 0.218873, -2.951514, -1.409188, -87.453293, -153.012558, -901.266907, 13.727691, 100.772436
1759228109.784868, -5.502324, 6.213851, 3.692757, 1.219409, -1.636801, -0.241726, -88.098892, -153.552963, -902.655640, 13.727691, 100.772436
1759228109.805214, -8.613140, -0.537498, 4.109348, 0.679346, -2.181131, -0.913282, -90.116867, -153.606476, -904.015320, 13.727691, 100.772436
1759228109.824211, -4.045602, 6.960393, 0.561889, 0.547281, -1.674258, -1.101668, -91.753906, -153.443176, -904.940125, 13.727691, 100.772436
1759228109.844768, 0.827346, 13.376554, -0.377985, 0.687770, -0.729625, -0.208994, -92.346222, -153.664291, -905.826233, 13.727691, 100.772436
1759228109.865208, 0.488417, 11.985523, 0.587627, 0.732689, 0.010466, 0.735774, -91.820786, -154.384720, -906.231873, 13.727691, 100.772436
1759228109.885177, -4.415357, 10.487950, 3.025373, 0.560861, -0.376497, 1.168126, -90.794220, -155.202637, -907.161804, 13.727691, 100.772436
1759228109.905202, -4.893150, 10.151116, 1.870320, 0.337516, -0.306768, 1.127956, -90.404434, -155.786865, -907.375122, 13.727691, 100.772436
1759228109.924238, -3.749170, 8.388834, 1.664269, 0.338392, 0.022817, 1.148098, -89.807175, -156.173996, -907.551392, 13.727691, 100.772436
1759228109.944746, -1.718887, 7.350349, 1.095347, 0.025620, 0.060060, 1.862135, -88.425125, -156.772507, -907.402283, 13.727691, 100.772436
1759228109.965206, -1.527650, 10.423157, 2.035520, -0.234727, 0.380049, 1.883981, -86.655060, -157.272141, -907.064453, 13.727691, 100.772436
1759228109.985183, -2.281824, 10.483162, 1.386093, -0.071492, -0.543658, 1.343606, -85.786591, -157.697693, -907.330627, 13.727691, 100.772436
1759228110.004894, -3.023877, 7.619696, 0.836923, -0.088986, -0.413580, 1.115795, -85.331924, -158.234451, -907.299255, 13.727691, 100.772436
1759228110.024243, -2.295590, 4.742764, 3.434033, -0.245211, -0.908070, 0.441837, -85.817291, -157.914337, -907.884155, 13.727691, 100.772436
1759228110.045176, -1.839046, 2.290054, 1.000327, -1.083658, -2.053917, -1.530427, -87.948624, -156.887115, -907.786499, 13.727691, 100.772436
1759228110.065187, -2.157625, 7.950994, -1.689857, 0.397402, -0.428503, 0.192229, -89.352814, -156.107269, -907.877319, 13.727691, 100.772436
1759228110.085175, -2.053178, 11.090990, 1.259051, 0.971658, 0.749933, 2.697069, -87.971466, -157.112473, -908.183350, 13.727691, 100.772436
1759228110.105187, -5.001637, 11.822119, 1.774852, 0.363528, 1.113385, 1.777379, -84.902786, -159.105835, -908.463074, 13.727691, 100.772436
1759228110.124274, -10.947337, 18.864813, 3.777003, -0.100155, 0.567374, -0.346412, -84.698898, -158.614090, -908.265442, 13.727691, 100.772436
1759228110.145114, 2.326117, 15.351022, -1.270872, 0.139921, -0.050037, 0.125292, -85.823059, -157.641602, -907.923096, 13.727691, 100.772436
1759228110.165018, -0.957232, 7.691672, 2.733580, 0.104146, -0.360863, 0.386564, -85.935547, -158.234741, -908.127502, 13.727691, 100.772436
1759228110.185169, -2.024298, 9.315689, 2.715474, -0.059094, -0.337590, 0.361059, -85.472870, -158.406158, -908.222290, 13.727691, 100.772436
1759228110.205190, -2.350208, 11.484237, 0.985364, 0.091691, -0.172933, 0.151475, -85.152374, -158.820511, -908.023132, 13.727691, 100.772436
1759228110.224287, -1.726369, 8.355165, 1.247229, 0.181599, -0.178208, 0.165064, -85.492096, -158.643784, -908.375305, 13.727691, 100.772436
1759228110.244749, -2.502090, 10.396821, 1.110161, -0.002369, 0.133178, -0.119648, -85.212250, -158.634476, -908.677612, 13.727691, 100.772436
1759228110.265258, -0.039055, 8.131158, 1.559523, -0.266474, -0.105822, 0.184992, -85.284058, -158.524475, -908.478882, 13.727691, 100.772436
1759228110.285169, -0.782156, 8.851064, 2.854038, -0.595647, -1.082565, 0.532807, -85.486145, -158.455231, -908.520508, 13.727691, 100.772436
1759228110.305215, -2.972701, 11.259182, 1.438317, -0.535106, -0.884753, 0.485203, -85.931702, -158.470032, -908.431580, 13.727691, 100.772436
1759228110.324308, -4.364330, 8.831162, 1.868525, -0.365501, -0.617782, 0.458124, -85.735580, -158.404648, -908.239014, 13.727691, 100.772436
1759228110.344784, -3.372532, 7.668478, 1.669656, 0.097444, 0.315933, -0.107687, -85.797760, -158.225342, -908.121765, 13.727691, 100.772436
1759228110.365214, -2.178424, 9.487772, 3.477279, -0.257657, -0.472091, -0.127781, -85.811600, -158.190979, -907.809082, 13.727691, 100.772436
1759228110.385175, -2.090587, 10.139743, 1.952172, -0.051934, -0.133972, -0.187724, -86.135971, -158.048279, -907.868774, 13.727691, 100.772436
1759228110.405197, -3.026570, 8.668057, 4.851999, -0.719586, -0.470692, -0.425556, -86.441620, -157.639328, -907.564453, 13.727691, 100.772436
1759228110.424345, -2.311003, 9.499893, 1.741034, -0.437302, 0.160174, -0.718551, -87.261703, -157.104202, -907.149048, 13.727691, 100.772436
1759228110.445174, -1.242441, 7.411999, 2.062904, -0.167842, 0.367063, -0.409845, -87.512817, -156.558731, -906.951538, 13.727691, 100.772436
1759228110.465215, -1.573739, 6.519710, 3.511546, -0.162309, -0.071225, -0.296490, -87.858826, -156.454330, -906.902710, 13.727691, 100.772436
1759228110.485180, -2.565836, 8.038233, 4.576217, -0.348354, -0.098120, -0.159332, -87.962723, -156.120880, -906.616028, 13.727691, 100.772436
1759228110.505215, -2.631677, 8.637980, 2.599504, -0.010840, 0.222430, -0.139895, -87.802582, -156.072113, -906.501709, 13.727691, 100.772436
1759228110.524339, -0.840365, 13.210157, 3.763386, -0.384049, 0.033623, 0.535335, -87.819794, -156.095825, -906.299561, 13.727691, 100.772436
1759228110.544946, 1.369633, 10.647763, 3.372682, -0.496072, 0.135308, 0.929496, -87.428909, -156.001389, -906.015869, 13.727691, 100.772436
1759228110.565203, 1.772009, 5.798906, 1.811962, -0.307786, -0.348821, 0.609439, -86.976486, -155.919678, -905.710022, 13.727691, 100.772436
1759228110.585026, 1.600973, 5.866842, 3.526060, -0.689688, -1.300160, 0.138262, -87.265213, -155.660156, -905.621277, 13.727691, 100.772436
1759228110.605200, 0.953940, 4.413112, 3.307290, -0.934901, -1.792731, -0.656836, -88.399918, -155.086014, -905.456604, 13.727691, 100.772436
1759228110.624348, -0.286107, 9.340978, 4.350414, -0.572508, -1.742156, -0.750312, -89.937210, -154.392105, -905.769714, 13.727691, 100.772436
1759228110.645171, -0.815375, 5.297022, 0.255282, 0.321213, 0.132469, -0.724623, -90.596344, -154.054932, -905.598938, 13.727691, 100.772436
1759228110.665195, -1.761235, 8.347384, 3.787178, -0.035630, 0.019494, -0.081963, -90.901810, -153.848221, -905.770752, 13.727691, 100.772436
1759228110.685174, -1.945738, 21.353436, 7.346608, -0.674120, -0.780496, 1.862635, -90.238220, -153.736877, -905.214966, 13.727691, 100.772436
1759228110.705196, -2.571672, 10.559776, 3.020136, -0.277741, -1.524938, 1.783311, -89.633896, -154.200546, -905.428894, 13.727691, 100.772436
1759228110.724391, -2.457498, 8.911817, 0.832883, 0.303834, -0.806011, 1.256359, -89.374146, -154.791428, -905.675232, 13.727691, 100.772436
1759228110.744941, 0.183306, 8.584410, 3.806631, 0.230813, -0.601511, 0.758179, -88.950577, -155.107910, -906.147522, 13.727691, 100.772436
1759228110.765053, 1.226879, 7.697957, 4.235941, 0.023004, -0.707850, 0.199835, -89.388336, -155.232498, -906.461487, 13.727691, 100.772436
1759228110.785177, 0.764499, 8.440908, 3.604920, 0.013993, -0.345663, -0.279702, -89.516129, -155.280914, -906.335693, 13.727691, 100.772436
1759228110.805205, -0.791134, 10.772710, 4.287417, -0.031299, -0.130704, -0.478915, -89.861511, -155.126740, -906.595459, 13.727691, 100.772436
1759228110.824416, -1.128866, 10.135105, 4.760870, -0.233620, -0.292864, -0.367664, -90.481979, -154.847046, -906.222839, 13.727691, 100.772436
1759228110.845169, 0.647931, 8.162133, 3.791667, 0.148401, -0.877707, 0.406718, -90.472488, -154.882416, -906.281311, 13.727691, 100.772436
1759228110.865230, 0.665738, 5.451148, 3.630657, 0.208021, -0.590539, 0.212604, -90.914734, -154.924561, -906.888184, 13.727691, 100.772436
1759228110.885172, 0.277727, 4.767903, 3.137302, 0.417433, -0.007610, -0.057297, -90.967148, -155.141846, -907.108765, 13.727691, 100.772436
1759228110.904858, -0.394594, 6.700473, 4.784812, 0.726028, 0.331265, 0.000823, -90.701813, -155.448456, -907.097778, 13.727691, 100.772436
1759228110.924435, -1.066617, 8.583961, 5.160103, 0.503520, 0.566538, -0.058598, -90.283615, -155.792740, -907.821777, 13.727691, 100.772436
1759228110.944985, -0.254833, 10.531943, 5.735460, 0.423663, -0.010711, 0.152541, -89.931229, -156.265549, -907.692749, 13.727691, 100.772436
1759228110.965212, -0.608726, 11.155184, 3.813963, 0.079507, 0.237645, 0.034818, -89.966568, -156.149704, -907.685059, 13.727691, 100.772436
1759228110.985012, 0.180762, 9.437494, 4.972458, 0.001837, 0.069929, -0.084270, -90.008957, -156.027069, -907.448669, 13.727691, 100.772436
1759228111.005252, -0.093075, 7.077410, 4.208109, 0.430960, 0.263758, -0.282291, -90.413361, -156.250626, -907.702576, 13.727756, 100.772374
1759228111.024425, 0.234931, 6.659472, 4.389918, 0.668210, 0.518475, -0.243292, -90.235947, -156.362122, -907.791382, 13.727756, 100.772374
1759228111.045173, 1.528997, 8.844031, 3.650110, 0.752408, 0.311644, 0.193449, -89.663513, -156.836945, -908.121826, 13.727756, 100.772374
1759228111.065211, 2.064999, 14.163798, 2.751836, 0.746627, 0.271845, 0.638008, -88.918289, -157.575211, -908.383057, 13.727756, 100.772374
1759228111.085178, 0.978331, 16.710181, 4.522497, -0.481375, 0.575900, 0.469600, -88.159485, -157.501694, -907.810608, 13.727756, 100.772374
1759228111.104936, 0.272939, 15.354464, 6.018424, -0.983561, 0.013066, -0.084633, -88.816803, -157.073837, -907.042847, 13.727756, 100.772374
1759228111.124477, -1.445499, 6.397157, -2.397045, 0.239649, 0.997546, -0.359095, -88.653015, -156.832901, -906.763550, 13.727756, 100.772374
1759228111.144560, 2.036269, 3.369240, -0.128838, 1.234358, 0.232954, -0.250720, -88.649765, -156.840302, -906.860291, 13.727756, 100.772374
1759228111.165208, 3.454833, 3.272275, 2.151489, 1.041554, 0.259058, 0.361978, -88.635056, -157.482239, -907.716187, 13.727756, 100.772374
1759228111.185171, 1.195455, 8.851513, 0.508169, 0.834310, -0.151003, 0.524992, -87.974915, -158.593643, -908.105225, 13.727756, 100.772374
1759228111.205198, -1.947234, 12.222250, -1.629254, 0.839301, -0.132299, 0.244723, -87.468018, -159.445908, -908.857300, 13.727756, 100.772374
1759228111.224515, -4.706252, 13.153295, -1.418564, 0.628816, 0.158947, -0.066842, -87.447678, -159.737930, -909.211609, 13.727756, 100.772374
1759228111.244364, -2.789095, 11.889007, -0.155623, 0.290595, 0.168241, -0.060826, -87.861282, -159.885803, -909.313538, 13.727756, 100.772374
1759228111.264696, -0.177171, 9.984120, -0.128838, 0.136710, 0.264097, -0.148116, -87.722290, -159.872574, -909.506653, 13.727756, 100.772374
1759228111.285171, 1.345841, 8.214057, -0.252289, 0.519827, 0.169097, -0.166647, -87.983932, -160.001434, -909.438293, 13.727756, 100.772374
1759228111.305229, 2.130540, 8.098088, -0.386215, 0.739190, 0.716519, 0.041739, -87.469849, -160.463882, -909.545898, 13.727756, 100.772374
1759228111.324517, 1.491139, 9.326762, 0.271742, 0.429772, 0.623921, 0.310627, -86.864395, -160.777512, -909.434509, 13.727756, 100.772374
1759228111.345172, 0.168043, 11.076325, 1.249324, 0.052381, 0.208048, 0.318540, -86.394394, -161.237854, -909.612732, 13.727756, 100.772374
1759228111.365246, -1.140837, 11.572523, -0.409558, 0.106229, 0.554148, 0.052468, -85.939285, -161.254059, -909.437622, 13.727756, 100.772374
1759228111.385134, -1.426944, 9.745747, -0.528071, 0.110937, 0.727964, -0.080170, -85.595093, -161.382599, -909.292236, 13.727756, 100.772374
1759228111.405276, -2.382680, 8.276306, -2.181866, 0.376833, 0.930205, -0.035587, -85.295776, -161.554123, -908.795654, 13.727756, 100.772374
1759228111.424553, -0.074819, 10.839299, 1.305588, 0.506815, 0.132394, 0.047143, -84.868347, -161.813034, -908.822571, 13.727756, 100.772374
1759228111.445168, 1.930175, 9.382876, 1.441609, 0.181147, 0.158585, 0.035543, -84.962631, -161.840225, -909.216125, 13.727756, 100.772374
1759228111.465197, 1.488296, 8.765172, 0.738162, 0.229274, 0.085689, 0.341604, -84.668182, -162.044693, -909.146606, 13.727756, 100.772374
1759228111.484376, -0.220865, 9.459940, -0.185850, 0.424074, 0.279517, 0.233389, -84.243591, -162.520859, -909.152405, 13.727756, 100.772374
1759228111.504864, -0.613065, 10.978462, 1.168221, 0.419653, 0.486710, 0.131827, -83.993622, -163.043716, -909.638184, 13.727756, 100.772374
1759228111.524601, -0.968903, 10.886136, 1.188871, 0.412442, 0.733478, 0.029357, -83.420105, -163.210403, -909.199219, 13.727756, 100.772374
1759228111.545170, -0.828244, 10.068815, 1.024269, 0.566355, 0.577060, 0.018105, -83.317459, -163.660355, -909.300171, 13.727756, 100.772374
1759228111.565275, -0.518943, 9.604789, 1.608455, 0.585614, 0.229862, -0.033385, -83.058914, -163.868515, -909.421326, 13.727756, 100.772374
1759228111.585169, -0.214880, 9.588329, 1.513584, 0.535148, 0.425139, -0.006611, -82.791611, -164.274734, -909.343262, 13.727756, 100.772374
1759228111.605193, -0.094421, 9.048436, 1.126771, 0.246800, 0.511131, 0.065914, -82.594482, -164.417297, -909.495850, 13.727756, 100.772374
1759228111.624590, 0.623989, 9.510667, -0.089483, -0.002720, 0.357787, 0.136762, -81.993683, -164.645493, -909.482178, 13.727756, 100.772374
1759228111.645159, 1.014543, 9.951499, -0.375740, -0.000733, 0.221885, 0.027367, -81.860687, -164.556625, -908.909302, 13.727756, 100.772374
1759228111.665193, 1.080832, 9.365369, -0.218321, -0.011244, 0.340074, -0.108558, -81.983932, -164.520035, -909.039185, 13.727756, 100.772374
1759228111.685172, 1.628656, 9.208698, -0.402974, -0.206563, 0.239117, 0.160447, -81.483521, -164.392761, -908.569702, 13.727756, 100.772374
1759228111.705197, 0.410157, 9.055170, -1.280449, -0.201297, 0.231029, 0.234364, -81.363251, -164.540527, -908.611572, 13.727756, 100.772374
1759228111.724614, -0.425420, 8.812308, -1.544859, -0.066185, 0.316327, 0.145013, -81.012421, -164.313599, -908.169312, 13.727756, 100.772374
1759228111.744744, -0.357185, 8.472780, -1.026364, 0.155332, 0.236149, 0.019904, -80.948456, -164.514389, -908.172607, 13.727756, 100.772374
1759228111.765227, 0.286107, 9.019556, -0.038158, 0.357641, 0.086530, 0.046321, -80.869720, -164.778122, -908.386963, 13.727756, 100.772374
1759228111.785167, 0.140061, 10.238504, 0.838120, 0.197684, 0.122283, 0.126978, -80.611160, -164.882202, -908.327148, 13.727756, 100.772374
1759228111.805217, -0.646883, 10.620230, 0.870143, -0.015435, 0.215335, 0.087442, -80.541473, -165.122345, -908.174377, 13.727756, 100.772374
1759228111.824626, -0.222661, 10.047866, 0.038307, -0.070787, 0.291312, 0.116685, -80.535904, -164.935867, -908.152527, 13.727756, 100.772374
1759228111.844735, 0.424223, 9.734674, -0.591667, 0.070062, 0.245522, 0.199155, -80.286942, -164.984039, -908.179626, 13.727756, 100.772374
1759228111.865187, 0.437540, 10.158747, 0.513706, 0.133543, 0.178596, 0.274419, -79.985016, -165.095261, -908.109131, 13.727756, 100.772374
1759228111.885167, -0.251690, 10.398167, 1.689708, 0.022095, 0.219998, 0.325075, -79.635788, -165.193100, -907.827759, 13.727756, 100.772374
1759228111.905196, -1.077241, 10.620080, 1.688810, -0.083007, 0.225874, 0.303130, -79.388443, -165.529739, -907.762939, 13.727756, 100.772374
1759228111.924652, -1.841291, 10.101436, 1.087716, -0.051269, 0.380711, 0.222627, -79.071213, -165.715607, -907.954346, 13.727756, 100.772374
1759228111.944747, -2.057667, 9.240272, 1.108665, -0.039783, 0.380876, 0.156237, -78.914093, -165.712830, -907.412109, 13.727756, 100.772374
1759228111.965016, -1.948581, 9.113828, 0.895731, -0.006551, 0.311511, 0.160500, -78.529938, -165.688583, -907.199219, 13.727756, 100.772374
1759228111.984920, -2.215684, 9.459191, 1.193659, -0.056457, 0.043239, 0.093167, -78.260773, -165.718842, -907.135559, 13.727756, 100.772374
1759228112.005050, -1.993921, 9.982025, 1.468394, -0.230341, -0.157977, -0.007581, -78.525284, -165.588730, -906.917725, 13.727756, 100.772374
1759228112.024670, -2.006341, 9.920375, 2.153734, -0.494167, -0.221361, -0.234751, -78.752472, -165.071060, -906.583679, 13.727756, 100.772374
1759228112.045169, -2.142661, 9.566482, 3.129222, -1.014384, 0.027224, -0.528257, -79.066727, -164.453735, -906.293335, 13.727756, 100.772374
1759228112.064799, -1.771709, 9.599701, 2.427720, -1.619959, 0.206442, -0.808281, -79.056992, -163.344910, -904.642029, 13.727756, 100.772374
1759228112.085168, -0.877774, 11.041310, 1.411382, -1.807154, 0.097956, -1.130647, -79.734497, -161.534836, -903.728638, 13.727756, 100.772374
1759228112.105189, 0.587328, 16.105196, 4.395904, -2.309988, 0.477005, -1.469615, -80.439133, -160.156830, -902.313293, 13.727756, 100.772374
1759228112.124681, 1.038335, 21.334282, 11.534066, -3.507904, 0.719813, -2.049052, -81.542908, -157.638275, -899.347717, 13.727756, 100.772374
1759228112.145170, 3.765630, 16.465823, 9.527726, -4.378561, 0.812392, -2.133566, -82.991379, -154.885818, -895.703735, 13.727756, 100.772374
1759228112.165199, 2.591574, 10.560075, 1.248277, -3.840051, 0.738370, -1.709871, -84.295258, -153.043945, -892.601440, 13.727756, 100.772374
1759228112.185168, -3.440318, 8.726715, -2.680907, -2.508273, 0.018143, -1.490737, -85.013504, -151.981339, -890.281982, 13.727756, 100.772374
1759228112.205194, -9.258677, 11.246912, 3.232771, -2.091064, -0.275477, -1.858159, -86.420639, -151.094025, -888.662537, 13.727756, 100.772374
1759228112.224706, -5.459229, 13.688848, 9.879075, -2.926824, -1.959099, -1.791960, -88.640106, -149.857071, -886.699463, 13.727756, 100.772374
1759228112.245156, -1.025018, 11.714081, 4.621408, -3.142211, -1.854617, -1.279529, -90.229645, -148.946365, -884.320923, 13.727756, 100.772374
1759228112.265230, 1.725621, 7.888446, 2.693627, -2.729383, -1.623586, -0.844828, -91.542313, -148.556351, -882.246216, 13.727756, 100.772374
1759228112.285178, 0.527921, 3.911976, 4.249259, -2.408845, -1.405352, -0.661875, -92.213425, -148.325409, -880.353027, 13.727756, 100.772374
1759228112.305199, -0.506673, 1.747019, 4.030489, -2.012426, -1.046631, -0.542864, -93.111710, -148.402206, -878.854553, 13.727756, 100.772374
1759228112.324725, -1.493982, 1.028759, 3.100491, -1.531344, -0.806338, -0.556503, -93.407425, -148.249588, -877.869568, 13.727756, 100.772374
1759228112.345176, -1.700182, 1.692850, 2.951751, -1.116380, -0.816827, -0.523814, -93.889709, -148.245972, -877.191040, 13.727756, 100.772374
1759228112.365098, -1.164031, 1.818396, 2.657115, -0.626263, -0.719963, -0.362447, -94.134476, -148.314529, -876.237610, 13.727756, 100.772374
1759228112.384734, -1.975965, 1.490540, 3.793762, -0.116845, -0.341726, -0.354585, -94.330399, -148.173050, -875.852051, 13.727756, 100.772374
1759228112.405245, -3.095553, 2.062006, 4.332607, 0.244472, -0.121089, -0.450787, -94.774902, -148.612076, -876.178711, 13.727756, 100.772374
1759228112.424741, -4.027496, 2.095525, 5.880309, 0.461882, -0.414384, -0.603500, -95.362686, -148.225433, -876.569214, 13.727756, 100.772374
1759228112.444729, -4.775983, 1.928230, 6.820482, 0.753542, -0.884823, -0.693404, -95.707581, -148.272949, -877.443054, 13.727756, 100.772374
1759228112.465192, -3.753360, 3.410091, 6.237344, 0.896752, -1.149230, -0.766253, -96.822540, -147.949707, -878.153137, 13.727756, 100.772374
1759228112.485164, -1.114501, 3.743185, 6.451925, 0.908801, -1.300660, -0.654501, -97.350342, -147.996490, -879.076660, 13.727756, 100.772374
1759228112.505174, 0.196474, 4.174141, 9.162310, 0.799516, -0.899401, -0.370545, -97.678360, -148.157349, -879.512085, 13.727756, 100.772374
1759228112.524753, 1.143680, 5.862203, 12.690616, -0.295390, 0.143273, 0.108770, -97.361557, -148.348694, -878.792114, 13.727756, 100.772374
1759228112.545173, 3.897311, 17.488745, 22.011692, -1.841941, -0.095362, 0.533000, -96.419525, -148.630417, -877.210083, 13.727756, 100.772374
1759228112.565199, -0.116119, 12.367099, 1.915810, -0.244450, 0.442836, 0.536339, -96.661606, -148.532516, -876.974609, 13.727756, 100.772374
1759228112.585165, -1.791611, 1.768567, 6.797288, 0.832872, 1.113135, 0.468209, -96.189957, -149.143906, -877.494568, 13.727756, 100.772374
1759228112.605201, -7.261913, 1.641824, 2.428768, 1.261270, 1.624910, 0.146704, -96.359802, -148.899307, -878.106628, 13.727756, 100.772374
1759228112.624786, -1.177648, 4.532822, 2.119916, 1.867144, 0.840068, 0.558207, -95.862564, -149.012054, -878.679077, 13.727756, 100.772374
1759228112.644724, 3.178003, 10.531943, 6.251111, 1.510304, 1.456673, 0.946086, -95.313507, -149.339996, -879.625671, 13.727756, 100.772374
1759228112.665161, 0.500687, 12.080693, 5.440374, 1.454526, 1.775219, 1.159468, -93.865448, -149.845825, -881.042908, 13.727756, 100.772374
1759228112.685164, -0.328305, 10.061184, 3.287538, 1.824557, 1.989846, 1.110962, -93.338516, -150.223999, -881.365112, 13.727756, 100.772374
1759228112.705177, -1.593940, 8.947581, 4.545242, 2.122160, 1.995177, 0.979411, -92.265671, -150.731689, -882.623901, 13.727756, 100.772374
1759228112.724789, -1.684919, 9.726744, 4.052336, 2.073991, 1.861453, 0.883787, -91.165878, -151.293045, -883.879272, 13.727756, 100.772374
1759228112.744742, -1.249175, 11.340884, 3.134459, 2.081645, 1.568157, 1.021653, -90.091858, -152.101654, -884.939453, 13.727756, 100.772374
1759228112.765173, -1.810615, 11.980286, 3.347094, 2.046294, 1.395969, 1.316465, -89.129517, -152.987473, -886.386353, 13.727756, 100.772374
1759228112.784630, -2.265962, 11.705102, 2.581099, 2.056705, 1.106215, 1.501796, -87.595459, -153.954086, -887.101685, 13.727756, 100.772374
1759228112.805228, -2.273893, 11.135133, 0.870442, 2.122508, 0.858770, 1.431514, -86.550583, -154.774200, -888.392334, 13.727756, 100.772374
1759228112.824808, -2.785354, 9.992949, 0.889596, 2.214587, 0.656326, 1.206010, -85.606400, -156.007690, -890.092529, 13.727756, 100.772374
1759228112.845167, -3.134908, 8.895656, 2.165555, 2.130343, 0.719391, 1.066866, -84.491516, -156.993652, -891.159790, 13.727756, 100.772374
1759228112.865189, -2.979285, 7.877223, 2.966416, 2.047056, 0.198713, 0.979785, -83.777924, -158.107025, -892.616760, 13.727756, 100.772374
1759228112.885166, -0.984316, 7.564779, 3.760692, 1.761016, -0.456520, 0.923537, -83.251221, -159.057373, -894.028381, 13.727756, 100.772374
1759228112.905204, -0.459537, 7.113173, 3.734057, 1.356789, -0.676297, 0.848822, -83.146439, -159.879166, -895.218018, 13.727756, 100.772374
1759228112.924835, -0.957082, 6.538864, 3.513491, 1.139070, -0.584916, 0.683814, -82.738785, -160.675781, -896.079590, 13.727756, 100.772374
1759228112.945168, -1.195305, 6.260538, 2.685995, 1.157282, -0.362848, 0.606925, -82.748795, -161.386749, -897.066040, 13.727756, 100.772374
1759228112.965204, -2.234239, 7.223306, 2.451812, 1.040802, -0.125383, 0.386707, -82.549576, -162.040970, -897.657593, 13.727756, 100.772374
1759228112.985165, -2.563143, 8.674193, 1.885434, 0.819645, -0.031780, 0.163809, -82.417450, -162.421890, -898.121765, 13.727756, 100.772374
1759228113.005203, -2.540697, 9.393201, 1.185728, 0.615090, 0.015108, 0.073407, -82.679626, -162.675018, -898.208862, 13.727756, 100.772374
1759228113.024874, -2.779967, 9.473257, 1.539322, 0.673503, -0.582491, 0.117008, -82.523453, -162.945099, -898.673035, 13.727756, 100.772374
1759228113.045166, -2.366818, 9.917083, 2.303521, 0.453720, -0.734387, 0.371615, -82.810867, -163.618027, -899.265869, 13.727756, 100.772374
1759228113.065177, -2.334646, 9.998485, 1.843835, 0.216506, -0.282081, 0.347758, -82.829758, -163.696579, -899.867737, 13.727756, 100.772374
1759228113.084313, -1.943493, 9.444377, 0.664391, 0.404903, -0.160120, -0.012058, -82.836456, -163.973602, -899.457031, 13.727756, 100.772374
1759228113.105204, -1.849371, 9.372102, 0.103250, 0.805098, -0.252540, -0.040072, -83.160141, -164.004333, -899.931030, 13.727756, 100.772374
1759228113.124881, -1.405247, 11.027244, 1.069310, 1.062209, -0.556862, 0.324966, -83.232300, -164.640198, -900.608521, 13.727756, 100.772374
1759228113.144270, -1.772158, 13.133692, 1.280748, 1.060574, -0.757041, 0.462907, -83.362411, -165.332855, -901.258667, 13.727756, 100.772374
1759228113.165205, 0.550816, 16.205304, 0.502034, 0.997957, -0.424927, 0.484967, -83.556778, -165.915421, -901.967529, 13.727756, 100.772374
1759228113.184719, 0.345962, 19.087025, 4.855441, 0.451689, -0.520680, 0.638744, -83.082169, -166.864716, -902.150452, 13.727756, 100.772374
1759228113.205202, -2.993500, 19.582026, 5.260211, -0.880098, -0.960206, 0.264247, -83.734665, -166.978378, -902.420166, 13.727756, 100.772374
1759228113.224933, -1.869273, 15.696536, 2.676418, -1.436979, -0.696287, 0.042782, -84.345352, -166.149673, -901.758911, 13.727756, 100.772374
1759228113.245167, 0.526126, 13.134890, 3.322254, -1.639607, -0.067237, -0.163197, -84.742493, -165.446518, -900.421082, 13.727756, 100.772374
1759228113.265203, 1.205481, 12.211476, 4.457704, -2.412885, 0.196560, -0.361398, -85.021896, -164.620270, -899.078613, 13.727756, 100.772374
1759228113.284740, 0.943465, 13.169905, 3.543119, -2.885806, 0.321063, -0.605741, -85.066284, -163.517670, -897.474854, 13.727756, 100.772374
1759228113.305042, -0.760458, 13.781923, 1.853411, -2.813236, 0.464617, -0.823064, -85.588943, -162.566483, -895.565125, 13.727756, 100.772374
1759228113.324949, -1.765275, 13.488034, 1.675642, -3.190423, 0.275288, -1.136350, -86.327942, -161.170776, -893.334167, 13.727756, 100.772374
1759228113.345164, -0.089783, 13.118878, -0.591966, -3.403265, 0.238451, -1.166659, -87.218964, -159.955566, -891.266418, 13.727756, 100.772374
1759228113.365190, 1.247379, 11.483788, -1.408988, -2.974266, 0.743810, -1.019733, -87.932861, -159.157318, -888.965759, 13.727756, 100.772374
1759228113.384859, 1.840543, 9.412355, 1.505654, -2.646493, 0.589704, -0.870591, -88.355865, -158.464676, -887.079468, 13.727756, 100.772374
1759228113.405190, 3.601478, 7.393594, 1.268029, -2.942566, -0.954705, -0.710287, -89.145599, -157.802841, -885.406494, 13.727756, 100.772374
1759228113.424969, 2.094328, 5.447557, -1.482460, -2.904495, -2.217930, -0.594717, -89.779388, -157.663498, -884.126526, 13.727756, 100.772374
1759228113.445155, -6.138883, 7.268796, 5.068824, -3.244541, -2.039263, -1.406688, -90.110489, -157.632004, -882.817444, 13.727756, 100.772374
1759228113.465176, -0.582988, 9.611672, 3.602076, -3.687371, -0.938524, -1.789642, -92.215454, -156.714432, -880.435181, 13.727756, 100.772374
1759228113.485165, 1.076343, 6.153547, -0.757466, -2.551431, -0.764183, -1.349186, -93.397766, -156.377441, -878.879944, 13.727756, 100.772374
1759228113.505235, 1.594688, 4.028244, 0.897227, -2.418684, -0.722046, -1.272006, -94.441299, -156.068588, -877.413208, 13.727756, 100.772374
1759228113.524970, 2.110189, 2.540996, 0.933140, -2.259866, -0.680205, -1.139919, -95.169983, -156.012207, -875.920654, 13.727756, 100.772374
1759228113.545166, 2.109292, 1.015291, 1.311723, -1.634590, -0.720638, -0.941947, -95.780228, -155.907608, -874.834290, 13.727756, 100.772374
1759228113.565184, 1.702128, -0.857573, 0.639401, -0.639154, -0.314248, -0.416743, -96.341248, -156.014618, -874.455017, 13.727756, 100.772374
1759228113.585055, 1.581819, -3.444957, 2.071284, 0.272324, 0.145586, 0.220222, -96.238647, -156.081238, -874.647949, 13.727756, 100.772374
1759228113.605192, 0.512060, -1.975815, 4.024503, 1.133920, 0.544126, 0.537902, -95.954712, -156.216812, -875.468506, 13.727756, 100.772374
1759228113.625010, -3.363704, -0.356886, 4.454263, 1.955792, 1.263302, 0.470855, -95.595108, -156.314087, -876.220764, 13.727756, 100.772374
1759228113.645162, -3.009511, 1.940351, 1.216554, 3.043840, 1.934685, 0.571740, -95.205902, -156.355942, -878.109070, 13.727756, 100.772374
1759228113.665218, -3.154361, 2.468422, 5.029769, 3.357467, 2.068650, 0.989275, -94.189041, -156.705627, -879.744995, 13.727756, 100.772374
1759228113.684821, -1.557877, 6.140379, 12.594997, 2.842968, 1.089987, 1.062333, -93.283142, -157.286804, -881.128418, 13.727756, 100.772374
1759228113.705190, 6.842030, 45.101821, 11.477503, 2.326778, 0.811058, 2.782061, -91.422272, -158.169556, -882.558716, 13.727756, 100.772374
1759228113.725046, -5.070021, 28.787581, 11.329362, 1.182193, 1.944728, 1.149629, -90.275375, -158.763107, -883.041687, 13.727756, 100.772374
1759228113.745162, -2.088791, 4.220229, -0.765247, 0.890760, 1.040086, -0.157679, -91.045929, -158.663040, -883.614807, 13.727756, 100.772374
1759228113.765184, 1.799542, -1.020977, 0.493804, 1.939242, 0.903227, 0.245378, -90.750397, -158.785446, -884.260132, 13.727756, 100.772374
1759228113.785161, 0.570867, 1.489493, 2.985719, 2.085891, 1.013267, 1.734016, -89.137100, -160.022705, -885.680481, 13.727756, 100.772374
1759228113.805262, -1.766472, 6.144868, 2.140865, 2.160228, 0.383036, 2.063498, -87.660172, -161.223999, -887.170288, 13.727756, 100.772374
1759228113.825020, 1.360056, 16.149040, -0.710330, 2.404320, 0.420837, 2.166520, -86.095825, -162.509888, -888.213013, 13.727756, 100.772374
1759228113.845157, -0.441281, 22.853702, -2.279879, 2.582019, 0.915581, 2.095980, -84.551224, -164.176224, -889.462830, 13.727756, 100.772374
1759228113.865206, -6.027403, 14.619744, 2.553715, 2.285750, 0.965292, 0.835642, -84.345947, -164.848190, -890.128906, 13.727756, 100.772374
1759228113.885164, -4.584747, 7.562535, 4.497957, 1.787161, 0.661127, -0.150758, -84.379761, -165.298141, -891.106262, 13.727756, 100.772374
1759228113.905186, -0.303615, 6.911911, 2.462885, 1.435345, 0.660751, -0.060788, -84.203674, -165.456467, -891.478699, 13.727756, 100.772374
1759228113.925038, 0.687734, 6.100426, 2.460341, 1.329624, 0.461804, 0.103858, -84.155899, -166.008270, -891.966919, 13.727756, 100.772374
1759228113.944733, 1.627758, 5.901857, 2.054375, 1.060619, 0.128185, 0.285955, -83.983032, -166.421570, -892.799683, 13.727756, 100.772374
1759228113.964997, 0.607678, 5.527763, 2.253991, 0.838126, -0.182519, 0.548032, -83.754059, -167.084290, -893.246094, 13.727756, 100.772374
1759228113.985160, -1.361253, 5.699996, 1.152060, 0.770477, -0.740891, 0.531173, -83.555954, -167.558609, -893.909058, 13.727756, 100.772374
1759228114.004359, -2.485181, 5.972486, 0.173580, 0.791417, -1.060431, 0.378683, -83.671310, -168.130997, -894.844116, 13.727756, 100.772374
1759228114.025055, -2.769792, 6.059126, 0.059406, 0.885975, -1.025426, 0.265086, -83.874100, -168.487259, -895.352783, 13.727756, 100.772374
1759228114.044713, -2.893393, 5.823746, -0.772579, 1.050102, -0.955966, 0.029030, -84.328735, -168.785339, -896.440613, 13.727756, 100.772374
1759228114.065182, -1.547103, 5.628768, -1.098190, 1.505908, -0.838512, -0.194940, -85.093796, -169.070953, -897.376099, 13.727756, 100.772374
1759228114.084331, 0.386364, 6.438308, 0.356586, 1.787831, -0.651220, -0.069644, -85.102692, -169.497070, -897.776489, 13.727756, 100.772374
1759228114.105164, 0.610671, 7.069778, -0.055216, 1.667172, -0.377805, 0.310332, -85.344559, -170.611481, -899.226013, 13.727756, 100.772374
1759228114.125064, 0.079458, 8.583662, -0.737713, 1.381546, -0.602677, 0.599403, -85.300720, -171.372849, -899.866821, 13.727756, 100.772374
1759228114.145156, 0.431704, 12.475586, -0.971747, 1.435391, -0.984793, 0.766292, -85.268585, -171.819763, -900.485474, 13.727756, 100.772374
1759228114.165191, -1.565658, 15.129260, 1.645265, 1.355583, -1.032604, 0.677490, -85.447693, -173.537842, -901.605896, 13.727756, 100.772374
1759228114.185168, -2.102259, 17.306636, 4.218883, 0.578293, -0.997600, 0.481652, -85.558136, -173.512436, -901.877502, 13.727756, 100.772374
1759228114.205184, -1.263540, 18.815432, 4.161871, 0.118327, -0.397583, 0.390779, -85.562836, -174.077423, -902.372314, 13.727756, 100.772374
1759228114.225103, 0.434847, 19.395727, 4.278438, -0.254413, 0.185090, 0.260834, -85.575226, -174.052231, -902.363098, 13.727756, 100.772374
1759228114.245167, 0.186299, 18.105552, 3.301754, -0.797610, 0.548364, 0.269610, -85.454391, -173.853470, -901.800171, 13.727756, 100.772374
1759228114.265183, -0.312144, 18.252047, 1.650952, -1.251326, -0.202337, 0.310569, -85.426086, -173.566330, -901.373047, 13.727756, 100.772374
1759228114.285160, -2.187253, 15.420155, 1.817199, -1.694991, -1.088393, 0.357927, -85.713165, -173.138916, -900.920166, 13.727756, 100.772374
1759228114.304959, -1.518073, 13.189507, 3.363704, -2.132032, -1.049081, 0.210773, -86.134933, -172.208542, -900.447937, 13.727756, 100.772374
1759228114.325122, -1.380257, 12.256966, 5.528361, -2.725061, -0.648520, -0.068662, -86.392014, -171.518845, -899.900513, 13.727756, 100.772374
1759228114.344730, -2.159869, 14.289194, 2.605789, -3.470653, 0.322295, -0.502352, -86.838257, -169.958939, -898.391174, 13.727756, 100.772374
1759228114.364732, -2.869750, 15.018079, 0.162058, -3.443665, 1.040120, -0.833579, -86.584854, -168.453369, -896.523315, 13.727756, 100.772374
1759228114.384565, -1.707515, 13.803620, -2.271648, -2.939809, 1.211184, -1.330762, -87.152588, -167.001724, -894.588745, 13.727756, 100.772374
1759228114.405183, 2.795230, 12.946496, -1.660229, -2.698464, 1.256223, -1.698310, -88.040527, -165.549835, -892.776245, 13.727756, 100.772374
1759228114.425178, 5.973234, 10.880898, 1.527201, -2.755659, 1.178814, -1.531649, -88.336044, -164.344940, -890.662781, 13.727756, 100.772374
1759228114.444716, 4.145411, 7.542035, 2.278981, -2.993318, 0.516724, -1.168970, -88.984024, -163.341934, -889.015991, 13.727756, 100.772374
1759228114.464463, 2.972551, 6.475717, 0.137517, -2.960024, -0.666603, -0.694615, -89.706543, -162.745300, -887.374939, 13.727756, 100.772374
1759228114.485159, -0.732027, 4.494365, -1.169418, -2.565315, -2.141829, -0.552640, -90.024048, -162.778351, -886.541382, 13.727756, 100.772374
1759228114.505187, -7.188291, 5.191677, 2.625990, -2.696732, -2.288409, -1.462919, -90.737213, -162.228561, -885.840332, 13.727756, 100.772374
1759228114.525157, -2.408268, 8.909273, 5.970840, -3.655580, -1.112449, -2.066270, -92.797455, -160.946915, -883.731689, 13.727756, 100.772374
1759228114.545158, 1.643171, 6.020370, -1.068113, -2.694188, -1.475639, -1.404927, -93.917389, -160.417786, -882.810425, 13.727756, 100.772374
1759228114.565186, 1.280748, 3.978116, 0.280720, -2.410807, -1.187144, -1.261529, -94.871872, -159.882568, -881.260071, 13.727756, 100.772374
1759228114.585158, 2.504036, 3.537134, 0.828394, -2.504886, -0.898490, -1.216328, -95.754608, -159.628723, -879.594543, 13.727756, 100.772374
1759228114.605182, 3.614047, 2.662203, 1.376217, -1.904495, -0.783532, -0.888063, -96.710312, -159.319305, -878.794922, 13.727756, 100.772374
1759228114.625174, 2.153884, 1.602619, 1.858499, -1.210667, -0.492264, -0.454346, -96.783173, -159.334076, -877.858826, 13.727756, 100.772374
1759228114.644312, 0.978780, 1.068263, 1.080084, -0.413702, -0.208264, -0.132316, -97.091751, -159.372589, -877.876160, 13.727756, 100.772374
1759228114.665177, 1.195754, 1.310526, 1.688361, 0.592258, 0.040227, 0.067521, -97.161072, -159.372726, -877.970947, 13.727756, 100.772374
1759228114.684510, 0.882263, 1.470638, 4.398148, 1.514548, 0.530392, 0.383483, -96.775101, -159.750641, -878.777954, 13.727756, 100.772374
1759228114.705181, -1.486201, 1.317260, 6.353164, 2.408722, 1.502359, 0.676215, -96.386917, -159.831573, -880.075256, 13.727756, 100.772374
1759228114.724357, -3.149123, 2.177077, 5.135413, 3.053922, 2.702505, 0.932346, -95.482437, -160.414261, -881.361206, 13.727756, 100.772374
1759228114.745156, -3.074005, 3.183690, 7.270442, 3.001483, 2.196973, 0.746139, -94.830673, -160.860764, -882.828430, 13.727756, 100.772374
1759228114.765176, 4.401440, 24.525304, 3.379865, 3.613289, 1.002215, 0.894179, -94.090195, -161.392700, -884.769470, 13.727756, 100.772374
1759228114.785186, -9.605836, 53.467611, 9.454253, 3.493276, 3.592393, 0.756744, -92.651657, -162.552277, -885.802856, 13.727756, 100.772374
1759228114.804347, -1.766771, 11.878233, 10.639683, 0.793184, 1.169650, 0.222429, -93.416031, -162.416885, -886.455139, 13.727756, 100.772374
1759228114.825184, 1.055843, 0.335188, -2.270302, 1.566802, -0.156760, 0.159313, -93.514847, -162.611465, -887.007446, 13.727756, 100.772374
1759228114.844715, 2.291550, -1.777844, -2.023549, 2.599228, 0.677329, 0.782404, -92.847336, -163.503555, -889.017334, 13.727756, 100.772374
1759228114.865181, -0.304064, -0.517148, 5.376479, 2.332752, 1.390806, 1.560650, -91.095337, -164.587952, -889.972900, 13.727756, 100.772374
1759228114.885179, 3.810372, 10.264092, 1.937957, 2.146156, 1.496312, 2.133265, -89.317001, -165.590561, -890.601440, 13.727756, 100.772374
1759228114.905193, 5.539883, 20.608390, -0.951546, 2.062212, 1.616073, 3.486623, -87.213165, -167.561234, -891.164795, 13.727756, 100.772374
1759228114.925170, -2.958635, 16.795474, 1.444751, 1.753901, -0.135864, 1.828495, -85.337418, -169.273026, -891.839478, 13.727756, 100.772374
1759228114.945166, -6.588544, 9.990405, 2.706495, 1.717302, -0.667497, 1.041923, -85.124466, -170.114182, -892.768677, 13.727756, 100.772374
1759228114.965161, -6.433818, 7.157765, 1.787720, 1.187538, -0.970559, 0.034223, -85.664505, -170.481323, -893.727966, 13.727756, 100.772374
1759228114.985159, -5.383213, 5.735759, 1.139939, 1.054895, -0.475672, -0.155150, -86.104767, -170.574203, -894.406494, 13.727756, 100.772374
1759228115.005169, -2.044349, 5.365406, 0.777517, 1.151245, -0.343325, -0.233459, -86.276840, -170.973450, -895.124573, 13.727756, 100.772374
1759228115.025171, 0.002394, 5.641936, -0.235081, 1.232445, -0.618960, -0.055269, -86.645081, -171.279739, -895.728638, 13.727756, 100.772374
1759228115.045156, -1.098939, 5.434688, -0.338181, 1.155480, -1.008717, -0.044729, -86.951813, -171.764359, -896.469971, 13.727756, 100.772374
1759228115.065169, -1.331475, 4.331111, -2.528876, 1.482199, -1.071173, -0.238361, -87.533585, -172.543182, -897.156067, 13.727756, 100.772374
1759228115.085023, -0.757017, 4.215740, -1.425897, 1.876490, -0.846295, -0.359462, -87.828781, -172.822800, -898.300903, 13.727756, 100.772374
1759228115.104844, 1.528847, 7.186496, 2.316689, 1.639572, -0.614021, 0.047616, -88.485092, -173.369583, -899.263184, 13.727756, 100.772374
1759228115.125163, 3.404704, 9.405920, 4.765509, 0.581899, -0.235120, 0.621349, -88.260971, -174.031372, -899.775757, 13.727756, 100.772374
1759228115.145164, 1.545906, 10.916512, 3.405303, -0.034633, -0.148783, 0.705105, -88.047806, -174.254166, -899.941223, 13.727756, 100.772374
1759228115.165172, -2.145354, 12.811223, 0.110881, 0.219592, -0.023256, 0.453943, -87.651962, -174.706467, -899.871704, 13.727756, 100.772374
1759228115.185157, -4.848408, 15.633838, 0.208744, 0.595596, -0.552058, 0.307017, -87.408966, -175.205444, -900.304932, 13.727756, 100.772374
1759228115.205179, -6.668151, 16.064644, 2.865859, 0.181865, -0.935664, 0.341579, -88.054169, -175.481567, -900.256775, 13.727756, 100.772374
1759228115.225182, -4.431967, 16.047137, 1.708413, -0.070670, -0.737248, 0.303737, -88.330414, -175.439529, -900.496216, 13.727756, 100.772374
1759228115.245088, -0.084396, 18.119767, 1.540070, -0.127322, -0.494539, 0.408309, -88.469345, -175.521255, -901.052551, 13.727756, 100.772374
1759228115.265179, 1.695244, 18.147450, 5.316624, -0.744159, -0.395399, 0.300053, -88.630692, -175.421906, -900.594849, 13.727756, 100.772374
1759228115.284831, 1.053598, 18.653973, 4.133440, -1.452679, 0.129421, 0.149403, -88.585709, -175.003342, -900.147827, 13.727756, 100.772374
1759228115.305180, 0.146794, 16.608128, 4.320337, -2.069056, -0.651702, -0.040345, -88.748657, -174.394089, -899.731323, 13.727756, 100.772374
1759228115.325187, 0.324115, 14.728081, 4.688146, -2.829581, -0.760978, -0.129282, -89.307358, -173.454376, -898.943237, 13.727756, 100.772374
1759228115.345155, 1.560720, 14.869040, 5.880758, -3.306349, 0.165426, -0.507938, -89.265503, -172.125931, -897.203430, 13.727756, 100.772374
1759228115.365256, 0.338929, 15.140333, 3.960159, -3.976689, 1.213832, -0.884405, -89.429382, -170.680359, -895.620728, 13.727756, 100.772374
1759228115.385179, -0.207547, 13.953557, 1.314267, -4.150824, 1.142855, -0.921542, -89.498764, -168.926605, -893.036255, 13.727756, 100.772374
1759228115.405184, -0.538845, 11.731289, -4.222025, -3.307106, 0.474983, -0.972210, -89.986786, -167.809509, -891.236877, 13.727756, 100.772374
1759228115.425197, 0.850540, 9.877129, -4.633528, -2.544357, 0.350657, -1.062719, -90.519974, -166.755646, -889.708191, 13.727756, 100.772374
1759228115.445154, 2.505682, 7.927052, -0.790984, -2.352867, -0.268358, -0.859847, -90.929123, -166.268738, -888.490662, 13.727756, 100.772374
1759228115.465183, 2.465429, 7.317728, 2.470816, -2.754868, -1.218749, -0.619838, -91.542633, -165.908905, -887.718201, 13.727756, 100.772374
1759228115.485036, 2.948759, 7.464223, 2.812439, -3.299227, -2.350531, -0.320828, -91.700653, -165.519791, -886.555054, 13.727756, 100.772374
1759228115.505198, -1.083526, 5.756858, -1.270124, -3.157982, -1.986443, -1.254069, -92.317947, -164.995941, -885.519897, 13.727756, 100.772374
1759228115.525255, -5.507562, 7.025934, 4.216788, -3.528268, -0.695295, -2.092878, -93.949478, -163.968277, -883.356201, 13.727756, 100.772374
1759228115.545154, 1.789666, 7.530213, 1.781585, -2.709396, -0.897680, -1.222067, -94.969040, -163.491547, -881.986328, 13.727756, 100.772374
1759228115.565182, 3.168726, 4.081366, 0.100556, -2.648316, -0.727142, -0.880224, -95.757416, -163.072159, -880.606628, 13.727756, 100.772374
1759228115.584790, 3.499275, 1.540669, -0.823156, -2.680733, -0.375716, -0.694171, -96.275208, -162.827637, -879.193420, 13.727756, 100.772374
1759228115.605167, 2.851943, -0.985214, -0.010624, -2.217789, 0.002734, -0.343743, -96.672745, -162.863495, -877.771851, 13.727756, 100.772374
1759228115.625165, 2.793285, -2.270002, 1.259799, -1.370424, 0.454211, -0.047907, -96.556244, -162.787628, -876.877930, 13.727756, 100.772374
1759228115.645148, 2.009184, -0.414347, 1.573888, -0.220101, 0.738007, 0.235523, -96.247696, -162.843567, -876.584717, 13.727756, 100.772374
1759228115.665174, 0.790386, 1.551592, 1.752855, 1.024331, 1.005751, 0.376079, -96.279724, -162.982651, -876.611328, 13.727756, 100.772374
1759228115.685180, 0.421978, 2.226907, 2.867056, 2.215489, 0.986463, 0.216938, -96.027908, -163.227631, -877.449097, 13.727756, 100.772374
1759228115.705180, -1.828871, 2.841319, 5.903802, 3.193320, 1.028062, -0.076825, -95.890717, -163.185089, -878.601440, 13.727756, 100.772374
1759228115.725196, -6.754342, 4.170550, 6.642114, 3.948948, 2.252541, -0.089659, -95.430679, -163.660889, -880.492493, 13.727756, 100.772374
1759228115.744363, -11.381735, 4.769549, 3.959411, 4.577831, 2.926867, 0.027897, -95.425613, -163.983139, -882.538208, 13.727756, 100.772374
1759228115.765180, -6.612785, 6.606201, 9.199271, 2.777070, 1.335432, 1.001643, -95.056381, -164.260788, -883.807007, 13.727756, 100.772374
1759228115.785012, 6.098481, 51.852722, 15.878495, 2.454260, 2.104556, 2.128850, -94.007507, -164.894302, -884.538147, 13.727756, 100.772374
1759228115.805185, -0.112079, 22.704963, 11.181221, 1.097757, 0.678517, 0.020792, -92.875732, -165.839081, -885.640747, 13.727756, 100.772374
1759228115.825180, 0.273388, 1.831115, -1.251569, 1.810456, 0.829462, -0.570622, -93.477310, -165.445969, -886.494446, 13.727756, 100.772374
1759228115.845154, 3.281253, -1.154604, -2.964171, 2.640605, 1.711478, 0.494888, -93.670517, -165.784424, -887.386475, 13.727756, 100.772374
1759228115.865197, 1.584513, -0.686837, 2.981230, 2.477002, 2.144093, 1.707525, -92.678024, -166.837418, -888.071899, 13.727756, 100.772374
1759228115.884996, -0.564583, 4.288015, 2.625541, 2.478369, 1.689055, 2.401525, -90.876175, -167.912292, -888.902344, 13.727756, 100.772374
1759228115.905198, 4.724209, 15.129708, 0.111779, 2.289611, 1.458888, 3.853826, -89.065002, -169.311630, -889.280945, 13.727756, 100.772374
1759228115.925200, 1.502810, 22.096536, -1.271620, 1.909984, 0.667335, 3.319191, -86.533173, -171.626572, -890.042358, 13.727756, 100.772374
1759228115.944729, -8.501960, 16.556204, 4.347122, 1.487801, -0.174219, 0.429610, -85.804489, -172.952637, -890.994019, 13.727756, 100.772374
1759228115.965031, -5.495591, 10.116400, 5.303606, 0.604901, 0.191887, -0.376348, -86.483047, -172.697937, -891.234802, 13.727756, 100.772374
1759228115.985153, -1.783531, 7.279271, 0.159963, 0.603849, 0.690113, -0.078773, -86.552536, -172.752289, -890.972900, 13.727756, 100.772374
1759228116.004961, -0.539892, 3.993528, -0.206799, 0.960923, 0.222686, 0.000070, -86.661240, -172.895020, -891.216980, 13.727756, 100.772374
1759228116.025183, 0.988057, 3.315371, 0.708833, 0.943646, 0.132490, 0.302951, -86.678574, -173.165131, -891.792786, 13.727756, 100.772374
1759228116.045144, -0.189441, 4.530278, 0.704344, 0.709592, 0.210785, 0.505400, -86.235413, -173.715240, -891.789368, 13.727756, 100.772374
1759228116.065187, -2.287360, 5.657349, -0.357035, 0.864032, -0.312812, 0.356938, -85.968689, -174.158432, -892.444275, 13.727756, 100.772374
1759228116.085170, -2.888455, 6.570587, -1.289427, 1.117171, -0.357323, 0.200750, -85.696671, -174.612610, -892.919617, 13.727756, 100.772374
1759228116.105212, -2.757073, 6.861782, 0.583287, 1.036207, -0.435137, 0.052920, -85.987488, -174.831192, -893.487915, 13.727756, 100.772374
1759228116.125176, -1.099836, 7.740454, 3.620631, 0.645843, -0.369050, 0.006959, -86.358170, -175.055283, -893.533386, 13.727756, 100.772374
1759228116.145152, -0.083647, 10.045771, 1.501613, 0.611532, 0.363514, 0.275208, -86.147247, -175.284286, -893.610718, 13.727756, 100.772374
1759228116.165213, -0.387711, 11.826009, -0.813280, 0.924589, 0.297036, 0.711287, -85.877274, -175.661240, -893.579895, 13.727756, 100.772374
1759228116.185151, 0.525677, 12.734759, 3.660884, 0.597618, -0.714582, 1.103619, -85.407532, -176.512482, -893.818665, 13.727756, 100.772374
1759228116.205226, -3.535338, 14.389002, 4.983531, 0.342294, -1.101424, 1.003070, -85.298859, -177.213898, -894.695374, 13.727756, 100.772374
1759228116.225173, -6.410924, 15.714792, 2.133832, 0.488641, -0.600863, 0.450773, -85.172226, -177.767776, -895.143921, 13.727756, 100.772374
1759228116.244349, -2.950554, 16.885556, 1.466748, 0.475191, 0.180210, 0.123766, -85.477478, -177.984146, -895.278259, 13.727756, 100.772374
1759228116.265180, 0.832584, 16.857574, 4.370765, -0.349794, 0.739927, 0.103888, -85.636826, -178.039749, -895.260498, 13.727756, 100.772374
1759228116.285150, 1.845181, 18.086548, 5.113865, -1.391455, -0.017217, 0.074972, -85.011887, -177.860474, -894.451355, 13.727756, 100.772374
1759228116.305192, 0.213832, 15.717784, 5.407604, -2.064652, -0.382591, -0.286392, -85.496292, -177.138336, -893.775818, 13.727756, 100.772374
1759228116.324691, 2.655619, 14.725388, 4.422539, -2.247021, 0.608480, -0.473560, -85.738434, -176.326355, -892.894287, 13.727756, 100.772374
1759228116.344727, 5.344457, 15.426589, 5.383512, -2.556227, 0.985648, -0.629194, -85.681656, -175.600708, -891.805115, 13.727756, 100.772374
1759228116.365211, 4.241328, 15.590742, 5.817910, -3.895237, 0.390035, -0.488055, -85.723328, -174.472748, -890.381287, 13.727756, 100.772374
1759228116.385186, 1.353472, 14.260613, 0.302418, -4.249382, 0.380615, -0.255232, -85.572067, -173.418167, -888.953857, 13.727756, 100.772374
1759228116.405177, 0.612167, 11.909208, -4.992509, -3.358026, 0.766908, -0.292301, -86.063126, -172.629471, -887.135193, 13.727756, 100.772374
1759228116.425179, 2.195633, 8.926781, -2.004096, -2.991539, 0.856952, -0.352234, -86.056198, -171.957291, -885.563599, 13.727756, 100.772374
1759228116.445158, 4.547487, 7.906701, 0.580444, -3.166505, 0.329295, 0.035482, -85.890274, -171.716309, -884.187988, 13.727756, 100.772374
1759228116.465181, 4.599411, 6.842329, 1.121833, -3.592317, -1.147764, 0.307562, -86.049988, -171.680939, -883.313049, 13.727756, 100.772374
1759228116.484905, 1.975516, 5.468806, 1.295113, -3.795396, -1.258574, -0.148136, -85.484589, -171.687210, -882.223755, 13.727756, 100.772374
1759228116.504870, -6.679224, 6.980295, 2.566734, -3.480410, 0.636623, -1.464311, -86.083832, -170.965698, -880.649414, 13.727756, 100.772374
1759228116.524575, -1.814057, 8.972420, 2.912696, -2.861369, 0.226729, -1.314372, -86.757965, -170.366348, -879.042542, 13.727756, 100.772374
1759228116.544720, 1.652598, 6.915203, 1.972074, -2.965034, 0.121461, -0.925943, -87.196365, -170.018677, -878.035522, 13.727756, 100.772374
1759228116.565175, 2.774431, 4.828506, 0.697162, -2.943702, -0.130820, -0.676051, -87.729828, -169.739059, -876.978394, 13.727756, 100.772374
1759228116.585179, 1.761235, 2.404527, 0.159065, -2.397586, -0.013347, -0.311073, -88.152710, -169.735428, -875.646973, 13.727756, 100.772374
1759228116.605175, 0.630124, -0.819416, 0.767192, -1.597352, 0.196252, 0.039578, -88.428986, -169.898132, -875.040955, 13.727756, 100.772374
1759228116.625172, 0.971597, -2.306813, 1.415871, -0.644781, 0.368039, 0.242116, -88.402695, -169.833328, -874.253723, 13.727756, 100.772374
1759228116.645150, 1.462109, -0.939874, 1.623718, 0.547647, 0.816277, 0.441394, -88.028061, -170.302078, -874.011719, 13.727756, 100.772374
1759228116.665183, 1.201740, 0.434997, 3.846884, 1.553467, 1.181847, 0.509075, -88.037018, -170.074585, -874.665771, 13.727756, 100.772374
1759228116.685179, 0.311994, 0.479738, 5.632359, 2.595955, 1.508108, 0.476389, -87.948318, -170.155045, -875.376099, 13.727756, 100.772374
1759228116.705202, -2.945317, 0.208595, 5.411794, 3.306660, 2.425052, 0.624973, -87.805283, -170.399933, -875.657837, 13.727756, 100.772374
1759228116.725153, -4.707898, 0.991349, 8.796147, 3.239377, 1.787234, 1.036941, -87.410370, -170.826721, -876.334290, 13.727756, 100.772374
1759228116.745158, -0.540042, 5.545420, 12.440122, 3.447183, 0.010275, 1.682796, -86.317337, -171.103073, -877.894165, 13.727756, 100.772374
1759228116.765195, 6.516867, 47.481358, 18.975545, 2.108713, 2.104265, 2.580289, -85.515778, -172.192795, -877.683838, 13.727756, 100.772374
1759228116.785182, 3.296067, 29.509134, 9.281721, 0.443793, 0.954193, 1.475764, -85.244171, -172.654083, -878.046448, 13.727756, 100.772374
1759228116.805182, -2.735525, 0.554557, -7.747188, 1.628979, 1.941654, 0.212537, -85.351624, -172.690308, -877.984924, 13.727756, 100.772374
1759228116.825177, 0.814777, -2.596811, 1.726219, 2.679365, 2.158355, 0.749930, -84.834793, -173.050018, -877.941650, 13.727756, 100.772374
1759228116.845153, -0.553809, 0.083947, 2.760215, 2.742803, 2.208347, 1.242866, -84.306580, -173.623825, -878.038269, 13.727756, 100.772374
1759228116.865156, -1.001076, 5.748179, -1.485004, 2.654539, 2.217066, 1.730241, -83.557251, -174.453674, -878.048096, 13.727756, 100.772374
1759228116.885183, 0.848445, 14.645631, -2.454206, 3.090683, 2.049798, 2.729748, -82.598785, -175.372894, -878.384766, 13.727756, 100.772374
1759228116.905186, -0.131232, 26.531944, -2.094328, 3.115831, 2.310297, 2.556282, -81.301926, -177.152847, -878.211060, 13.727756, 100.772374
1759228116.925188, -8.274959, 16.143803, 4.261080, 2.460293, 1.152511, 0.272997, -81.525314, -177.029602, -878.662842, 13.727756, 100.772374
1759228116.945157, -5.883302, 7.472902, 7.495348, 1.481739, -0.143409, -0.516890, -82.072021, -176.696350, -878.829407, 13.727756, 100.772374
1759228116.965180, -1.575385, 5.508310, 2.729390, 1.097007, -0.128369, 0.023789, -82.211548, -176.783081, -879.261536, 13.727756, 100.772374
1759228116.985181, 0.017208, 3.679888, 1.583914, 0.972140, -0.205399, 0.253009, -81.881973, -176.853683, -879.801025, 13.727756, 100.772374
1759228117.005177, 1.279102, 4.096180, 1.080234, 1.190555, -0.683736, 0.209884, -82.002762, -177.114319, -880.674683, 13.727756, 100.772374
1759228117.025184, 1.132008, 5.507861, 0.677858, 1.161706, -0.593563, 0.289327, -81.496552, -177.270050, -880.745850, 13.727756, 100.772374
1759228117.045151, -0.993594, 6.644359, 0.618901, 1.019283, -0.627463, 0.161799, -81.440079, -177.638031, -881.578613, 13.727756, 100.772374
1759228117.065168, -2.900725, 6.574627, -0.594809, 1.002892, -0.344280, -0.130975, -81.731888, -177.623672, -882.226501, 13.727756, 100.772374
1759228117.085164, -3.014001, 6.274754, 0.273687, 1.070097, -0.094835, -0.392523, -82.048737, -177.477112, -882.632874, 13.727756, 100.772374
1759228117.105165, -1.405097, 6.602610, -0.378733, 1.219740, -0.107075, -0.446254, -82.187439, -177.460770, -882.901184, 13.727756, 100.772374
1759228117.125162, 0.856825, 7.962965, -0.468366, 1.211989, -0.005532, -0.244108, -82.657593, -177.369247, -883.132874, 13.727756, 100.772374
1759228117.145153, 3.423858, 10.479570, -0.104297, 1.233529, 0.031108, 0.439402, -82.559738, -177.328400, -883.012207, 13.727756, 100.772374
1759228117.165170, 2.936937, 11.077073, 2.258031, 0.730960, -0.418048, 1.172981, -82.134598, -177.919388, -883.778320, 13.727756, 100.772374
1759228117.184807, -3.208081, 13.239037, 1.748216, 0.746380, -1.319224, 1.040215, -81.310638, -178.925003, -884.292114, 13.727756, 100.772374
1759228117.205191, -6.711845, 16.664691, 1.199794, 0.907751, -1.040108, 0.447139, -81.126633, -179.632050, -884.881592, 13.727756, 100.772374
1759228117.225173, -5.751920, 18.490868, 3.459172, 0.669762, -0.264217, 0.016474, -81.327988, -179.749329, -885.544250, 13.727756, 100.772374
1759228117.245155, 0.157119, 21.042040, 6.083367, 0.050524, 0.023642, 0.011619, -81.661301, -179.578033, -885.547729, 13.727756, 100.772374
1759228117.265171, 2.388665, 21.030667, 7.630470, -1.384832, 0.577339, 0.374619, -81.731522, -179.522598, -885.173340, 13.727756, 100.772374
1759228117.285171, 0.835876, 19.885640, 5.367800, -2.355572, -0.797411, 0.260524, -81.457977, -179.957443, -884.999878, 13.727756, 100.772374
1759228117.304211, -2.108394, 15.981446, 3.198205, -2.909183, -1.153295, 0.091755, -81.736389, -179.368195, -884.595825, 13.727756, 100.772374
1759228117.325253, -1.609502, 14.035558, 3.086575, -3.200975, -0.218503, -0.118185, -81.676239, -179.160156, -884.137207, 13.727756, 100.772374
1759228117.344341, -2.335993, 12.297817, 1.930026, -3.655353, 0.738580, -0.673231, -81.895920, -178.834030, -882.815918, 13.727756, 100.772374
1759228117.365179, -3.235015, 12.206688, 1.195006, -3.623241, 0.703731, -1.150362, -82.285172, -177.985306, -881.750671, 13.727756, 100.772374
1759228117.384585, -1.674295, 13.491925, -1.543512, -2.867050, 0.214754, -1.222993, -82.573822, -177.599625, -880.425293, 13.727756, 100.772374
1759228117.405177, -1.185279, 13.597419, 0.899921, -3.103539, 0.517734, -1.399356, -83.264420, -176.878891, -879.498962, 13.727756, 100.772374
1759228117.425237, 3.088071, 11.127950, 1.149666, -3.560513, 0.981998, -1.402249, -83.957092, -176.119659, -877.977966, 13.727756, 100.772374
1759228117.445147, 5.054908, 8.773103, -0.689081, -3.568553, -0.249915, -1.029600, -84.506348, -175.725723, -876.829346, 13.727756, 100.772374
1759228117.465170, 2.219724, 6.298097, -3.301454, -2.622431, -2.325906, -0.730587, -84.354202, -175.759811, -876.667114, 13.727756, 100.772374
1759228117.484543, -2.786551, 6.064962, 0.456095, -2.955979, -2.149778, -1.412750, -83.653427, -176.261581, -876.927673, 13.727756, 100.772374
1759228117.505159, -2.436998, 10.438121, 3.900005, -3.884471, -1.337493, -1.958913, -85.022247, -175.375381, -876.078857, 13.727756, 100.772374
1759228117.525160, 0.018106, 7.095666, -0.773926, -3.410001, -2.151850, -1.423140, -85.640137, -174.808563, -875.438477, 13.727756, 100.772374
1759228117.545146, 1.387440, 3.706523, -0.083498, -3.341528, -1.918713, -1.209868, -86.156677, -174.691772, -875.205688, 13.727756, 100.772374
1759228117.565158, 3.101838, 1.692701, 0.300921, -3.295945, -1.837343, -0.976918, -86.362976, -174.430008, -874.793518, 13.727756, 100.772374
1759228117.585157, 3.395277, 0.070479, -0.164003, -2.725345, -1.152274, -0.864949, -86.825485, -174.203934, -873.990845, 13.727756, 100.772374
1759228117.605159, 3.039140, 0.220566, 0.240767, -2.037014, -0.509598, -0.714079, -87.196335, -174.119156, -873.987854, 13.727756, 100.772374
1759228117.625157, 1.213860, 0.492757, 0.502034, -1.274541, -0.102407, -0.431508, -87.189407, -174.044556, -873.196045, 13.727756, 100.772374
1759228117.645136, 0.509815, 0.591218, 1.211765, -0.341995, 0.000977, -0.169244, -87.443451, -174.239288, -872.934814, 13.727756, 100.772374
1759228117.665152, 0.190189, 0.235380, 2.750190, 0.529325, 0.170768, 0.021946, -87.494141, -174.074905, -873.314209, 13.727756, 100.772374
1759228117.685174, -2.567482, 0.757316, 4.921132, 1.206328, 0.783118, -0.144939, -87.339417, -174.378464, -873.462769, 13.727756, 100.772374
1759228117.705232, -4.814740, 1.090708, 7.185598, 1.802862, 1.035351, -0.579197, -87.463135, -174.263947, -873.692627, 13.727756, 100.772374
1759228117.725187, -6.320692, 2.282572, 8.987983, 2.362749, 1.064244, -0.767819, -88.149475, -174.038940, -874.187988, 13.727756, 100.772374
1759228117.745147, -6.035782, 2.076222, 6.747010, 2.903023, 0.772712, -0.415465, -88.409470, -173.625122, -874.963989, 13.727756, 100.772374
1759228117.765191, -2.918382, -0.211139, 6.985383, 3.263855, 1.315040, -0.040460, -88.735153, -173.677231, -875.720154, 13.727756, 100.772374
1759228117.785144, -4.506785, 13.550882, 41.438094, -1.214668, -1.236284, 0.143176, -87.345230, -174.566101, -875.622131, 13.727756, 100.772374
1759228117.805160, 13.136985, 53.736659, -12.486211, 3.564698, 0.616254, 1.662208, -88.184357, -174.136642, -875.696655, 13.727756, 100.772374
1759228117.825193, -1.890521, 6.281038, 6.817789, 1.155912, 0.955277, 1.233400, -87.768982, -174.677200, -876.210449, 13.727756, 100.772374
1759228117.845152, -0.213832, -5.685630, -1.321599, 1.984591, 1.012844, 0.075473, -88.072495, -174.664490, -876.581177, 13.727756, 100.772374
1759228117.865159, -1.007959, -5.830480, 2.587384, 3.051048, 2.406750, 0.149432, -87.885849, -174.938126, -876.753235, 13.727668, 100.772492
1759228117.885141, 4.538957, 8.545205, 6.866870, 2.208018, 2.612378, 0.581561, -87.636887, -175.052658, -876.453369, 13.727668, 100.772492
1759228117.905186, 9.245359, 26.340408, -0.397138, 2.455742, 2.893623, 2.974942, -86.544144, -176.091705, -876.345886, 13.727668, 100.772492
1759228117.925188, -9.182512, 19.549854, 1.042226, 2.708606, 2.127918, 2.416274, -85.043884, -177.422882, -876.668884, 13.727668, 100.772492
1759228117.945147, -6.901885, 10.067618, 2.029834, 1.959171, 1.159391, 0.810238, -85.451828, -177.292145, -876.664673, 13.727668, 100.772492
1759228117.965178, -2.204312, 7.988553, 0.289249, 1.686510, 0.490934, 0.864395, -85.360870, -177.597488, -877.305908, 13.727668, 100.772492
1759228117.985169, -1.327435, 7.932140, 0.960374, 1.821995, 0.362774, 1.298399, -84.794174, -178.074982, -877.197693, 13.727668, 100.772492
1759228118.005167, -1.684620, 7.532607, 3.605518, 1.821524, -0.102944, 1.429895, -84.401169, -178.721176, -878.091370, 13.727668, 100.772492
1759228118.025166, -2.356194, 6.941240, 2.964321, 1.648320, -0.564876, 1.362727, -84.100357, -179.549362, -878.966553, 13.727668, 100.772492
1759228118.045146, -2.159420, 6.927024, 1.685967, 1.548135, -0.486842, 1.186602, -83.827820, -180.037399, -879.700745, 13.727668, 100.772492
1759228118.065208, -2.855235, 6.600814, 1.708861, 1.546356, -0.866921, 0.786074, -83.571732, -180.399216, -880.035400, 13.727668, 100.772492
1759228118.084910, -2.338088, 7.051822, 2.547879, 1.389948, -1.015693, 0.284018, -83.363052, -180.741455, -880.587585, 13.727668, 100.772492
1759228118.105172, -2.412308, 7.234380, 2.596811, 1.172901, -0.457153, 0.329859, -83.444611, -180.939896, -881.316040, 13.727668, 100.772492
1759228118.125186, -3.448548, 6.946926, 1.637933, 0.963436, -0.442366, 0.134787, -83.659409, -181.227509, -881.752197, 13.727668, 100.772492
1759228118.145147, -2.024298, 8.428039, -0.095319, 1.152179, -0.293517, -0.257684, -83.656784, -181.015472, -882.008484, 13.727668, 100.772492
1759228118.165152, 0.415544, 9.855133, 2.888604, 1.041555, 0.213040, -0.282503, -83.531525, -181.053909, -881.450806, 13.727668, 100.772492
1759228118.185173, -1.520019, 10.140043, 3.465308, 0.413921, -0.013347, -0.040129, -83.455994, -181.403183, -881.766052, 13.727668, 100.772492
1759228118.205171, -3.637690, 9.783606, 0.498443, 0.211393, -0.160907, -0.122263, -83.696198, -181.238007, -881.996216, 13.727668, 100.772492
1759228118.225172, -0.444424, 9.898677, 0.829142, 0.197334, -0.221239, -0.153756, -83.921326, -181.340607, -882.103149, 13.727668, 100.772492
1759228118.245134, 2.103755, 10.195857, 1.261744, -0.027200, -0.266285, 0.208779, -83.958618, -181.462250, -882.063599, 13.727668, 100.772492
1759228118.265144, 1.460912, 9.097068, 0.034866, -0.151726, -0.067060, 0.386052, -83.870514, -181.666367, -881.885864, 13.727668, 100.772492
1759228118.285170, 1.440262, 8.454974, -0.541838, 0.049706, 0.127348, 0.491377, -83.918060, -182.072861, -882.053528, 13.727668, 100.772492
1759228118.305159, 0.206949, 8.801534, 0.773776, 0.237422, 0.072637, 0.789356, -83.701569, -182.728317, -882.020142, 13.727668, 100.772492
1759228118.325188, -3.187730, 9.289203, -1.766322, 0.453682, 0.152013, 0.934974, -83.221313, -183.340225, -881.996582, 13.727668, 100.772492
1759228118.345145, -2.798822, 11.226711, -2.556858, 0.735230, 0.119936, 0.838398, -82.960739, -183.901184, -881.727417, 13.727668, 100.772492
1759228118.365164, -0.601244, 12.720992, -0.900669, 0.858126, 0.200638, 0.701519, -83.167343, -184.412567, -881.912598, 13.727668, 100.772492
1759228118.385150, 2.298733, 14.070873, 0.974290, 0.807561, 0.358560, 0.779998, -82.706543, -184.956360, -881.812256, 13.727668, 100.772492
1759228118.405163, 0.051475, 17.977462, 1.799691, 0.548996, -0.104818, 0.747187, -82.590485, -185.571121, -882.093079, 13.727668, 100.772492
1759228118.425157, -0.853982, 19.256714, -0.265008, 0.268000, -0.611384, 0.751234, -82.434311, -186.145538, -881.968567, 13.727668, 100.772492
1759228118.445151, 1.057339, 16.545729, 2.597559, -0.024782, -0.367495, 0.948248, -81.958115, -186.728760, -882.309753, 13.727668, 100.772492
1759228118.465159, 1.832312, 15.426440, 3.361908, -0.478787, -0.513632, 0.998039, -82.109283, -187.387497, -882.559387, 13.727668, 100.772492
1759228118.485144, 0.748936, 12.036998, 1.795352, -1.008814, -0.105182, 0.484677, -82.027618, -187.520111, -882.368652, 13.727668, 100.772492
1759228118.505217, 0.430358, 9.272593, 1.832013, -1.350589, 0.489351, -0.189977, -82.004471, -187.512634, -882.133179, 13.727668, 100.772492
1759228118.524736, -0.796970, 9.626636, 2.017713, -1.634130, 0.542550, -0.693943, -81.778824, -187.451324, -881.589478, 13.727668, 100.772492
1759228118.545145, -2.444779, 9.762357, 1.792658, -1.900648, 0.240393, -1.078808, -81.650620, -187.166138, -881.524231, 13.727668, 100.772492
1759228118.565153, -0.973093, 10.038738, 0.218621, -1.948476, 0.352508, -1.254094, -81.495926, -186.588684, -881.001587, 13.727668, 100.772492
1759228118.585136, 1.985841, 10.157251, -0.669329, -1.815277, 1.081007, -1.168108, -81.323303, -186.195038, -880.153687, 13.727668, 100.772492
1759228118.605174, 6.209512, 10.204387, 0.449062, -1.589577, 1.307318, -0.873567, -81.486404, -185.848663, -879.743958, 13.727668, 100.772492
1759228118.624371, 8.995913, 9.075670, 2.979883, -1.568330, -0.117056, -0.311431, -81.400391, -185.770874, -879.677551, 13.727668, 100.772492
1759228118.645124, 7.596503, 7.208343, 0.673070, -1.831016, -0.597161, 0.024286, -81.096832, -185.955322, -879.842651, 13.727668, 100.772492
1759228118.664825, 5.488857, 5.713463, -2.907608, -1.581482, 0.350878, -0.038460, -81.076004, -185.840256, -879.955200, 13.727668, 100.772492
1759228118.685073, 3.053655, 5.329493, -1.269974, -0.923745, 0.695056, 0.076444, -80.676270, -186.195435, -879.382812, 13.727668, 100.772492
1759228118.705173, 0.242862, 6.538265, 2.535011, -0.781892, 0.674701, 0.079632, -80.244095, -186.526871, -878.881348, 13.727668, 100.772492
1759228118.725173, -1.294964, 9.630826, 4.117578, -1.204653, 1.322135, -0.115720, -79.784195, -186.602066, -878.600586, 13.727668, 100.772492
1759228118.745145, 0.625036, 9.295338, -1.222689, -0.836721, 1.855152, -0.268347, -80.035583, -186.429398, -877.583984, 13.727668, 100.772492
1759228118.765160, 0.232387, 7.645584, -2.155679, -0.230719, 1.856414, -0.429769, -80.141052, -186.233749, -876.848877, 13.727668, 100.772492
1759228118.785166, -0.033220, 6.892158, 1.044321, -0.016657, 1.349373, -0.732706, -80.130905, -186.045624, -876.249023, 13.727668, 100.772492
1759228118.805213, 1.830966, 6.571485, 3.216760, -0.146679, 0.671064, -0.715161, -80.147446, -185.552216, -875.330078, 13.727668, 100.772492
1759228118.825203, 2.847604, 6.167463, 2.136675, -0.049323, 0.759227, -0.440355, -80.171234, -185.262085, -875.141357, 13.727668, 100.772492
1759228118.845142, 2.685396, 5.585224, 1.789217, 0.399600, 0.884353, -0.131457, -80.450378, -185.142380, -875.003113, 13.727668, 100.772492
1759228118.865159, 1.604714, 4.958092, 1.203685, 0.925382, 0.945867, 0.289686, -80.449921, -185.180756, -874.434326, 13.727668, 100.772492
1759228118.885168, 0.232686, 4.297742, 0.275782, 1.251753, 1.007170, 0.689198, -80.167679, -185.388229, -873.961975, 13.727668, 100.772492
1759228118.905167, -0.191386, 3.978565, -0.518045, 1.368245, 0.508595, 0.999282, -80.223709, -185.762802, -874.166199, 13.727668, 100.772492
1759228118.925202, -0.282217, 4.282927, -1.085621, 1.214008, -0.451754, 1.104417, -79.791794, -186.347214, -874.334473, 13.727668, 100.772492
1759228118.944861, -0.337283, 5.884648, -0.729184, 1.318533, -1.325946, 1.001452, -79.791580, -187.037704, -875.036011, 13.727668, 100.772492
1759228118.965161, -1.562665, 9.835829, 0.459537, 2.434713, -2.176883, 0.490209, -79.528381, -187.227814, -876.479248, 13.727668, 100.772492
1759228118.985137, -1.271770, 27.947815, 8.008904, 3.807364, -0.051827, -0.421416, -79.511047, -187.196243, -877.046509, 13.727668, 100.772492
1759228119.005174, -4.245967, 27.739669, 3.369091, 1.903907, 4.820731, -1.252286, -79.898102, -186.351059, -875.167358, 13.727668, 100.772492
1759228119.025162, 1.591097, 9.950751, 6.422147, -0.644265, 2.715393, -0.612110, -80.416809, -185.871277, -873.578003, 13.727668, 100.772492
1759228119.045133, 4.854094, 3.476082, 4.776881, -0.628837, -1.354188, -0.273025, -80.291641, -185.803162, -873.974976, 13.727668, 100.772492
1759228119.065169, 5.640290, 2.303372, -1.179144, -0.687830, -1.011475, 0.416079, -80.524200, -185.820084, -874.582947, 13.727668, 100.772492
1759228119.085170, 4.424934, 3.716100, -0.448913, -0.115537, -0.655814, 1.128526, -79.792633, -186.629959, -874.902832, 13.727668, 100.772492
1759228119.105202, 2.015918, 8.792855, -0.183456, 0.237351, -1.048102, 1.201697, -79.330963, -187.371399, -875.268188, 13.727668, 100.772492
1759228119.125168, -0.489614, 13.195942, -1.480814, 0.182883, -0.749323, 0.932592, -78.905045, -187.957108, -875.763916, 13.727668, 100.772492
1759228119.145140, -2.182464, 12.844892, -0.749984, 0.318373, 0.615662, 0.761626, -78.959793, -188.344330, -875.788452, 13.727668, 100.772492
1759228119.165164, -3.213468, 9.772383, 1.670405, 0.346753, 0.543721, 0.547521, -79.243820, -188.725128, -875.536377, 13.727668, 100.772492
1759228119.185160, -2.854038, 8.021623, 2.132934, 0.344831, -0.043628, 0.097028, -79.085083, -188.672714, -875.039246, 13.727668, 100.772492
1759228119.205172, 0.342221, 9.145102, 0.958578, 0.225553, -0.044704, -0.147885, -79.302246, -188.368774, -875.126099, 13.727668, 100.772492
1759228119.225168, 2.190395, 10.296115, 0.889745, 0.202386, -0.101512, -0.172370, -79.361526, -188.299759, -875.188477, 13.727668, 100.772492
1759228119.244710, 2.814683, 10.115502, 0.998681, 0.067827, -0.264671, -0.030730, -79.335632, -188.450745, -875.286865, 13.727668, 100.772492
1759228119.265207, 1.666065, 9.584887, 0.699107, 0.039306, -0.060136, 0.144839, -79.179840, -188.753418, -875.492004, 13.727668, 100.772492
1759228119.285165, 0.533159, 10.102035, 0.909647, 0.115113, -0.029997, 0.156364, -79.008026, -188.501251, -875.590149, 13.727668, 100.772492
1759228119.305165, -0.063596, 9.890896, 0.877475, 0.033380, 0.026569, 0.125170, -79.260529, -188.674454, -875.517578, 13.727668, 100.772492
1759228119.325163, 0.566378, 9.293094, 0.458639, 0.005794, 0.098971, 0.056310, -79.147934, -188.742813, -875.638794, 13.727668, 100.772492
1759228119.344716, 1.309329, 9.087342, 0.632069, 0.052244, 0.187697, 0.040642, -79.156479, -188.720963, -875.517273, 13.727668, 100.772492
1759228119.365160, 1.293767, 9.433603, 0.988356, -0.013559, 0.247562, 0.090661, -79.303680, -188.971542, -875.454041, 13.727668, 100.772492
1759228119.385164, 0.795922, 9.894338, 1.379808, -0.076449, 0.237466, 0.088393, -78.842499, -188.810806, -875.244751, 13.727668, 100.772492
1759228119.405168, 0.251092, 10.056545, 2.148197, -0.148487, 0.181652, 0.059145, -78.886749, -188.998291, -875.197510, 13.727668, 100.772492
1759228119.425204, -0.504279, 9.989657, 2.754080, -0.281163, 0.158199, -0.018133, -78.910568, -188.986008, -874.959229, 13.727668, 100.772492
1759228119.445141, -0.924311, 10.213515, 3.046472, -0.431588, 0.276791, -0.197339, -78.931213, -188.758575, -874.769653, 13.727668, 100.772492
1759228119.465164, -0.877325, 10.331579, 3.026570, -0.659536, 0.659784, -0.491059, -79.277176, -188.527405, -874.268799, 13.727668, 100.772492
1759228119.485170, -0.067487, 10.385149, 2.816928, -0.891868, 0.898073, -0.706590, -79.152039, -188.519989, -873.625549, 13.727668, 100.772492
1759228119.505165, 0.739659, 10.684723, 2.148796, -0.980734, 0.915481, -0.793025, -79.402863, -188.128250, -873.298279, 13.727668, 100.772492
1759228119.525258, 0.909348, 11.140520, 2.315642, -0.868870, 0.850878, -0.880080, -79.335648, -187.814728, -872.501953, 13.727668, 100.772492
1759228119.545140, 1.582418, 10.696694, 3.921702, -1.083816, 0.905057, -0.730060, -79.539932, -187.596664, -872.394348, 13.727668, 100.772492
1759228119.565182, 0.629226, 9.203910, 1.898452, -1.182171, 0.580965, -0.480581, -79.514862, -187.680557, -871.821777, 13.727668, 100.772492
1759228119.585166, 0.985513, 9.181015, 2.586336, -1.008997, 0.364036, -0.213268, -79.468765, -187.561050, -871.350647, 13.727668, 100.772492
1759228119.605163, 0.723647, 9.141062, 3.369390, -1.014825, 0.206047, -0.010661, -79.638153, -187.785934, -871.336182, 13.727668, 100.772492
1759228119.625161, -0.350302, 8.608502, 2.024597, -0.802459, 0.362428, 0.110500, -79.670700, -187.999023, -871.040344, 13.727668, 100.772492
1759228119.645145, -0.856226, 8.235754, 2.365621, -0.545472, 0.471783, 0.135182, -79.516357, -188.191299, -870.742310, 13.727668, 100.772492
1759228119.665168, -1.266383, 8.082376, 2.562843, -0.488018, 0.330538, 0.058900, -79.538620, -188.223465, -870.186340, 13.727668, 100.772492
1759228119.685159, -1.439364, 7.949947, 2.253991, -0.387179, 0.158846, 0.031958, -79.430267, -188.318008, -870.439148, 13.727668, 100.772492
1759228119.705177, -1.750461, 7.907450, 2.466177, -0.226504, 0.059144, -0.015233, -79.526581, -188.640976, -870.475891, 13.727668, 100.772492
1759228119.725161, -1.460912, 8.031499, 3.535488, -0.255348, -0.386517, -0.077952, -79.490952, -188.680634, -870.794678, 13.727668, 100.772492
1759228119.745139, -1.001375, 7.810335, 2.201468, -0.065548, -0.228433, -0.075008, -79.216400, -188.614502, -870.964417, 13.727668, 100.772492
1759228119.765200, -0.688782, 7.404817, 3.153762, 0.139900, -0.057765, -0.094626, -79.181625, -188.608185, -870.439514, 13.727668, 100.772492
1759228119.785228, -0.353145, 7.844302, 3.899257, 0.090030, -0.130320, -0.051761, -79.013306, -188.687393, -870.860474, 13.727668, 100.772492
1759228119.805160, -0.598700, 8.092402, 4.357896, 0.120386, 0.065561, 0.038383, -79.181412, -188.696747, -870.554626, 13.727668, 100.772492
1759228119.825162, -0.776769, 7.893833, 5.108329, 0.073215, 0.175019, 0.165932, -79.087646, -188.631699, -870.633606, 13.727668, 100.772492
1759228119.845144, -1.023820, 7.735217, 5.538237, -0.003286, 0.132834, 0.318661, -78.786942, -189.079758, -870.402283, 13.727668, 100.772492
1759228119.865170, -1.054496, 7.868244, 5.884648, -0.097185, 0.157305, 0.424960, -78.729401, -189.575974, -870.338135, 13.727668, 100.772492
1759228119.885162, -1.158345, 8.198495, 4.976049, -0.120847, 0.289893, 0.430103, -78.509521, -189.837891, -869.927673, 13.727668, 100.772492
1759228119.905167, -1.225083, 7.880814, 3.837606, 0.264831, 0.385334, 0.307407, -78.800461, -190.272415, -869.949768, 13.727668, 100.772492
1759228119.925181, -1.035492, 7.719804, 3.526509, 0.324533, 0.419090, 0.278102, -78.717957, -190.312637, -869.603210, 13.727668, 100.772492
1759228119.944710, -0.096367, 10.207679, 2.075324, 0.571980, 0.647878, 0.207434, -78.362045, -190.496811, -869.318665, 13.727668, 100.772492
1759228119.965150, 2.761861, 16.345215, 3.320907, 0.708867, 0.324314, 0.140847, -78.041763, -190.667419, -868.994202, 13.727668, 100.772492
1759228119.985147, -0.792181, 16.769886, 9.616910, 0.109045, 0.993073, -0.391561, -78.375443, -190.551910, -868.352295, 13.727668, 100.772492
1759228120.004705, 0.726640, 9.198224, -0.584484, 0.515081, 1.616949, -0.450879, -78.897903, -189.920700, -867.054321, 13.727668, 100.772492
1759228120.025151, 2.717868, 4.643404, -0.231040, 1.164766, 1.593364, -0.151489, -79.207642, -189.643723, -866.227783, 13.727668, 100.772492
1759228120.045143, 4.380940, 4.343082, -0.986710, 0.992433, 1.150905, 0.559182, -78.872650, -189.716690, -865.682556, 13.727668, 100.772492
1759228120.065181, 3.699939, 7.652467, -1.075595, 0.954057, 0.600541, 1.209836, -79.215256, -189.901016, -865.621704, 13.727668, 100.772492
1759228120.085149, 1.632696, 11.385027, -1.293767, 0.983701, 0.173865, 1.352796, -78.746201, -190.711578, -865.049927, 13.727668, 100.772492
1759228120.105157, -0.788889, 14.035708, -1.780089, 0.779863, 0.111038, 0.930455, -78.457886, -191.208664, -865.150146, 13.727668, 100.772492
1759228120.125148, -4.096180, 13.824270, -1.813308, 1.215638, 0.582454, 0.110946, -78.312881, -191.410553, -864.957458, 13.727668, 100.772492
1759228120.145138, -3.211822, 9.329156, 0.591817, 1.265988, 1.459479, -0.502879, -78.863693, -191.036896, -864.372192, 13.727668, 100.772492
1759228120.165097, 0.465223, 7.666383, 1.893365, 0.916618, 1.797341, -0.587331, -79.496399, -190.262726, -863.456604, 13.727668, 100.772492
1759228120.185216, 3.162740, 8.518121, 1.122282, 0.671497, 1.580781, -0.184339, -79.572281, -189.767715, -862.799866, 13.727668, 100.772492
1759228120.205182, 3.092560, 9.796026, 0.366911, 0.592277, 1.190756, 0.343063, -79.896194, -189.702927, -861.656006, 13.727668, 100.772492
1759228120.225177, 0.734272, 9.943269, 0.050727, 0.510195, 0.943415, 0.609249, -80.139465, -189.757812, -861.347961, 13.727668, 100.772492
1759228120.245137, -1.241394, 9.747842, -0.350302, 0.566723, 0.800493, 0.435574, -80.194565, -190.192871, -861.217163, 13.727668, 100.772492
1759228120.265165, -2.212392, 9.479243, -1.137695, 0.776123, 1.021639, 0.206989, -80.542419, -189.958954, -860.308472, 13.727668, 100.772492
1759228120.285177, -1.541417, 8.862736, -0.429909, 0.784839, 1.211123, 0.189189, -80.522797, -189.934418, -859.693176, 13.727668, 100.772492
1759228120.305122, -0.763451, 9.128043, 0.021997, 0.807317, 1.266920, 0.152725, -81.042557, -189.679718, -859.073608, 13.727668, 100.772492
1759228120.325179, -0.545728, 9.700407, 0.820762, 0.764543, 1.174451, 0.167981, -81.297699, -189.555588, -858.732483, 13.727668, 100.772492
1759228120.344717, -0.762254, 9.628881, 1.367837, 0.525142, 1.178260, 0.222698, -81.624344, -189.221741, -858.049255, 13.727668, 100.772492
1759228120.365219, -1.041627, 9.606884, 1.094300, 0.395555, 0.974221, 0.259303, -81.819153, -189.494644, -857.530212, 13.727668, 100.772492
1759228120.385170, -0.944213, 9.878177, 0.528071, 0.406798, 0.748274, 0.319042, -81.960663, -189.392441, -856.919312, 13.727668, 100.772492
1759228120.405161, -0.869544, 9.541642, 0.521936, 0.420515, 0.679964, 0.394337, -82.167160, -189.442139, -856.556213, 13.727668, 100.772492
1759228120.425159, -0.856975, 8.957307, 0.791882, 0.370755, 0.552527, 0.511835, -82.070526, -189.555954, -856.093323, 13.727668, 100.772492
1759228120.445138, -1.399411, 9.690830, 0.400131, 0.280467, 0.503482, 0.598709, -81.887909, -189.701904, -855.692078, 13.727668, 100.772492
1759228120.465176, -2.093729, 9.613468, -0.182708, 0.246646, 0.491385, 0.550345, -81.893158, -190.127335, -855.674377, 13.727668, 100.772492
1759228120.485161, -2.228104, 8.963292, -0.509815, 0.366302, 0.545404, 0.433528, -81.395828, -190.143417, -855.116150, 13.727668, 100.772492
1759228120.505153, -2.099565, 9.244761, -0.540641, 0.591498, 0.488068, 0.327809, -81.582275, -190.048309, -855.299561, 13.727668, 100.772492
1759228120.525150, -1.675492, 10.583868, -0.125097, 0.680841, 0.424646, 0.287640, -81.120148, -190.382523, -854.861816, 13.727668, 100.772492
1759228120.545137, -1.616086, 11.069591, 1.491737, 0.439940, 0.115343, 0.271046, -80.985062, -190.141968, -855.288391, 13.727668, 100.772492
1759228120.565195, -2.264615, 11.338191, 2.584092, -0.079777, -0.390011, 0.179669, -80.081146, -190.193069, -855.302307, 13.727668, 100.772492
1759228120.585024, -3.417424, 13.401095, 2.989161, -0.529194, -0.721332, -0.362136, -78.734436, -190.779449, -855.997253, 13.727668, 100.772492
1759228120.604507, -3.030311, 15.526847, 3.195062, -1.300928, -0.489759, -0.964612, -78.144043, -190.759445, -856.263977, 13.727668, 100.772492
1759228120.624237, 0.784251, 15.144373, 3.500772, -2.166633, 0.176091, -1.054796, -77.859024, -190.836960, -856.566589, 13.727668, 100.772492
1759228120.645009, 4.483292, 12.958168, 4.121469, -3.160507, 0.725299, -0.915861, -77.568069, -191.242508, -856.968506, 13.727668, 100.772492
1759228120.665161, 5.398177, 12.470798, 0.366911, -3.485717, 1.428259, -0.905595, -77.470291, -192.209000, -856.362793, 13.727668, 100.772492
1759228120.685164, 6.245874, 12.343307, -0.744297, -2.793802, 1.464213, -1.102843, -77.313507, -192.876709, -855.846497, 13.727668, 100.772492
1759228120.705168, 5.604377, 12.022783, 1.016339, -2.134517, 1.244835, -1.110584, -77.466888, -193.306808, -855.911072, 13.727668, 100.772492
1759228120.724999, 3.131915, 10.996419, 2.380136, -2.222549, 1.420894, -0.815799, -77.549667, -193.756973, -855.428162, 13.727668, 100.772492
1759228120.745129, 1.809268, 10.669909, 1.193061, -2.164414, 1.164536, -0.589307, -78.041245, -193.979858, -855.402466, 13.727668, 100.772492
1759228120.765159, 1.655890, 10.261399, -1.385195, -1.759037, 0.757878, -0.251120, -78.153275, -194.388992, -855.605774, 13.727668, 100.772492
1759228120.785163, 1.103877, 9.914838, -0.976385, -1.410530, 0.858973, -0.252871, -77.988464, -194.946274, -855.722839, 13.727668, 100.772492
1759228120.805166, -1.258303, 9.139416, 2.892196, -1.523047, 0.450448, -0.733626, -78.324860, -195.227707, -855.917603, 13.727668, 100.772492
1759228120.825161, -0.689081, 8.040028, 1.901295, -1.475230, 0.037008, -0.838057, -78.528122, -194.938202, -856.507385, 13.727668, 100.772492
1759228120.844750, 1.713949, 6.318747, 1.453729, -1.229238, 0.197181, -0.557534, -78.522842, -194.632431, -857.007874, 13.727668, 100.772492
1759228120.865157, 2.249801, 4.749348, 0.942268, -0.777533, 0.394099, -0.465078, -79.018341, -194.473572, -856.949890, 13.727668, 100.772492
1759228120.885165, 2.803909, 5.004929, 0.265906, -0.402485, 0.386274, -0.324240, -78.741409, -194.209747, -857.172974, 13.727668, 100.772492
1759228120.905159, 2.817826, 5.798158, 0.160860, -0.176164, 0.186373, -0.045915, -79.123810, -193.906555, -857.590454, 13.727668, 100.772492
1759228120.925159, 2.194884, 6.091747, -0.002095, 0.049676, 0.129875, 0.237378, -79.138824, -193.931229, -857.574097, 13.727668, 100.772492
1759228120.945137, 1.458518, 5.639542, -0.071227, 0.300201, 0.218897, 0.526279, -79.219666, -193.883255, -857.858887, 13.727668, 100.772492
1759228120.965159, 0.907552, 5.192425, 0.207248, 0.599602, 0.307058, 0.782447, -79.300858, -193.685089, -857.962463, 13.727668, 100.772492
1759228120.985160, 0.412701, 5.299865, 1.248726, 0.941062, 0.191765, 0.930368, -79.083725, -193.561249, -857.848877, 13.727668, 100.772492
1759228121.004847, -0.052972, 6.343886, 1.653795, 1.369232, 0.405051, 1.066730, -79.336258, -193.393677, -858.206299, 13.727668, 100.772492
1759228121.025157, -0.758214, 8.066814, 3.583372, 1.456113, 0.683846, 1.097072, -79.452637, -193.069366, -858.007568, 13.727668, 100.772492
1759228121.045139, -2.416498, 10.575638, 8.979902, 0.913589, 0.667262, 0.904998, -79.712723, -192.879456, -858.046997, 13.727668, 100.772492
1759228121.065164, -3.904793, 12.497583, 9.515006, 0.863582, 0.810732, 0.488724, -79.818436, -192.660065, -857.760254, 13.727668, 100.772492
1759228121.085140, -5.605724, 13.619865, 6.388029, 0.785853, 1.695462, -0.083241, -80.495117, -191.797836, -857.295288, 13.727668, 100.772492
1759228121.105175, -2.444630, 14.021792, 8.401254, -0.277957, 0.793066, -0.276664, -81.632339, -191.143372, -857.414673, 13.727668, 100.772492
1759228121.125147, 2.505532, 12.430096, 11.780220, -0.820444, 0.105163, 0.181891, -82.180420, -190.986526, -857.573120, 13.727668, 100.772492
1759228121.144660, -1.145775, 4.800823, 3.393631, -0.059032, 0.979590, 0.494428, -82.722794, -190.714859, -857.336060, 13.727668, 100.772492
1759228121.165156, 5.290587, 8.089259, 4.829554, 0.513508, -0.426892, 0.827263, -82.919800, -190.292358, -857.518738, 13.727668, 100.772492
1759228121.185155, 10.120290, 16.883910, 0.584634, 0.737862, 0.555603, 0.802891, -82.374939, -190.663284, -857.912842, 13.727668, 100.772492
1759228121.205155, -2.837428, 21.760600, 0.344615, 0.536795, 2.406726, -0.618951, -83.637115, -190.103363, -857.162109, 13.727668, 100.772492
1759228121.225151, -2.846107, 9.343821, -3.563320, 0.162265, 2.574765, -0.322484, -85.167236, -189.475449, -856.553284, 13.727668, 100.772492
1759228121.244316, 2.144307, 3.824887, 3.576488, 0.201582, 0.930567, 0.161704, -85.842972, -189.181488, -856.646667, 13.727668, 100.772492
1759228121.265150, 1.490989, 2.698565, -1.621772, 0.286710, 0.254118, 0.670659, -85.909576, -189.034927, -856.699707, 13.727668, 100.772492
1759228121.285151, 0.530465, 4.754136, -4.075829, 0.390921, -0.079518, 0.710836, -85.778061, -188.967682, -857.050598, 13.727668, 100.772492
1759228121.305154, 3.110218, 11.105205, -3.684826, 0.175325, 0.313250, 1.094254, -85.971954, -189.223434, -857.126221, 13.727668, 100.772492
1759228121.325150, 2.674623, 15.340847, -5.022287, 0.901162, 1.095014, 0.809506, -86.150192, -189.145157, -856.958862, 13.727668, 100.772492
1759228121.345141, -0.462530, 15.197045, -2.389862, 2.117668, 1.715169, 0.032621, -87.007996, -188.173965, -856.130249, 13.727668, 100.772492
1759228121.365150, -0.842759, 8.975413, 3.426402, 1.309908, 2.535600, -0.596805, -88.409378, -187.180573, -855.414307, 13.727668, 100.772492
1759228121.385166, 2.682104, 7.230339, 3.785083, 0.133530, 2.992122, -0.497470, -89.934769, -186.801926, -854.580505, 13.727668, 100.772492
1759228121.405163, 5.261857, 8.376264, -0.087388, -0.036532, 2.783779, 0.155380, -91.310349, -187.051956, -853.900696, 13.727668, 100.772492
1759228121.425214, 3.725079, 8.928277, -1.120935, 0.079443, 2.036311, 0.600089, -91.865326, -187.342117, -853.391418, 13.727668, 100.772492
1759228121.445143, 0.534954, 9.574562, -2.226009, 0.241442, 1.707211, 0.652346, -92.329529, -187.439865, -853.040100, 13.727668, 100.772492
1759228121.465167, -1.266084, 10.656292, -1.989133, 0.451696, 1.404375, 0.525300, -93.043823, -187.314957, -852.360107, 13.727668, 100.772492
1759228121.485181, -2.414403, 10.434080, -1.590199, 0.714556, 1.465691, 0.419090, -93.477661, -187.290421, -852.118713, 13.727668, 100.772492
1759228121.504812, -2.795679, 9.790788, -0.803255, 0.678784, 2.051848, 0.364980, -94.737885, -186.897461, -851.813904, 13.727668, 100.772492
1759228121.525142, -2.815731, 9.554211, 0.427664, 0.651076, 2.299259, 0.199788, -96.022415, -186.904221, -851.059082, 13.727668, 100.772492
1759228121.545141, -1.810465, 10.272173, 1.786823, 0.499193, 2.299670, 0.081189, -97.235962, -186.467331, -850.700500, 13.727668, 100.772492
1759228121.564278, -0.792930, 10.693103, 1.948431, 0.238858, 2.237331, 0.102080, -97.892120, -186.282272, -850.770874, 13.727668, 100.772492
1759228121.585175, -0.770484, 10.557831, 1.488745, 0.104707, 2.219827, 0.122924, -98.977386, -186.174072, -850.483337, 13.727668, 100.772492
1759228121.605165, -0.964414, 9.943269, 1.019032, 0.001176, 2.124241, 0.156920, -100.353683, -186.276413, -850.291077, 13.727668, 100.772492
1759228121.625156, -1.194108, 9.515006, 0.668132, 0.073423, 1.811884, 0.185085, -101.508789, -186.105911, -850.352112, 13.727668, 100.772492
1759228121.645137, -1.347187, 9.620052, 0.261567, 0.356219, 1.542322, 0.190694, -102.444870, -186.128479, -850.171204, 13.727668, 100.772492
1759228121.665191, -1.826477, 9.679009, 0.246603, 0.467890, 1.455024, 0.134374, -103.383636, -185.796738, -850.147949, 13.727668, 100.772492
1759228121.685169, -2.301576, 9.475951, 0.643442, 0.323654, 1.324579, 0.113678, -104.127670, -186.001175, -850.426270, 13.727668, 100.772492
1759228121.705160, -2.586785, 9.765350, 0.843657, 0.145180, 0.944692, 0.130524, -104.926773, -185.548203, -850.405151, 13.727668, 100.772492
1759228121.725156, -2.695123, 10.011055, 0.792630, -0.081741, 0.602042, 0.070140, -105.280548, -185.643738, -850.413452, 13.727668, 100.772492
1759228121.745144, -2.389563, 9.551817, 0.838569, -0.208025, 0.413946, -0.118207, -105.769684, -185.636307, -850.144897, 13.727668, 100.772492
1759228121.765158, -0.933888, 9.195979, 0.861613, -0.185147, 0.379523, -0.206154, -106.227798, -185.504410, -850.533264, 13.727668, 100.772492
1759228121.785157, 0.038008, 9.129390, 0.311396, -0.191618, 0.400476, -0.072804, -105.960724, -185.601425, -850.492737, 13.727668, 100.772492
1759228121.805160, -0.093673, 9.517849, -0.454000, -0.109401, 0.401138, 0.050716, -106.408371, -185.869995, -850.181763, 13.727668, 100.772492
1759228121.825156, -0.431405, 9.589825, -0.824653, 0.015118, 0.460566, 0.051012, -106.535980, -185.528839, -850.408325, 13.727668, 100.772492
1759228121.845135, -0.178368, 9.446772, -0.440533, 0.038952, 0.473198, 0.004607, -107.120880, -185.699036, -851.189697, 13.727668, 100.772492
1759228121.865165, 0.699406, 9.702652, 0.196175, -0.000652, 0.277822, 0.054233, -107.247314, -185.557205, -851.013428, 13.727668, 100.772492
1759228121.885157, 0.902015, 9.794529, 0.470161, -0.008253, 0.077720, 0.138425, -107.299271, -185.443817, -851.259033, 13.727668, 100.772492
1759228121.905155, 0.524629, 9.494506, 0.540790, -0.026938, 0.065218, 0.163326, -107.360092, -185.190796, -851.009766, 13.727668, 100.772492
1759228121.925154, 0.316932, 9.333496, 0.705541, -0.053216, 0.036236, 0.197885, -107.323792, -185.404724, -851.362366, 13.727668, 100.772492
1759228121.944713, 0.044442, 9.401581, 0.351349, -0.104423, 0.065474, 0.209501, -107.393906, -185.152008, -851.196777, 13.727668, 100.772492
1759228121.965152, -0.102951, 9.686042, -0.342969, -0.037014, 0.098065, 0.168990, -107.470764, -185.321487, -851.321899, 13.727668, 100.772492
1759228121.985160, -0.045191, 9.860819, -0.489016, 0.078978, 0.125877, 0.104892, -107.417114, -185.364151, -851.561768, 13.727668, 100.772492
1759228122.005161, 0.310049, 9.691579, -0.013916, 0.088127, 0.141700, 0.091126, -107.867310, -185.079300, -851.628296, 13.727668, 100.772492
1759228122.025151, 0.565929, 9.526828, 0.326360, 0.072854, 0.159366, 0.094473, -107.737595, -185.116058, -851.882324, 13.727668, 100.772492
1759228122.045132, 0.675315, 9.667188, 0.490362, 0.053396, 0.156389, 0.113921, -107.853241, -184.879822, -851.669556, 13.727668, 100.772492
1759228122.065157, 0.409109, 9.440636, 0.611270, -0.014350, 0.119057, 0.159616, -108.034668, -185.065765, -851.734375, 13.727668, 100.772492
1759228122.084263, -0.077512, 9.254936, 0.357035, -0.019936, 0.125401, 0.174655, -108.042587, -184.731949, -851.809753, 13.727668, 100.772492
1759228122.105152, -0.278176, 9.526528, 0.018405, 0.017520, 0.159057, 0.164905, -108.160233, -184.891388, -851.791321, 13.727668, 100.772492
1759228122.125149, -0.197821, 9.887155, -0.163704, 0.055414, 0.163032, 0.150146, -108.191589, -184.907791, -851.897095, 13.727668, 100.772492
1759228122.145135, 0.049380, 9.991752, -0.172532, 0.111319, 0.176134, 0.112184, -108.354370, -184.706543, -852.068726, 13.727668, 100.772492
1759228122.165148, 0.557101, 9.956437, 0.121655, 0.140553, 0.161956, 0.068452, -108.367233, -184.745682, -852.060608, 13.727668, 100.772492
1759228122.185151, 1.131709, 9.684695, 0.524779, 0.095912, 0.171248, 0.083459, -108.376114, -184.587860, -851.893494, 13.727668, 100.772492
1759228122.205161, 1.020080, 9.493907, 0.661099, 0.017946, 0.189158, 0.120713, -108.616989, -184.501450, -852.317993, 13.727668, 100.772492
1759228122.225152, 0.483030, 9.724499, 0.407912, -0.007600, 0.292890, 0.111461, -108.858047, -184.479980, -851.912964, 13.727668, 100.772492
1759228122.245136, 0.119860, 9.823110, 0.234482, -0.045401, 0.376283, 0.095699, -108.963333, -184.669403, -852.434875, 13.727668, 100.772492
1759228122.265160, 0.072425, 9.665991, 0.023493, -0.042249, 0.329454, 0.101288, -109.184692, -184.756287, -852.503784, 13.727668, 100.772492
1759228122.285162, 0.002693, 9.660753, -0.111480, -0.008566, 0.259795, 0.120810, -109.053528, -184.518112, -852.088745, 13.727668, 100.772492
1759228122.305153, -0.034566, 9.768941, -0.025887, 0.032516, 0.216101, 0.128903, -109.636276, -184.528381, -852.342651, 13.727668, 100.772492
1759228122.325156, 0.073921, 9.928006, 0.057012, 0.038706, 0.248067, 0.127364, -109.436172, -184.572540, -852.151184, 13.727668, 100.772492
1759228122.345135, 0.138564, 9.921721, 0.212934, 0.032644, 0.252876, 0.120717, -109.466278, -184.656219, -852.522583, 13.727668, 100.772492
1759228122.365154, 0.377236, 10.005518, 0.412850, 0.006299, 0.260146, 0.140740, -109.779053, -184.589752, -852.365295, 13.727668, 100.772492
1759228122.385163, 0.139911, 9.455002, 0.762104, -0.100408, 0.207850, 0.175253, -109.737228, -184.185181, -852.391113, 13.727668, 100.772492
1759228122.405124, -0.470461, 9.609877, 0.169839, -0.154481, 0.108022, 0.207582, -109.701279, -184.510345, -852.087219, 13.727668, 100.772492
1759228122.425152, -0.978480, 9.813533, -0.333542, -0.127225, 0.053396, 0.173121, -109.747330, -184.512314, -852.889404, 13.727668, 100.772492
1759228122.445139, -0.766743, 9.867104, -0.304064, -0.044173, 0.071478, 0.130792, -109.600479, -184.675552, -852.779785, 13.727668, 100.772492
1759228122.465138, -0.204555, 9.744401, 0.024241, 0.031448, 0.079496, 0.107319, -109.885849, -184.563934, -852.857056, 13.727668, 100.772492
1759228122.485141, 0.076315, 9.491812, 0.433201, 0.004912, 0.084234, 0.133720, -109.811157, -184.330338, -852.894958, 13.727668, 100.772492
1759228122.505141, -0.023493, 9.689035, 0.333243, -0.038770, 0.013746, 0.157956, -109.873489, -184.444153, -852.761414, 13.727668, 100.772492
1759228122.525139, -0.253486, 9.854983, 0.373346, -0.022927, -0.018170, 0.159590, -109.899323, -184.374146, -852.851746, 13.727668, 100.772492
1759228122.545136, -0.135422, 9.559449, 0.469862, -0.057115, 0.031554, 0.150530, -109.743240, -184.167206, -853.090515, 13.727668, 100.772492
1759228122.565138, 0.197821, 9.467571, 0.209792, -0.111688, -0.033595, 0.174183, -109.939606, -184.372269, -852.767700, 13.727668, 100.772492
1759228122.585137, 0.095170, 9.789891, -0.127791, -0.085019, -0.145688, 0.167327, -109.450562, -184.267822, -852.986267, 13.727668, 100.772492
1759228122.605139, 0.068384, 10.035596, 0.275483, -0.039863, -0.145862, 0.100028, -109.675461, -184.152512, -853.284668, 13.727668, 100.772492
1759228122.625137, 0.029778, 9.700856, 1.093103, -0.080260, -0.097183, 0.028088, -109.448074, -184.238876, -853.328125, 13.727668, 100.772492
1759228122.645131, -0.022595, 9.580099, 1.638532, -0.252230, 0.062530, -0.026134, -109.698120, -184.171494, -853.520142, 13.727668, 100.772492
1759228122.665213, -0.274435, 9.806800, 1.886182, -0.426110, 0.164981, -0.107793, -109.525253, -184.416031, -853.252686, 13.727668, 100.772492
1759228122.685171, -0.790236, 9.701006, 2.055871, -0.562305, 0.282903, -0.230390, -109.680679, -184.639343, -853.462036, 13.727668, 100.772492
1759228122.704687, -1.222988, 9.217976, 2.395548, -0.769059, 0.472017, -0.400871, -110.124069, -184.869904, -853.459412, 13.727668, 100.772492
1759228122.724828, -1.387141, 10.012551, 2.349909, -0.885892, 0.711602, -0.663799, -110.464035, -185.371185, -853.632019, 13.727668, 100.772492
1759228122.744697, -1.089661, 12.249484, 2.871546, -1.000206, 0.976808, -0.998790, -110.755234, -185.735672, -853.709167, 13.727668, 100.772492
1759228122.765154, -0.975936, 13.994258, 3.590854, -1.158819, 1.046486, -1.372031, -111.458282, -186.297195, -853.901855, 13.727668, 100.772492
1759228122.785124, -0.362722, 13.425486, 4.813243, -1.374239, 1.195168, -1.748872, -112.257080, -187.225540, -854.043823, 13.727668, 100.772492
1759228122.805166, 1.476923, 11.581352, 5.749376, -1.794533, 1.012185, -1.793156, -113.101791, -188.171494, -853.608887, 13.727668, 100.772492
1759228122.825154, 1.275810, 10.500520, 1.663372, -1.947348, 0.336621, -1.545915, -113.142563, -189.479523, -854.066711, 13.727668, 100.772492
1759228122.844685, -2.561197, 11.015871, 1.394174, -1.586408, -0.113827, -1.282238, -112.986725, -190.479614, -853.931763, 13.727668, 100.772492
1759228122.864371, -4.683956, 11.774833, 4.268562, -1.833035, -0.261136, -1.415970, -112.796051, -191.614487, -853.898926, 13.727668, 100.772492
1759228122.885127, -0.839018, 11.446678, 5.790077, -2.252123, -0.631665, -1.187878, -112.737473, -192.751999, -854.036987, 13.727668, 100.772492
1759228122.905168, -1.167622, 9.209746, 2.225560, -2.273185, -0.426411, -1.074733, -112.519379, -193.896072, -854.051147, 13.727668, 100.772492
1759228122.925166, -1.721431, 7.993042, 3.161244, -2.006109, -0.235764, -1.003343, -112.244049, -194.844757, -854.119324, 13.727668, 100.772492
1759228122.945129, -2.631677, 7.647529, 4.876091, -1.986556, -0.555853, -0.969557, -111.909393, -195.818741, -854.135315, 13.727668, 100.772492
1759228122.965166, -2.777723, 8.284536, 4.623054, -1.973523, -0.641726, -1.014808, -111.936447, -196.687607, -854.441650, 13.727668, 100.772492
1759228122.985133, -1.998410, 7.944260, 3.972280, -1.951934, -0.735423, -0.926975, -111.308945, -197.701157, -854.679260, 13.727668, 100.772492
1759228123.004924, -1.923591, 6.082020, 3.939958, -1.832366, -0.875365, -0.730096, -111.192139, -198.623703, -854.667114, 13.727668, 100.772492
1759228123.025136, -1.577629, 4.730793, 5.089624, -1.721482, -0.927141, -0.483832, -110.787277, -199.264053, -854.822083, 13.727668, 100.772492
1759228123.045129, -1.899799, 4.477007, 4.299537, -1.556303, -0.754983, -0.390932, -110.235641, -199.910202, -854.529053, 13.727668, 100.772492
1759228123.065240, -2.518102, 4.198831, 4.369268, -1.235556, -0.721274, -0.389659, -110.243484, -200.191071, -854.848877, 13.727668, 100.772492
1759228123.085147, -2.573767, 3.961656, 4.261529, -0.934667, -0.575958, -0.514162, -109.773331, -200.570251, -855.139221, 13.727668, 100.772492
1759228123.105184, -2.406472, 3.398869, 5.305401, -0.737821, -0.754613, -0.472065, -109.645889, -200.793671, -855.301819, 13.727668, 100.772492
1759228123.125185, -2.677166, 2.437597, 5.244050, -0.566488, -0.922788, -0.330305, -109.173904, -200.914993, -855.300354, 13.727668, 100.772492
1759228123.145129, -3.319860, 2.110339, 5.944503, -0.371607, -0.923706, -0.210069, -108.783463, -200.845734, -855.150391, 13.727668, 100.772492
1759228123.165166, -3.082385, 2.845359, 6.046706, -0.258055, -0.721795, -0.107111, -108.225189, -200.706909, -855.107300, 13.727668, 100.772492
1759228123.185127, -2.306065, 4.083161, 6.897845, -0.047378, -0.654678, -0.051875, -108.016891, -200.415283, -854.895874, 13.727668, 100.772492
1759228123.205167, -1.590049, 6.067206, 9.600599, -0.202749, -0.382360, 0.002555, -107.531830, -200.346436, -855.009766, 13.727668, 100.772492
1759228123.225168, -1.273715, 10.030209, 12.004078, -1.125293, -0.276807, -0.059429, -107.102524, -200.331757, -854.940186, 13.727668, 100.772492
1759228123.245128, -0.715717, 14.011916, 12.283601, -1.782106, -0.805456, -0.144382, -107.148331, -200.854263, -854.985596, 13.727668, 100.772492
1759228123.265145, 1.423353, 9.591321, 11.892748, -1.587643, -0.537634, 0.381840, -107.401611, -201.016403, -855.224792, 13.727668, 100.772492
1759228123.285124, -0.040851, 3.027468, 5.694908, -0.987694, -0.467155, 0.464708, -107.343369, -201.321564, -855.187012, 13.727668, 100.772492
1759228123.305150, -1.532738, -1.431134, 0.656759, -0.136253, 0.200543, 0.315347, -107.669952, -201.267822, -854.934326, 13.727668, 100.772492
1759228123.325170, -6.602310, 1.478420, 7.594108, 0.375210, 0.744657, -0.137347, -107.162491, -201.209869, -854.892639, 13.727668, 100.772492
1759228123.345127, -4.337246, 9.418490, 11.877485, 0.500983, 0.971197, -0.194716, -107.755951, -200.583862, -854.862854, 13.727668, 100.772492
1759228123.365138, -2.681057, 6.404489, 10.351481, 0.714490, -0.090154, 0.294356, -108.258118, -199.746033, -854.409790, 13.727668, 100.772492
1759228123.385147, -0.181510, 8.241590, 7.833828, 1.037912, 0.058627, 0.595940, -108.383423, -198.696274, -853.982788, 13.727668, 100.772492
1759228123.405165, 1.226280, 7.335086, 6.518813, 1.535980, 0.230501, 0.978697, -108.933090, -197.723465, -853.934204, 13.727668, 100.772492
1759228123.425125, 0.900968, 6.362591, 5.665280, 1.809383, 0.935510, 0.931613, -109.496719, -196.597641, -853.635864, 13.727668, 100.772492
1759228123.445091, 0.466570, 7.138312, 4.437503, 2.127341, 1.449261, 0.893595, -110.242523, -195.209534, -853.597168, 13.727668, 100.772492
1759228123.465198, 0.451157, 9.682750, 2.426823, 2.403048, 1.596336, 0.749499, -111.106476, -193.819077, -853.698975, 13.727668, 100.772492
1759228123.485147, -0.012420, 11.423634, 1.289128, 2.708506, 1.697415, 0.638027, -111.724564, -192.211334, -853.555786, 13.727668, 100.772492
1759228123.505147, -0.380080, 13.690494, 1.841590, 2.718430, 1.960131, 0.618948, -112.547333, -190.758957, -853.964722, 13.727668, 100.772492
1759228123.525184, -0.945710, 14.390648, 1.987636, 2.958888, 1.870623, 0.639817, -113.526474, -189.298401, -854.487305, 13.727668, 100.772492
1759228123.544753, -0.404770, 13.006052, 1.977611, 2.944380, 1.774441, 0.812098, -114.418213, -187.627121, -854.852661, 13.727668, 100.772492
1759228123.565164, 0.738312, 12.189330, 2.624045, 2.664291, 1.568361, 1.304121, -115.363846, -186.097122, -855.375610, 13.727668, 100.772492
1759228123.584167, -0.418237, 10.880599, 3.038840, 2.260931, 1.063158, 1.833339, -115.536163, -184.743729, -856.303894, 13.727668, 100.772492
1759228123.605180, -1.517625, 9.064597, 2.551770, 1.910163, 0.608621, 2.021855, -115.620865, -183.466827, -856.668945, 13.727668, 100.772492
1759228123.624965, -1.924788, 7.157616, 2.735525, 1.801529, 0.713765, 1.956413, -115.691254, -182.480408, -857.287354, 13.727668, 100.772492
1759228123.645133, -3.113809, 5.440674, 3.386748, 1.831323, 0.837081, 1.666513, -115.927277, -181.291336, -857.950073, 13.727668, 100.772492
1759228123.665198, -3.567360, 5.722890, 3.056797, 1.813134, 0.718705, 1.300412, -115.938202, -180.242004, -858.101807, 13.727668, 100.772492
1759228123.685141, -3.805284, 6.478261, 3.237559, 1.583073, 0.337056, 1.136200, -115.668228, -179.336334, -858.609009, 13.727668, 100.772492
1759228123.705142, -4.040963, 7.021595, 3.072958, 1.127240, -0.367615, 1.091643, -115.789825, -178.475464, -859.009888, 13.727668, 100.772492
1759228123.725144, -3.398719, 8.009802, 1.952172, 0.681803, -0.988990, 0.914304, -114.723602, -177.812775, -859.044556, 13.727668, 100.772492
1759228123.745123, -2.132186, 10.689961, 1.098340, 0.500831, -1.042495, 0.698160, -114.294662, -177.271576, -858.935059, 13.727668, 100.772492
1759228123.765147, 0.203956, 11.989264, 1.352125, 0.410989, -0.568727, 0.559801, -114.048874, -176.628571, -858.654785, 13.727668, 100.772492
1759228123.785148, -0.675763, 9.770737, -0.842909, 0.234073, -0.282575, 0.377459, -113.683594, -176.475601, -858.462830, 13.727668, 100.772492
1759228123.805149, -0.541389, 8.036736, -1.329680, 0.712590, 0.110350, 0.004056, -114.121643, -175.955460, -858.633362, 13.727668, 100.772492
1759228123.825144, 0.321870, 8.569596, -0.541090, 1.001144, 0.494860, -0.200039, -114.441681, -175.426605, -859.144897, 13.727668, 100.772492
1759228123.844690, -0.026486, 10.096797, 0.099359, 0.825428, 0.157904, -0.097275, -114.177887, -174.884064, -859.653259, 13.727668, 100.772492
1759228123.864320, -0.771681, 9.351303, -0.826299, 0.817051, 0.007934, 0.070591, -114.268417, -174.242554, -860.378235, 13.727668, 100.772492
1759228123.885144, 0.605583, 8.816648, -0.224756, 0.771934, -0.187218, 0.443553, -113.976166, -173.573578, -860.498840, 13.727668, 100.772492
1759228123.905145, 1.817498, 9.298032, 0.733524, 0.653003, -0.409563, 0.947194, -113.603165, -173.051575, -860.614746, 13.727668, 100.772492
1759228123.924868, -0.236727, 9.164555, 0.503830, 0.681037, -0.273715, 1.020201, -113.151794, -172.484009, -861.272705, 13.727668, 100.772492
1759228123.944702, -1.899200, 8.986187, -0.143054, 0.949803, 0.100599, 0.716515, -112.986893, -171.821991, -861.677002, 13.727668, 100.772492
1759228123.964327, -1.757643, 11.207557, 0.831985, 0.929011, 0.129182, 0.508542, -112.883530, -171.109451, -862.251526, 13.727668, 100.772492
1759228123.985148, -1.125574, 14.491354, 0.872537, 0.835977, 0.192129, 0.365068, -112.527557, -170.592758, -862.724487, 13.727668, 100.772492
1759228124.005145, 0.445621, 18.595465, 1.426196, 0.617633, 0.031512, 0.291165, -112.701157, -170.150223, -863.032410, 13.727668, 100.772492
