SamplingTime, AccelerationX, AccelerationY, AccelerationZ, GyroX, GyroY, GyroZ, MagneticFieldX, MagneticFieldY, MagneticFieldZ, Latitude, Longitude
1759228833.211817, 4.185962, -4.383185, -9.127295, -0.288550, 0.368086, 0.349925, -132.026001, -201.051773, -886.228271, , 
1759228833.231034, 4.117877, -4.142119, -8.925285, -0.106575, 0.027690, 0.486945, -132.059708, -200.700668, -886.024475, , 
1759228833.251796, 3.932476, -3.678092, -8.983942, -0.145330, 0.067948, 0.727596, -131.989212, -200.467682, -886.490540, , 
1759228833.271828, 4.712687, -2.266710, -7.872734, -0.585718, 0.447302, 1.221512, -132.239380, -199.645081, -886.279541, 13.727651, 100.772651
1759228833.291841, 4.121319, -2.287061, -8.866178, -1.227507, 1.131317, 1.917210, -132.695496, -198.428101, -887.048889, 13.727651, 100.772651
1759228833.311838, 3.118448, -1.295263, -9.326164, -1.772542, 2.184689, 2.443047, -132.353439, -196.740372, -888.152466, 13.727651, 100.772651
1759228833.331827, 2.544288, -1.185579, -10.008361, -1.967555, 3.305127, 3.195189, -132.075790, -194.854187, -890.131226, 13.727651, 100.772651
1759228833.351838, 2.461987, -2.716671, -11.167604, -1.543113, 4.390115, 3.564378, -131.384064, -192.620651, -892.570129, 13.727651, 100.772651
1759228833.371832, 2.111387, -7.593959, -9.660005, -0.276110, 4.359920, 2.601576, -129.908722, -190.824860, -894.736816, 13.727651, 100.772651
1759228833.391855, 4.092140, -9.076718, -6.575525, 0.797870, 3.539956, 1.170856, -128.789566, -190.178696, -895.987793, 13.727651, 100.772651
1759228833.411840, 4.979491, -6.050746, -3.298611, 0.973734, 1.382408, 0.514337, -127.696411, -190.267365, -897.387146, 13.727651, 100.772651
1759228833.431817, 5.730222, -3.864241, -5.287594, 1.168880, -0.419620, 0.427806, -127.860977, -190.460037, -897.324036, 13.727651, 100.772651
1759228833.451837, 6.188113, -3.334375, -5.559785, 1.666650, -1.389033, 0.435295, -128.324677, -191.130188, -896.691284, 13.727651, 100.772651
1759228833.471845, 6.837541, -3.802292, -5.252430, 1.982286, -2.301331, 0.570913, -129.211090, -191.651978, -895.557983, 13.727651, 100.772651
1759228833.491842, 6.111499, -3.361010, -1.201141, 2.012172, -4.282147, 0.741029, -130.620026, -191.950165, -894.012268, 13.727651, 100.772651
1759228833.511821, 3.520823, -4.808754, 1.565060, 1.059767, -7.471672, 0.023244, -132.618790, -192.253174, -890.066467, 13.727651, 100.772651
1759228833.531797, 3.309984, -5.450101, -3.679888, -0.646410, -7.906822, -0.266726, -134.425720, -192.125732, -885.056396, 13.727651, 100.772651
1759228833.551766, 4.256292, 1.415422, -7.561787, -2.682724, -3.455575, 1.149218, -134.638107, -191.395279, -882.521729, 13.727651, 100.772651
1759228833.571848, 3.581576, -1.616236, -9.814431, -2.709744, -1.673965, 2.826775, -134.877625, -189.529053, -880.935181, 13.727651, 100.772651
1759228833.591803, 2.539799, -2.430115, -10.156054, -1.889032, -1.031877, 3.982879, -134.524841, -187.092957, -880.631897, 13.727651, 100.772651
1759228833.611856, -3.179051, -1.443105, -9.595212, -0.827975, -0.650118, 4.918882, -133.822128, -184.644760, -879.972717, 13.727651, 100.772651
1759228833.631804, -8.913912, -1.617882, -10.545860, -0.109106, -0.489873, 4.499334, -132.838104, -181.981720, -879.468384, 13.727651, 100.772651
1759228833.651836, -9.153033, -3.818303, -8.423999, 0.274160, -0.205779, 2.914381, -132.311401, -180.084366, -879.305298, 13.727651, 100.772651
1759228833.671846, -6.377405, -6.747160, -5.950639, -0.217572, -1.325572, 1.039236, -132.093552, -179.370499, -878.534363, 13.727651, 100.772651
1759228833.691844, -4.834192, -3.580080, -7.628375, -0.386495, -1.041216, 0.910262, -132.014999, -178.612061, -877.477295, 13.727651, 100.772651
1759228833.711832, -5.504569, -2.230049, -7.074267, -1.020035, -0.329613, 1.130034, -131.634552, -178.064545, -876.808594, 13.727651, 100.772651
1759228833.731336, -5.074211, -2.901623, -8.259248, -1.368823, 0.242730, 1.188280, -131.594208, -177.244644, -876.671021, 13.727651, 100.772651
1759228833.751837, -5.048025, -2.437746, -7.975235, -1.270050, 0.164317, 1.202501, -131.076111, -177.066025, -876.313599, 13.727651, 100.772651
1759228833.771825, -5.741595, -2.481590, -8.088661, -1.000194, -0.357845, 1.088421, -130.596985, -176.439651, -875.567139, 13.727651, 100.772651
1759228833.791838, -5.950788, -2.382829, -8.136245, -0.764502, -0.617458, 0.922078, -130.125168, -176.211746, -875.062012, 13.727651, 100.772651
1759228833.811808, -5.056404, -1.712303, -7.279869, -0.717766, -0.696195, 0.891511, -129.719269, -175.559769, -874.630005, 13.727651, 100.772651
1759228833.831810, -3.919458, -1.238251, -6.574029, -0.724064, -0.828733, 1.068364, -129.448486, -175.013550, -873.701172, 13.727651, 100.772651
1759228833.851825, -2.956091, -0.481833, -5.297171, -0.567111, -1.341349, 1.314765, -128.623749, -174.465668, -873.170898, 13.727651, 100.772651
1759228833.871822, -2.267608, 0.402824, -3.517232, -0.259572, -2.603693, 1.668246, -127.690781, -173.824203, -871.598755, 13.727651, 100.772651
1759228833.891827, -2.558204, 1.468843, -2.651728, -0.024340, -4.389067, 2.145471, -126.214996, -172.629791, -869.701904, 13.727651, 100.772651
1759228833.911549, -2.394950, 2.288558, -4.141221, 0.556151, -5.464405, 3.008926, -124.052048, -171.633347, -866.991577, 13.727651, 100.772651
1759228833.931589, -5.355679, 2.874838, -3.955072, 1.176279, -5.698288, 3.874371, -120.791641, -170.302475, -865.480042, 13.727651, 100.772651
1759228833.951834, -8.561964, 2.112883, -3.431041, 1.438948, -5.318184, 4.171675, -117.382996, -169.086319, -864.493896, 13.727845, 100.772409
1759228833.971803, -10.176554, 1.820491, -2.094627, 1.273889, -4.455267, 4.057556, -114.260162, -168.064926, -863.778687, 13.727845, 100.772409
1759228833.991845, -10.401609, 2.243068, -1.004517, 0.706457, -3.863444, 3.962794, -111.089447, -167.652832, -863.899475, 13.727845, 100.772409
1759228834.011830, -12.762591, 2.107795, -1.392677, 0.400254, -3.757040, 3.743759, -108.125244, -167.341049, -863.347656, 13.727845, 100.772409
1759228834.031812, -14.915427, 1.512238, -2.337788, 0.441012, -3.451102, 3.136652, -105.482330, -167.431595, -863.586670, 13.727845, 100.772409
1759228834.051833, -14.930391, 1.386093, -3.074903, 0.395392, -2.599491, 2.424199, -103.470032, -167.427292, -863.312195, 13.727845, 100.772409
1759228834.071838, -13.246070, 1.401805, -3.298911, 0.157484, -1.414573, 2.048888, -102.113800, -167.419174, -863.754883, 13.727845, 100.772409
1759228834.091848, -11.839776, 1.655890, -2.806304, 0.051887, -0.593407, 1.918673, -101.234192, -167.678650, -863.618225, 13.727845, 100.772409
1759228834.111806, -11.079467, 2.342277, -2.496554, 0.251879, -0.612607, 1.849014, -100.065765, -167.862930, -863.821899, 13.727845, 100.772409
1759228834.131314, -10.836456, 2.536058, -1.652149, 0.708186, -1.181336, 1.775641, -98.892258, -168.016754, -864.498779, 13.727845, 100.772409
1759228834.151809, -10.638934, 2.347215, -0.937929, 1.095793, -1.948487, 1.629727, -97.502594, -168.000732, -865.523438, 13.727845, 100.772409
1759228834.171808, -10.302848, 2.802263, -0.725593, 1.237429, -2.629733, 1.464704, -96.064362, -168.061066, -866.378296, 13.727845, 100.772409
1759228834.191833, -10.370634, 4.806509, -1.321300, 1.434757, -3.128663, 1.481650, -94.613800, -168.267914, -868.030518, 13.727845, 100.772409
1759228834.211828, -10.880449, 6.046107, -2.094926, 1.718666, -2.996858, 1.694541, -93.244614, -168.415085, -869.094299, 13.727845, 100.772409
1759228834.231810, -11.899930, 5.463718, -1.736694, 1.908218, -2.567405, 1.772324, -91.880829, -168.605164, -870.737366, 13.727845, 100.772409
1759228834.251815, -12.874819, 4.586542, -0.897077, 1.872993, -2.084570, 1.435505, -91.014984, -168.715347, -871.919739, 13.727845, 100.772409
1759228834.271120, -12.850728, 4.747253, -0.266804, 1.594183, -1.619745, 0.788648, -90.617325, -168.825256, -873.021423, 13.727845, 100.772409
1759228834.291829, -11.457602, 6.317999, -0.763152, 1.179563, -0.911132, 0.374088, -90.331619, -168.848816, -873.819336, 13.727845, 100.772409
1759228834.311816, -10.191219, 7.275081, -1.607407, 0.937879, -0.292326, 0.285548, -90.136688, -168.836166, -874.317932, 13.727845, 100.772409
1759228834.331811, -9.189993, 7.340323, -2.319832, 1.017564, 0.049621, 0.340567, -90.069504, -168.767456, -874.716064, 13.727845, 100.772409
1759228834.351813, -8.798392, 7.283461, -2.530522, 1.299051, 0.170929, 0.425638, -89.963272, -168.932251, -875.456726, 13.727845, 100.772409
1759228834.371793, -8.418163, 6.820332, -2.766799, 1.625339, 0.283814, 0.454942, -89.647919, -169.020966, -876.065002, 13.727845, 100.772409
1759228834.391591, -7.955334, 7.106290, -1.947683, 1.918367, 0.190524, 0.437838, -89.798035, -168.862411, -876.942566, 13.727845, 100.772409
1759228834.411800, -7.572860, 6.534076, -1.273266, 2.072732, -0.149192, 0.366025, -89.738892, -168.897873, -877.917969, 13.727845, 100.772409
1759228834.431235, -7.229292, 6.318298, -0.928801, 2.156466, -0.418516, 0.311395, -89.621597, -169.344131, -878.380432, 13.727845, 100.772409
1759228834.451805, -7.043891, 6.592434, -0.968305, 2.109928, -0.503307, 0.279901, -89.461548, -169.074509, -879.803040, 13.727845, 100.772409
1759228834.471789, -6.463746, 6.629395, -1.693898, 2.014973, -0.621513, 0.389259, -89.454666, -169.309921, -881.292480, 13.727845, 100.772409
1759228834.491698, -7.061997, 5.681141, -2.828151, 2.164835, -0.923812, 0.441513, -89.415421, -169.452362, -881.705200, 13.727845, 100.772409
1759228834.511825, -7.476493, 5.184644, -3.355025, 2.529243, -1.195862, 0.389257, -89.130371, -169.931030, -883.317017, 13.727845, 100.772409
1759228834.531799, -8.167071, 4.628441, -3.129222, 2.768147, -1.237264, 0.201483, -89.351715, -170.187149, -884.800415, 13.727845, 100.772409
1759228834.551826, -10.683975, 1.567304, 5.456834, 1.894194, -2.500827, -0.582422, -89.890152, -170.627274, -886.503723, 13.727845, 100.772409
1759228834.571816, -7.873183, 2.701707, 3.209278, 0.659902, -3.257397, -0.958417, -90.760620, -170.433563, -887.854431, 13.727845, 100.772409
1759228834.591808, -9.205556, 4.970363, -0.924012, 0.946646, -1.626494, -0.591065, -91.558670, -170.641495, -888.727661, 13.727845, 100.772409
1759228834.611850, -10.047866, 4.408025, -1.115548, 0.858008, -0.535860, -0.589909, -91.938248, -170.684998, -889.244751, 13.727845, 100.772409
1759228834.631807, -9.317185, 4.310760, -2.204012, 0.674288, -0.220077, -0.466191, -92.177826, -170.527252, -889.393250, 13.727845, 100.772409
1759228834.651829, -7.919421, 4.572327, -1.950526, 0.813837, -0.522328, -0.317777, -92.440994, -170.877380, -889.959473, 13.727845, 100.772409
1759228834.671792, -7.485920, 4.322133, -0.336236, 0.925120, -0.937799, -0.353319, -92.715652, -170.998215, -890.731384, 13.727845, 100.772409
1759228834.691827, -7.630171, 4.347272, -0.516848, 0.879619, -1.222145, -0.210663, -93.131531, -171.211121, -891.281555, 13.727845, 100.772409
1759228834.711922, -9.745299, 4.154838, -0.642245, 0.818298, -1.198073, -0.322875, -93.284363, -171.402512, -891.661133, 13.727845, 100.772409
1759228834.731796, -9.376592, 4.078223, -0.202759, 0.494054, -0.511521, -0.357169, -93.546249, -171.539032, -891.758118, 13.727845, 100.772409
1759228834.751823, -10.099192, 4.221127, -0.446818, 0.235387, 0.216457, -0.346671, -93.857376, -171.629288, -892.306580, 13.727845, 100.772409
1759228834.771815, -9.964667, 3.880103, -0.923563, 0.239625, 0.457003, -0.420170, -93.897461, -171.384094, -892.283203, 13.727845, 100.772409
1759228834.791822, -10.295965, 3.463213, -1.106570, 0.202941, 0.501081, -0.628324, -93.990723, -171.332825, -892.326172, 13.727845, 100.772409
1759228834.811818, -10.602722, 3.260753, -1.517625, 0.192340, 0.560553, -0.974951, -94.248154, -171.035339, -892.278809, 13.727845, 100.772409
1759228834.831797, -8.210765, 3.508852, -0.405219, 0.036647, 0.559879, -0.960484, -94.652893, -170.986694, -892.216248, 13.727845, 100.772409
1759228834.851822, -7.419332, 3.792715, -1.106570, 0.095514, 0.737745, -0.756570, -95.053680, -170.455750, -892.110168, 13.727845, 100.772409
1759228834.871810, -6.048651, 3.249680, -0.912789, 0.053536, 0.628046, -0.387392, -94.948318, -170.352295, -891.970764, 13.727845, 100.772409
1759228834.891813, -5.846640, 4.137929, -2.309507, 0.149904, 0.343760, -0.049345, -94.917343, -170.432083, -891.545166, 13.727845, 100.772409
1759228834.911816, -7.598897, 3.516484, -1.888277, -0.025425, 0.031711, -0.082703, -94.796432, -170.632477, -891.667847, 13.727845, 100.772409
1759228834.931797, -7.848343, 2.566734, -0.496647, -0.450178, 0.312294, -0.104518, -94.891357, -170.664444, -891.502014, 13.727845, 100.772409
1759228834.951803, -5.358672, 3.257012, 0.137667, -1.004869, 0.973662, 0.559436, -94.787842, -170.417557, -891.054932, 13.727845, 100.772409
1759228834.971609, -3.160346, 4.714333, -1.077091, -1.176814, 1.297534, 1.003062, -93.806396, -170.387451, -890.170044, 13.727845, 100.772409
1759228834.991806, -2.836082, 6.682217, -2.925266, -1.139463, 0.757978, 2.161559, -92.684662, -170.392258, -889.436401, 13.727845, 100.772409
1759228835.011803, -5.839458, 5.847389, -0.938826, -1.378831, -0.720046, 1.996821, -91.494095, -171.120377, -889.242065, 13.727845, 100.772409
1759228835.031793, -11.858630, 3.836708, -1.089811, -1.092616, -0.837315, 1.262873, -91.133926, -171.365067, -889.168823, 13.727845, 100.772409
1759228835.051806, -16.417490, 3.202843, -4.957195, -0.889321, 0.429806, 0.691652, -90.570282, -171.435486, -888.377869, 13.727845, 100.772409
1759228835.071795, -17.954118, 2.984223, -3.475483, -1.046469, 1.023744, -0.033949, -90.367935, -171.553711, -887.822266, 13.727845, 100.772409
1759228835.091806, -9.884611, 5.652560, -1.102680, -1.298902, 1.348567, 0.424083, -90.311615, -171.061768, -886.973755, 13.727845, 100.772409
1759228835.111815, -6.361543, 5.633557, -0.055067, -0.918463, 0.972240, 0.695606, -89.712540, -171.009064, -886.126099, 13.727845, 100.772409
1759228835.131806, -7.098509, 5.504569, -1.397166, -0.101116, -0.355776, 0.389084, -89.242722, -171.221588, -886.128296, 13.727845, 100.772409
1759228835.151802, -7.018303, 5.029469, -1.149217, -0.153692, -0.768168, 0.645645, -89.300858, -171.400452, -886.086182, 13.727845, 100.772409
1759228835.171793, -7.097910, 4.313902, -1.956661, 0.057345, -0.784231, 0.859906, -89.017563, -171.773834, -886.363281, 13.727845, 100.772409
1759228835.191870, -7.332542, 4.022109, -1.117494, 0.087972, -0.854100, 0.821817, -88.849762, -172.081726, -886.608887, 13.727845, 100.772409
1759228835.211807, -6.075586, 4.754286, 0.011372, -0.247574, -0.529546, 1.224894, -88.571243, -172.317657, -886.609741, 13.727845, 100.772409
1759228835.231823, -4.623503, 7.175422, -0.329801, -0.505356, -0.531475, 1.925134, -87.896500, -173.021622, -886.586304, 13.727845, 100.772409
1759228835.251802, -7.459883, 6.730550, -1.108665, -0.708259, -0.731963, 2.070352, -87.324493, -173.811447, -886.556213, 13.727845, 100.772409
1759228835.271803, -8.696788, 7.482628, -1.621024, -1.124253, -0.426092, 1.914716, -86.604340, -174.201401, -886.471985, 13.727845, 100.772409
1759228835.291825, -5.014057, 9.436297, 1.017236, -1.797650, -1.114643, 1.889414, -86.226334, -174.641617, -886.433228, 13.727845, 100.772409
1759228835.311798, -5.869834, 5.567417, -2.769343, -0.922506, -1.490825, 1.688390, -85.472717, -175.373596, -886.507935, 13.727845, 100.772409
1759228835.331823, -8.616881, 7.667730, 2.335544, -0.730001, -1.018392, 1.518681, -85.752945, -175.567429, -886.601013, 13.727845, 100.772409
1759228835.351812, -7.139659, 7.049727, 1.006163, -0.355128, -0.315793, 1.743004, -85.266403, -176.194580, -886.456177, 13.727845, 100.772409
1759228835.371820, -7.840412, 7.465121, 0.722301, -0.086386, -0.027288, 1.414310, -84.507431, -176.886795, -886.335144, 13.727845, 100.772409
1759228835.391832, -4.480599, 8.585158, 0.623839, 0.084667, 0.161764, 1.505055, -83.971588, -177.519760, -886.306641, 13.727845, 100.772409
1759228835.411833, -6.173748, 8.528595, 0.314538, 0.086136, 0.236650, 1.456932, -83.075500, -178.697235, -886.403320, 13.727845, 100.772409
1759228835.431479, -6.985981, 12.193071, 0.724695, 0.047830, 0.015443, 0.787803, -82.694702, -178.950577, -886.888428, 13.727845, 100.772409
1759228835.450990, -7.120655, 9.717316, 0.805499, -0.062784, 0.219770, 0.494425, -82.939316, -179.068222, -886.336060, 13.727845, 100.772409
1759228835.471821, -6.957700, 10.015843, 0.472705, -0.016142, 0.390081, 0.207963, -82.903671, -179.308807, -886.441101, 13.727845, 100.772409
1759228835.491838, -5.609315, 9.345617, -0.073771, 0.015427, 0.522650, -0.050412, -83.284988, -178.890900, -886.172363, 13.727845, 100.772409
1759228835.511818, -4.210204, 5.985803, 0.078859, -0.335261, 0.350688, 0.558410, -83.509506, -178.615936, -885.905090, 13.727845, 100.772409
1759228835.531294, -1.283591, 5.443217, 1.713201, -1.172240, -0.943722, 2.423962, -82.136444, -179.747467, -885.840576, 13.727845, 100.772409
1759228835.551002, -3.531298, 10.982802, 0.679804, -0.744863, -1.015004, 4.107249, -81.499084, -181.472412, -886.555969, 13.727845, 100.772409
1759228835.571820, -2.533514, 11.314847, 0.536002, 0.260803, -0.266587, 5.616302, -80.163696, -184.121643, -886.771973, 13.727845, 100.772409
1759228835.591831, -8.101829, 9.533711, -1.208773, 1.313521, 1.136750, 0.715696, -80.023666, -184.934464, -885.967468, 13.727845, 100.772409
1759228835.611834, -3.933524, 9.395147, 2.719215, 0.491411, 0.377083, -1.867518, -80.715698, -183.865738, -885.853394, 13.727845, 100.772409
1759228835.631789, -0.816273, 9.037363, 0.865055, -0.322973, -0.967723, -2.630598, -81.202591, -182.512741, -885.840454, 13.727845, 100.772409
1759228835.651712, -2.508375, 4.008791, -1.904139, -0.712552, -2.759069, -2.536091, -82.303604, -181.318497, -887.379761, 13.727845, 100.772409
1759228835.671210, -2.900875, 6.387131, 1.160889, -0.244160, -1.485390, -1.300937, -82.610825, -180.705505, -887.919861, 13.727845, 100.772409
1759228835.691803, -3.465457, 9.315240, 3.069217, 0.119795, 0.353260, -0.588443, -82.697983, -180.516403, -887.768616, 13.727845, 100.772409
1759228835.711793, -3.751864, 7.923910, -0.082450, 0.235055, 0.345458, -0.620108, -82.962616, -180.383743, -887.839844, 13.727845, 100.772409
1759228835.731051, -3.273921, 6.204424, 1.186776, -0.052453, 0.289190, -0.685594, -82.749161, -180.501801, -887.607849, 13.727845, 100.772409
1759228835.751043, -2.345420, 6.551434, 1.305438, 0.072641, 0.251700, -0.549473, -82.993851, -180.277100, -887.543335, 13.727845, 100.772409
1759228835.771809, -4.061165, 6.128857, 0.429310, 0.404917, 0.108087, -0.499990, -82.970779, -179.828629, -887.584534, 13.727845, 100.772409
1759228835.791832, -4.493318, 12.108825, 1.179444, 0.043257, 0.105916, 0.105251, -82.656219, -180.126953, -887.388000, 13.727845, 100.772409
1759228835.811814, -6.853253, 16.041001, 0.667982, -0.047952, 0.171101, 0.254203, -82.450577, -180.335968, -887.518250, 13.727845, 100.772409
1759228835.831789, -7.082497, 12.914473, 1.092205, -0.019968, -0.232455, 0.469826, -82.855026, -180.459824, -887.372620, 13.727845, 100.772409
1759228835.851817, -5.784391, 12.393585, 1.085621, -0.079635, 0.342718, 1.224644, -82.654327, -180.544235, -887.107178, 13.727845, 100.772409
1759228835.871788, -5.658546, 7.766491, 1.390732, 0.128207, 0.737485, 0.926774, -82.501221, -180.865768, -886.913635, 13.727845, 100.772409
1759228835.891833, -0.518943, 4.404134, 1.724873, 0.214554, 0.233463, 0.658882, -82.307739, -181.129898, -886.525208, 13.727845, 100.772409
1759228835.911808, -0.357634, 3.630657, 0.890643, 0.158375, -0.080158, 0.173319, -81.999817, -181.483658, -886.697144, 13.727845, 100.772409
1759228835.931788, -1.625962, 5.512200, 1.011251, 0.234781, 0.302272, 0.459268, -81.751434, -181.705917, -886.579163, 13.727845, 100.772409
1759228835.951089, 0.343119, 3.224541, 0.748338, 0.248008, 0.649803, 0.982312, -82.151657, -181.811325, -886.593384, 13.727845, 100.772409
1759228835.971816, -1.177049, 1.128118, 0.049829, -0.016744, -0.197714, 0.192448, -81.531631, -182.428177, -886.831177, 13.727845, 100.772409
1759228835.991826, -3.234866, 2.234987, -1.006612, 0.398763, -1.176733, -1.159449, -82.068024, -182.269608, -887.029907, 13.727845, 100.772409
1759228836.011809, -3.010709, 5.022287, 0.392799, 0.222364, -0.287192, -1.466312, -82.148438, -181.925049, -887.340393, 13.727845, 100.772409
1759228836.031788, -5.403414, 13.508834, 1.421557, -0.209956, 0.690362, -0.459546, -82.245071, -181.683701, -887.630310, 13.727845, 100.772409
1759228836.051821, -6.724714, 20.642956, 0.213533, -0.100089, 0.512500, 0.897243, -81.976334, -181.916595, -886.941772, 13.727845, 100.772409
1759228836.071298, -4.482245, 19.907488, 1.440860, -0.211525, -0.198074, 1.978337, -81.701645, -182.826523, -887.261902, 13.727845, 100.772409
1759228836.091830, -10.384251, 12.281357, 0.182558, -0.247802, 0.481101, 0.880386, -81.478470, -183.310135, -886.885498, 13.727845, 100.772409
1759228836.111811, -7.308600, 7.484424, 0.445322, 0.012789, 0.611830, 0.438298, -81.523621, -183.210846, -886.524658, 13.727845, 100.772409
1759228836.131788, -3.635296, 8.423250, 0.724994, 0.035049, 0.059081, 0.146577, -81.727112, -183.086624, -886.121643, 13.727845, 100.772409
1759228836.151811, -1.512387, 7.956381, 0.656909, 0.009432, -0.015449, 0.151646, -81.538223, -183.376144, -886.058533, 13.727845, 100.772409
1759228836.171817, -2.981529, 9.487772, 1.204583, -0.095002, 0.006007, 0.316526, -81.234879, -183.623154, -886.278992, 13.727845, 100.772409
1759228836.191848, -3.708020, 9.613617, 0.522834, -0.002131, -0.182916, 0.302514, -81.324158, -183.829529, -886.299561, 13.727845, 100.772409
1759228836.211574, -3.071162, 8.998457, 0.439486, -0.037760, -0.077350, -0.041603, -81.377090, -183.701553, -886.397583, 13.727845, 100.772409
1759228836.231788, -3.415478, 8.463204, 0.137667, 0.070679, 0.070709, 0.013687, -81.467285, -183.729797, -886.384399, 13.727845, 100.772409
1759228836.251811, -2.458546, 8.903886, 1.346140, -0.038298, -0.301254, 0.288212, -81.536270, -183.780609, -886.304199, 13.727845, 100.772409
1759228836.271814, -1.925686, 8.253861, 0.526126, 0.036711, 0.186192, 0.530807, -81.487778, -184.011826, -886.477295, 13.727845, 100.772409
1759228836.291836, -1.736844, 7.754819, -0.717363, 0.317811, 1.101063, 0.630244, -81.518753, -184.310593, -885.944824, 13.727845, 100.772409
1759228836.311637, -0.937779, 4.797382, 0.250793, 0.315843, 1.030587, 0.797365, -81.283157, -184.656036, -885.619019, 13.727845, 100.772409
1759228836.331788, -0.955436, 6.488436, -0.664092, 0.491529, 1.374502, 1.434704, -80.948425, -185.456223, -884.877197, 13.727845, 100.772409
1759228836.351810, 0.634164, 4.232350, 0.610372, 0.250973, 1.275734, 2.431567, -80.716309, -186.266434, -884.630493, 13.727845, 100.772409
1759228836.371125, -0.864008, 3.030760, -0.700304, 0.731048, 1.597158, 1.940810, -80.392349, -187.481613, -883.602905, 13.727845, 100.772409
1759228836.391812, -2.219575, 2.064400, 0.080655, 0.215674, 1.441469, 1.833447, -79.700806, -188.802536, -883.021484, 13.727845, 100.772409
1759228836.411809, -3.963451, 17.613543, 2.127847, -0.945793, -1.090760, 1.257636, -79.137848, -190.366608, -882.874756, 13.727845, 100.772409
1759228836.431786, -15.076437, 29.694834, 0.295983, -1.423538, -1.845525, -0.587402, -81.516632, -188.642838, -883.825195, 13.727845, 100.772409
1759228836.451333, -7.671770, 3.512743, -2.201917, 0.003633, -1.030132, -1.819975, -81.477097, -188.117096, -884.297546, 13.727845, 100.772409
1759228836.471814, -2.224064, 11.834539, -3.335273, 0.667213, -0.879845, -1.958334, -81.157837, -187.164139, -884.696899, 13.727845, 100.772409
1759228836.491814, 3.778948, 15.587600, -0.863559, 1.020019, -1.406015, -0.978217, -81.868881, -187.067688, -885.278870, 13.727845, 100.772409
1759228836.511808, 5.012710, 13.363237, -0.437091, 1.104352, -0.507265, 0.085257, -81.737381, -187.308014, -885.956177, 13.727845, 100.772409
1759228836.531295, 0.981623, 10.873117, 3.839102, 0.445755, -0.150543, 0.267192, -81.517899, -187.452499, -886.026306, 13.727845, 100.772409
1759228836.551807, -1.665766, 10.900202, 3.739593, -0.326718, 0.349043, 0.287491, -81.536270, -187.670547, -885.895325, 13.727845, 100.772409
1759228836.571584, -1.729063, 10.514286, 1.679383, -0.600009, 0.465660, 0.678610, -81.229446, -187.773285, -885.486694, 13.727845, 100.772409
1759228836.591863, -1.425448, 9.555109, -0.979677, -0.496731, 0.353184, 1.065222, -81.198792, -188.292969, -885.544556, 13.727845, 100.772409
1759228836.611809, -2.723105, 7.425317, -0.297480, -0.358992, -0.466604, 0.822180, -81.296402, -188.675003, -885.819946, 13.727845, 100.772409
1759228836.631300, -3.473987, 7.078756, -2.216582, 0.316334, 0.177751, -0.017669, -81.121155, -188.563324, -885.828430, 13.727845, 100.772409
1759228836.651805, -0.808043, 8.447342, -2.514510, 0.557477, 0.474433, 0.205677, -80.965469, -188.783234, -885.473267, 13.727845, 100.772409
1759228836.671804, -1.724124, 10.644471, -0.018555, 0.631519, -0.252239, 0.413198, -80.959824, -189.275070, -885.985107, 13.727845, 100.772409
1759228836.691815, -3.453935, 10.329633, 0.121506, 0.682321, -0.232858, 0.178639, -81.160889, -189.594833, -886.024414, 13.727845, 100.772409
1759228836.711806, -3.141492, 9.296685, 1.270124, 0.268608, -0.023460, -0.028716, -81.313080, -189.528824, -885.981934, 13.727845, 100.772409
1759228836.731787, -1.842039, 9.579799, 1.603367, -0.098745, -0.150562, -0.014728, -81.152496, -189.332932, -885.685608, 13.727845, 100.772409
1759228836.750890, -1.334618, 9.800964, 0.252888, -0.141287, -0.289013, 0.053705, -81.346954, -189.422379, -885.973267, 13.727845, 100.772409
1759228836.771866, -1.925836, 9.409512, -0.863259, -0.013162, -0.341129, 0.056137, -81.140671, -189.283859, -886.204651, 13.727845, 100.772409
1759228836.791826, -2.116325, 9.369259, -1.006762, 0.127035, -0.351434, 0.031206, -81.495148, -189.495087, -886.252319, 13.727845, 100.772409
1759228836.811816, -1.796848, 9.502137, -0.681001, 0.205137, -0.408084, 0.035506, -81.412445, -189.503433, -886.248535, 13.727845, 100.772409
1759228836.831786, -1.447744, 9.616012, -0.187346, 0.166951, -0.426925, 0.051465, -81.279465, -189.547928, -886.563904, 13.727845, 100.772409
1759228836.851815, -1.294066, 9.501090, 0.016011, 0.079924, -0.400405, 0.054756, -81.660248, -189.624237, -887.014343, 13.727845, 100.772409
1759228836.871819, -1.220444, 9.459640, -0.279822, 0.069024, -0.372586, 0.064450, -81.532135, -189.720078, -886.983643, 13.727845, 100.772409
1759228836.891823, -1.236007, 9.506178, -0.600795, 0.117209, -0.374054, 0.087624, -81.732101, -189.693436, -887.291748, 13.727845, 100.772409
1759228836.911821, -1.425597, 9.486575, -0.648529, 0.153477, -0.386885, 0.095415, -81.727203, -189.969070, -887.505310, 13.727845, 100.772409
1759228836.931794, -1.489343, 9.509619, -0.501436, 0.162193, -0.383929, 0.087591, -81.798813, -190.077271, -887.649658, 13.727845, 100.772409
1759228836.951803, -1.385794, 9.577106, -0.309301, 0.141294, -0.388814, 0.080938, -82.049072, -190.053268, -888.059326, 13.727845, 100.772409
1759228836.971801, -1.240496, 9.697115, -0.188543, 0.095133, -0.398885, 0.076307, -81.981781, -190.334442, -888.201599, 13.727845, 100.772409
1759228836.991802, -1.077540, 9.644293, -0.230891, 0.069633, -0.378145, 0.074637, -82.251282, -190.339859, -888.279602, 13.727845, 100.772409
1759228837.011814, -0.868796, 9.635764, -0.267253, 0.082209, -0.331038, 0.091701, -82.036926, -190.399673, -888.195801, 13.727845, 100.772409
1759228837.031794, -0.867449, 9.771934, -0.229544, 0.071839, -0.262755, 0.121900, -82.215103, -190.445724, -888.461426, 13.727845, 100.772409
1759228837.051818, -0.869245, 9.696367, -0.273388, 0.037711, -0.166307, 0.156395, -82.065201, -190.450546, -888.374268, 13.727845, 100.772409
1759228837.071817, -1.000627, 9.476998, -0.305560, 0.011998, -0.096556, 0.197014, -82.217575, -190.485474, -888.567688, 13.727845, 100.772409
1759228837.091842, -1.180491, 9.421632, -0.625336, 0.022771, -0.073786, 0.230340, -82.314453, -190.704636, -888.657043, 13.727845, 100.772409
1759228837.111816, -1.467795, 9.313145, -0.921468, 0.077217, -0.054359, 0.234496, -82.390137, -190.761459, -888.702881, 13.727845, 100.772409
1759228837.131793, -1.689708, 9.109488, -1.004068, 0.131711, -0.019457, 0.221539, -82.388260, -190.957932, -888.705811, 13.727845, 100.772409
1759228837.151817, -1.848324, 9.562441, -0.945710, 0.170075, -0.070819, 0.203632, -82.314560, -190.884369, -888.795044, 13.727845, 100.772409
1759228837.171815, -1.741034, 9.702353, -0.596605, 0.125640, -0.146893, 0.197079, -82.385803, -191.205643, -888.741516, 13.727845, 100.772409
1759228837.191829, -1.732803, 9.448418, -0.489315, 0.006040, -0.171508, 0.189452, -82.435455, -191.194000, -888.419373, 13.727845, 100.772409
1759228837.211806, -1.621473, 9.799018, -1.139939, 0.037033, -0.247688, 0.195873, -82.427994, -191.504044, -888.842407, 13.727845, 100.772409
1759228837.231793, -1.714548, 9.785551, -1.432780, 0.155990, -0.337046, 0.213701, -82.643219, -191.613968, -889.086060, 13.727845, 100.772409
1759228837.251804, -1.750760, 9.377190, -1.279252, 0.257662, -0.342044, 0.170862, -82.917191, -191.634644, -889.377319, 13.727845, 100.772409
1759228837.271805, -1.552191, 9.456498, -1.076343, 0.333342, -0.415762, 0.130194, -82.909836, -191.725891, -889.351929, 13.727845, 100.772409
1759228837.291891, -1.493234, 9.847800, -0.883011, 0.308471, -0.508544, 0.143090, -82.994171, -192.046585, -889.484741, 13.727845, 100.772409
1759228837.311813, -2.294244, 9.712229, -0.659453, 0.166310, -0.474650, 0.068575, -82.887115, -192.007217, -889.653931, 13.727845, 100.772409
1759228837.331785, -2.872892, 9.764303, -0.820164, 0.164317, -0.611268, -0.117666, -82.668289, -192.160110, -889.632141, 13.727845, 100.772409
1759228837.351015, -2.662502, 9.429713, -1.583764, 0.255400, -0.297519, -0.288584, -83.403275, -192.057510, -890.045898, 13.727845, 100.772409
1759228837.370888, -1.224485, 9.312696, -1.262492, 0.357006, -0.163604, -0.242652, -83.368774, -192.162796, -889.999268, 13.727845, 100.772409
1759228837.391814, -0.188992, 9.557354, -0.781707, 0.453551, -0.545899, -0.046430, -83.261749, -192.213348, -890.014648, 13.727845, 100.772409
1759228837.411809, -1.232266, 9.712528, -0.038756, 0.351684, -0.735171, -0.019974, -83.537918, -192.416473, -890.481995, 13.727845, 100.772409
1759228837.431809, -2.997690, 9.474903, -0.143203, 0.180882, -0.538147, -0.184983, -83.697144, -192.322693, -890.738770, 13.727845, 100.772409
1759228837.450983, -2.665195, 9.019107, -1.062277, 0.177075, -0.138595, -0.357140, -83.677490, -192.148849, -890.751099, 13.727845, 100.772409
1759228837.471814, -1.527650, 9.503783, -1.043124, 0.241653, -0.084764, -0.314324, -83.727814, -192.045395, -890.612000, 13.727845, 100.772409
1759228837.491808, -1.400009, 9.803957, 0.502633, 0.120427, -0.136550, -0.216342, -83.842545, -192.185165, -890.540894, 13.727845, 100.772409
1759228837.511782, -1.448791, 9.304466, -0.083199, 0.017927, 0.031593, -0.120721, -83.788025, -191.954498, -890.327332, 13.727845, 100.772409
1759228837.531787, -1.344045, 8.670302, -1.073650, 0.075611, 0.192892, 0.071689, -83.671112, -192.205627, -890.275208, 13.727845, 100.772409
1759228837.551804, -1.222090, 8.802282, -0.141557, 0.208528, 0.207666, 0.260301, -83.712601, -192.482483, -890.092041, 13.727845, 100.772409
1759228837.571793, -1.993173, 8.946832, -0.039205, 0.176186, 0.125382, 0.299662, -83.318405, -192.766785, -890.001526, 13.727845, 100.772409
1759228837.591776, -1.663821, 9.099612, -0.169240, 0.207165, 0.175237, 0.324332, -83.481415, -193.015472, -889.960266, 13.727845, 100.772409
1759228837.610858, -1.092055, 9.039458, 0.123152, 0.209539, 0.359229, 0.469065, -83.440033, -193.496933, -889.995850, 13.727845, 100.772409
1759228837.631774, -1.063325, 8.529942, -0.392948, 0.229207, 0.500636, 0.541301, -83.491074, -193.849243, -889.645264, 13.727845, 100.772409
1759228837.651777, -2.154931, 9.419538, -0.652270, 0.260240, 0.424549, 0.558656, -83.269913, -194.359009, -889.402588, 13.727845, 100.772409
1759228837.671152, -2.911499, 9.993996, -0.812532, 0.208349, 0.152177, 0.491368, -83.005920, -194.785400, -889.230774, 13.727845, 100.772409
1759228837.691781, -4.036025, 11.215787, -0.295684, 0.093508, -0.087485, 0.442095, -83.192047, -195.270950, -889.228760, 13.727845, 100.772409
1759228837.711126, -4.509329, 10.824485, -0.885406, 0.023554, -0.271816, 0.328308, -83.265060, -195.497757, -889.138733, 13.727845, 100.772409
1759228837.731117, -4.192247, 11.919533, -2.267459, 0.136598, -0.554579, 0.384630, -83.339935, -195.749329, -889.256531, 13.727845, 100.772409
1759228837.751851, -4.028394, 15.414170, -0.989404, 0.121427, -0.707831, 0.559267, -83.637787, -196.188293, -889.312683, 13.727845, 100.772409
1759228837.771462, -3.207033, 17.088315, 0.320973, -0.073515, -0.485799, 0.429464, -83.617447, -196.415787, -889.619385, 13.727845, 100.772409
1759228837.791866, -1.865831, 17.647212, 1.316512, -0.366766, -0.477123, 0.299251, -84.018677, -196.752716, -889.973755, 13.727845, 100.772409
1759228837.810819, -1.545308, 17.218649, 1.551143, -0.733353, -0.564933, 0.103263, -84.122955, -196.410629, -890.109375, 13.727845, 100.772409
1759228837.831736, -0.411204, 13.491775, 1.981202, -1.152764, -0.564643, -0.049918, -84.186142, -196.539490, -890.738098, 13.727845, 100.772409
1759228837.851774, -0.367959, 10.959458, 2.205658, -1.425283, -0.571782, -0.244589, -84.350464, -196.313385, -891.572693, 13.727845, 100.772409
1759228837.871811, -1.177648, 10.800244, 2.218377, -1.567484, -0.365428, -0.409897, -84.387100, -195.630768, -891.811340, 13.727845, 100.772409
1759228837.891829, -2.669684, 11.989863, 2.461688, -1.642854, -0.113044, -0.612699, -84.239975, -195.405426, -892.266846, 13.727845, 100.772409
1759228837.911810, -3.565415, 13.055582, 2.047641, -1.717831, 0.190489, -0.854061, -83.950394, -194.529404, -892.270264, 13.727845, 100.772409
1759228837.931779, -3.348590, 12.187085, 1.220744, -1.898494, 0.496282, -1.018372, -83.465927, -193.673355, -892.463684, 13.727845, 100.772409
1759228837.951539, -1.339406, 11.843068, -0.552612, -2.091995, 0.649656, -1.141149, -83.521317, -192.538940, -892.826477, 13.727845, 100.772409
1759228837.971123, 0.686687, 13.193548, 0.270994, -2.075587, 0.476326, -1.144643, -82.690002, -191.491882, -892.699341, 13.727845, 100.772409
1759228837.991839, -0.926855, 13.678373, 3.059490, -2.461967, 0.430351, -1.372435, -82.547882, -189.966660, -893.010376, 13.727845, 100.772409
1759228838.011842, 0.423175, 12.077550, 1.074248, -2.525675, 0.744580, -1.466031, -82.271851, -188.359131, -893.190674, 13.727845, 100.772409
1759228838.031780, -1.275511, 10.522516, 1.711256, -2.537711, 1.148803, -1.741746, -81.493271, -186.777267, -892.407959, 13.727845, 100.772409
1759228838.051810, -1.539621, 9.074174, 0.661099, -2.527926, 0.615993, -2.100280, -81.509262, -185.063065, -891.931824, 13.727845, 100.772409
1759228838.071808, -1.899949, 7.352743, 0.061651, -2.470006, 0.024616, -2.304812, -81.198669, -182.579941, -892.184082, 13.727845, 100.772409
1759228838.091805, -1.348085, 6.390124, 1.610699, -2.529064, -0.155090, -2.383016, -81.551651, -180.632690, -891.836670, 13.727845, 100.772409
1759228838.111825, -0.803404, 5.915923, 1.305438, -2.368644, -0.396297, -2.329289, -82.010254, -178.585480, -891.750671, 13.727845, 100.772409
1759228838.131276, -1.544859, 5.114164, 1.609951, -2.300460, -0.720929, -2.286453, -82.648895, -176.387680, -891.322632, 13.727845, 100.772409
1759228838.151618, -1.817648, 4.705055, 0.986411, -2.263169, -0.976669, -2.177493, -83.500763, -174.694031, -891.070496, 13.727845, 100.772409
1759228838.171378, -1.708562, 4.308366, 0.558148, -2.048902, -1.324198, -1.974783, -84.415131, -172.911682, -890.822021, 13.727845, 100.772409
1759228838.191800, -0.808342, 3.895965, 0.092326, -1.720718, -1.627690, -1.677386, -85.531586, -171.614990, -890.888916, 13.727845, 100.772409
1759228838.211794, -0.712574, 3.121889, -0.639850, -1.191046, -1.403646, -1.296875, -85.927307, -170.567688, -891.303650, 13.727845, 100.772409
1759228838.231775, -0.279673, 2.129343, -0.119411, -0.559733, -1.082973, -0.822004, -86.355667, -170.030441, -891.545837, 13.727845, 100.772409
1759228838.251169, 0.042198, 0.745495, 0.501136, 0.041260, -0.814068, -0.412525, -86.394669, -169.912216, -891.781250, 13.727845, 100.772409
1759228838.271778, 0.034716, -0.284162, 1.488894, 0.649123, -0.316711, -0.122179, -86.767960, -170.179428, -892.684875, 13.727845, 100.772409
1759228838.291841, -0.282965, 0.101005, 2.198775, 1.304757, 0.296607, 0.166665, -86.449722, -170.291580, -892.830627, 13.727845, 100.772409
1759228838.311797, -1.192761, 0.560842, 1.851915, 2.034958, 1.236492, 0.532716, -85.893005, -171.207565, -893.529602, 13.727845, 100.772409
1759228838.331322, -2.021155, 1.468543, 4.402937, 2.479868, 2.307280, 1.143371, -84.613052, -172.821548, -893.969971, 13.727845, 100.772409
1759228838.351814, -7.001543, 3.461267, 14.531308, 1.554420, 2.211943, 1.041870, -82.541000, -174.683807, -894.083862, 13.727845, 100.772409
1759228838.371779, -8.607903, 20.288016, 8.724920, 2.018269, 2.943049, 0.780608, -80.921097, -175.783798, -893.964233, 13.727845, 100.772409
1759228838.391787, -19.478477, 43.993156, 5.580286, 1.509916, 1.399697, 0.298527, -79.860336, -176.952301, -893.833984, 13.727845, 100.772409
1759228838.411811, -1.363498, 14.335133, 4.354604, 0.649701, 0.751285, 1.119086, -79.845856, -176.481644, -893.248169, 13.727845, 100.772409
1759228838.431778, 0.907552, -0.677260, 1.575983, 1.245540, 0.173613, 1.242740, -79.738403, -176.932922, -893.363403, 13.727845, 100.772409
1759228838.451802, 4.392612, -3.411288, 4.699668, 1.297452, 0.708360, 1.764883, -79.304550, -178.282913, -893.689514, 13.727845, 100.772409
1759228838.471774, 2.430863, 3.003526, 1.970578, 1.447257, 1.759968, 2.173111, -77.706207, -180.015854, -893.287842, 13.727845, 100.772409
1759228838.491821, 1.291073, 13.976900, 0.441880, 1.407705, 2.287130, 2.338542, -76.285507, -181.804764, -892.378357, 13.727845, 100.772409
1759228838.511811, -1.172710, 26.446651, -3.726874, 1.832836, 2.896519, 3.000755, -74.738434, -184.267120, -891.387451, 13.727845, 100.772409
1759228838.531556, -8.962993, 17.451785, -2.130989, 1.529263, 1.718549, 2.524778, -73.904236, -186.367569, -890.548584, 13.727845, 100.772409
1759228838.551808, -9.031976, 10.799346, -1.990629, 1.464007, 0.795984, 1.531587, -73.872101, -187.557709, -890.232910, 13.727845, 100.772409
1759228838.571800, -6.316353, 8.232013, -1.139191, 1.594134, 0.352400, 1.552452, -73.402786, -188.385132, -889.709106, 13.727845, 100.772409
1759228838.591822, -6.027852, 6.971167, 0.623989, 1.646257, 0.340428, 1.437623, -73.432373, -189.545883, -889.503967, 13.727845, 100.772409
1759228838.611840, -3.453337, 8.254309, 4.295796, 1.321498, 0.073019, 1.167666, -73.075943, -190.412994, -889.495239, 13.727845, 100.772409
1759228838.631778, -1.713201, 9.194333, 3.757251, 0.768791, -0.326159, 0.801551, -73.128998, -191.149414, -889.656250, 13.727845, 100.772409
1759228838.651806, -1.117194, 8.168418, 1.865382, 0.313149, 0.173050, 0.434504, -73.052841, -191.153763, -889.678467, 13.727845, 100.772409
1759228838.671807, -0.730680, 6.118233, 1.355567, 0.133017, 0.022415, 0.375796, -72.958221, -191.201126, -889.663757, 13.727845, 100.772409
1759228838.691802, -1.124227, 4.361787, 0.306757, 0.109056, -0.181786, 0.413726, -73.110260, -191.557266, -889.632812, 13.727845, 100.772409
1759228838.711833, -1.899350, 3.278410, -1.156998, 0.128689, -0.631903, 0.501776, -73.168152, -191.928711, -890.341553, 13.727845, 100.772409
1759228838.731781, -3.290232, 2.239476, -1.815852, 0.465690, -1.072240, 0.561802, -73.202759, -192.462036, -891.161560, 13.727845, 100.772409
1759228838.751806, -4.544045, 1.342249, -2.680009, 1.055343, -0.494392, 0.246952, -73.236938, -192.955750, -891.218018, 13.727845, 100.772409
1759228838.771806, -4.428974, 2.770690, -2.263119, 1.542945, -0.512147, -0.193053, -73.118347, -193.296494, -891.454407, 13.727845, 100.772409
1759228838.791822, -2.513164, 6.436811, -1.101033, 1.836264, -0.789670, -0.220378, -73.293884, -193.807281, -891.778809, 13.727845, 100.772409
1759228838.811799, 0.147094, 12.180651, 0.916680, 1.643557, -0.483369, -0.021030, -73.008759, -194.510223, -892.034851, 13.727845, 100.772409
1759228838.831786, 1.672350, 16.293590, 4.859930, 0.504990, -0.469026, 0.493915, -73.189896, -195.215652, -892.255127, 13.727845, 100.772409
1759228838.851801, -3.012804, 13.472771, 0.474351, 0.123439, -0.425696, 0.606251, -73.153259, -196.209167, -892.631714, 13.727845, 100.772409
1759228838.871776, -5.116259, 13.089250, -0.134823, 0.049665, -0.360152, 0.518966, -72.946213, -196.597992, -892.949707, 13.727845, 100.772409
1759228838.891802, -5.002086, 14.336629, 1.069610, -0.075183, -0.578242, 0.479714, -73.139679, -196.973969, -893.032410, 13.727845, 100.772409
1759228838.911883, -4.050540, 16.891542, 2.457049, 0.233285, -0.604065, 0.326683, -72.758179, -197.383911, -894.202515, 13.727845, 100.772409
1759228838.931285, -4.056077, 19.192070, 9.373150, 0.008444, -0.739248, 0.201106, -72.811386, -197.425034, -894.545227, 13.727845, 100.772409
1759228838.950857, -6.011691, 16.533309, 5.265897, -1.009017, -0.026081, 0.038025, -72.679947, -196.973923, -894.771851, 13.727845, 100.772409
1759228838.971101, -7.133823, 15.692196, 1.189918, -1.547958, -1.068162, -0.059343, -72.524933, -196.124771, -895.613403, 13.727845, 100.772409
1759228838.991837, -5.888838, 13.357700, -0.489016, -1.630308, -1.102047, -0.084209, -72.900986, -195.084137, -896.789062, 13.727845, 100.772409
1759228839.011807, -1.211017, 13.179033, 1.519720, -1.355908, -0.483371, -0.469611, -73.040482, -193.649780, -897.243652, 13.727845, 100.772409
1759228839.031294, 0.330998, 12.847585, 4.446781, -1.730193, 0.390632, -0.775789, -72.240051, -192.093826, -897.099487, 13.727845, 100.772409
1759228839.051624, -2.491316, 14.648624, 3.935020, -2.128693, 0.944497, -1.172246, -71.584061, -190.309036, -896.551575, 13.727845, 100.772409
1759228839.071531, -4.548385, 14.206893, 2.299930, -2.684685, 0.550747, -1.442635, -71.005829, -187.687729, -896.351135, 13.727845, 100.772409
1759228839.091836, -3.943250, 13.670742, -2.463933, -2.813170, -0.147623, -1.639945, -71.146545, -184.915070, -896.221497, 13.727845, 100.772409
1759228839.111819, -1.928978, 13.265673, -1.615338, -2.580431, 0.327897, -1.764473, -71.424316, -181.981537, -895.908203, 13.727845, 100.772409
1759228839.131778, 2.877980, 12.852075, 1.849521, -2.638391, 0.234752, -1.394647, -71.515991, -179.612610, -894.751648, 13.727845, 100.772409
1759228839.151801, 2.743157, 10.799645, 1.958008, -2.674320, -0.069413, -1.204682, -71.941055, -177.250458, -894.080811, 13.727845, 100.772409
1759228839.171799, 1.602170, 9.386468, 3.641730, -2.714887, -0.114939, -1.353813, -72.237625, -174.901901, -892.857239, 13.727845, 100.772409
1759228839.191817, 1.494580, 7.977779, 1.481861, -2.658570, -0.739574, -1.439818, -73.369797, -172.762222, -892.254883, 13.727845, 100.772409
1759228839.211878, -1.698985, 6.431723, -0.678008, -2.449142, -0.954842, -1.635346, -74.187073, -170.618378, -891.977112, 13.727845, 100.772409
1759228839.231281, -3.829376, 5.404012, 0.810737, -2.564786, -0.878571, -1.824757, -75.322220, -168.268143, -891.407104, 13.727845, 100.772409
1759228839.251806, -1.736245, 5.165490, 1.719186, -2.751041, -1.087132, -1.514510, -76.435883, -166.567276, -890.425049, 13.727845, 100.772409
1759228839.271802, -0.508618, 4.852299, 0.205452, -2.623232, -1.421611, -1.105824, -77.327316, -164.967636, -889.426697, 13.727845, 100.772409
1759228839.291841, -0.246752, 3.925144, -0.565780, -2.464835, -1.493879, -0.852543, -78.222794, -163.737869, -889.046082, 13.727845, 100.772409
1759228839.311880, 0.814627, 2.583942, -0.956035, -2.129223, -1.339763, -0.620810, -78.953125, -162.933777, -888.183777, 13.727845, 100.772409
1759228839.331799, 1.931971, 1.014244, -0.776320, -1.681873, -0.879039, -0.339994, -79.343628, -162.139587, -887.327698, 13.727845, 100.772409
1759228839.351360, 1.872565, -0.361524, -0.519542, -1.112830, -0.506899, -0.059947, -79.475372, -162.007507, -887.126709, 13.727845, 100.772409
1759228839.371802, 2.265364, -0.776320, -0.922815, -0.331861, -0.132917, 0.296002, -79.081116, -162.219040, -887.286377, 13.727845, 100.772409
1759228839.391817, 2.460491, -0.910395, 0.231789, 0.494098, 0.784535, 0.604713, -78.554352, -162.838348, -887.313293, 13.727845, 100.772409
1759228839.411289, -1.522862, 0.153229, 1.067215, 1.370595, 1.937396, 0.638045, -77.213333, -163.663589, -887.362488, 13.727845, 100.772409
1759228839.431775, -4.385878, 1.761235, 5.485864, 2.413359, 2.565600, 1.021843, -75.380508, -165.389038, -887.088013, 13.727845, 100.772409
1759228839.451798, -10.735900, 2.308459, 14.428806, 1.733702, 2.924231, 1.346990, -73.780396, -166.381485, -886.190186, 13.727845, 100.772409
1759228839.471811, -4.041861, 12.093711, 7.265205, 2.422696, 2.727381, 1.602164, -71.973831, -168.094421, -886.702026, 13.727845, 100.772409
1759228839.491817, -9.920075, 41.005193, 19.089269, 1.507687, 1.255226, 1.263445, -71.312363, -168.931015, -886.714722, 13.727845, 100.772409
1759228839.511835, -15.839739, 23.791332, 3.465308, 0.875097, 0.700890, 1.061756, -72.041519, -168.974335, -886.326111, 13.727845, 100.772409
1759228839.531316, -3.958214, 2.160019, 5.007922, 0.665349, -0.464518, 0.730035, -71.828186, -169.006882, -886.429810, 13.727845, 100.772409
1759228839.551401, 3.505111, -1.363797, 3.757550, 1.709759, 0.042514, 1.308291, -71.610611, -169.806305, -887.239502, 13.727845, 100.772409
1759228839.571800, 3.222296, -2.008735, -0.083647, 2.081208, 1.164297, 1.781913, -70.532013, -171.454514, -887.404419, 13.727845, 100.772409
1759228839.591818, -1.120187, 4.044256, 2.366369, 2.132862, 1.588961, 1.902314, -69.024124, -173.457169, -887.575989, 13.727845, 100.772409
1759228839.611827, -2.135329, 22.743419, -1.540369, 2.527543, 2.159697, 2.086892, -67.800659, -175.385132, -886.743652, 13.727845, 100.772409
1759228839.631775, -9.825355, 27.627142, -3.598485, 2.851715, 0.807681, 2.508491, -66.399673, -178.267487, -887.279724, 13.727845, 100.772409
1759228839.651804, -13.211055, 13.006650, 2.800168, 1.658796, 0.793751, 0.970051, -66.526947, -179.129852, -886.817749, 13.727845, 100.772409
1759228839.671801, -4.191349, 7.351845, 2.092383, 2.232259, -0.611247, 0.998441, -66.223709, -179.768814, -887.477966, 13.727845, 100.772409
1759228839.691799, -1.163283, 7.405715, 4.607791, 1.992533, -0.885131, 1.090337, -66.147858, -181.106979, -888.690125, 13.727845, 100.772409
1759228839.711884, -1.110161, 9.219472, 3.617339, 1.662536, -0.855771, 1.144917, -66.285629, -182.058105, -889.677368, 13.727845, 100.772409
1759228839.731773, -1.779640, 9.064298, 3.169474, 1.101840, -0.511183, 0.901375, -66.560577, -182.810181, -890.168213, 13.727845, 100.772409
1759228839.751806, -1.425897, 7.040300, 2.183811, 0.883198, -0.138111, 0.555692, -66.653107, -183.429276, -890.605774, 13.727845, 100.772409
1759228839.771795, -1.379509, 4.755483, 1.494730, 0.799192, -0.392734, 0.521038, -66.670273, -183.871826, -890.924622, 13.727845, 100.772409
1759228839.791805, -1.684620, 3.075651, -0.017358, 0.931123, -0.794949, 0.543542, -66.899475, -184.287704, -891.665161, 13.727845, 100.772409
1759228839.811795, -2.373851, 1.796399, 0.591966, 1.035830, -0.814717, 0.436138, -66.925308, -184.697830, -892.447205, 13.727845, 100.772409
1759228839.831300, -3.684078, 0.921917, 0.117765, 0.871230, -1.491565, 0.102025, -67.294617, -185.429184, -893.917175, 13.727845, 100.772409
1759228839.851794, -2.636615, 2.342726, -0.973243, 0.909808, -1.183762, -0.240123, -67.464264, -185.541550, -894.875732, 13.727845, 100.772409
1759228839.871805, -0.856226, 3.589956, 0.299874, 1.001977, -0.936266, -0.289927, -67.730881, -185.438538, -895.871277, 13.727845, 100.772409
1759228839.891831, -1.135300, 3.265691, -1.537377, 0.933436, -0.344989, -0.419796, -67.804428, -185.485306, -896.059326, 13.727845, 100.772409
1759228839.911803, -0.396390, 6.692691, -3.805284, 1.497853, -0.076261, -0.406211, -67.493134, -185.727966, -896.166321, 13.727845, 100.772409
1759228839.931781, -0.092177, 13.516166, -3.242497, 2.069581, -0.477658, 0.283893, -67.340485, -186.886185, -896.922119, 13.727845, 100.772409
1759228839.951777, -3.042881, 16.569970, 0.018854, 1.845924, -0.738987, 0.601149, -67.187881, -188.212494, -897.615601, 13.727845, 100.772409
1759228839.971803, -1.521066, 16.420482, 4.519056, 0.426538, -1.102009, 0.845830, -67.362396, -189.063599, -898.741943, 13.727845, 100.772409
1759228839.991808, -1.312023, 15.583110, 1.952471, 0.125686, -0.815964, 0.893735, -67.740936, -189.851593, -899.396851, 13.727845, 100.772409
1759228840.011791, -2.391359, 16.795175, 0.972345, -0.059671, 0.011549, 0.398920, -67.799622, -190.051941, -899.731201, 13.727845, 100.772409
1759228840.031785, -2.545934, 19.423560, 1.061679, -0.370401, 0.373062, 0.180097, -67.430984, -190.106537, -899.225037, 13.727845, 100.772409
1759228840.051502, -4.690989, 21.933730, 1.099836, -0.588257, -0.044268, 0.121586, -67.581772, -189.765259, -898.980347, 13.727845, 100.772409
1759228840.071777, -5.758953, 17.386244, 0.537498, -1.272247, -0.098557, 0.119980, -67.599411, -189.274948, -899.427856, 13.727845, 100.772409
1759228840.091058, -4.610335, 14.321665, 3.139696, -1.526254, -0.305366, -0.000418, -67.669647, -188.381760, -899.336609, 13.727845, 100.772409
1759228840.111768, -1.338508, 15.135544, 3.863044, -2.301606, -0.261564, -0.272920, -68.082123, -186.886368, -899.457520, 13.727845, 100.772409
1759228840.131765, -2.563891, 14.583531, 5.671864, -3.055287, 0.415136, -0.668401, -68.060410, -185.132019, -899.223328, 13.727845, 100.772409
1759228840.151771, -5.594800, 15.216199, 5.114763, -3.461037, 0.764617, -1.173945, -67.923401, -182.776093, -898.349976, 13.727845, 100.772409
1759228840.171769, -5.806089, 13.533225, 0.974590, -3.832596, 0.415553, -1.546864, -68.155640, -179.784134, -896.965759, 13.727845, 100.772409
1759228840.190920, -2.645144, 11.695525, -2.737919, -3.906890, 0.735684, -1.594082, -68.740173, -176.790649, -895.457153, 13.727845, 100.772409
1759228840.211760, 1.419313, 11.199327, -3.305495, -3.042833, 1.482321, -1.440629, -68.715576, -174.075027, -893.158325, 13.727845, 100.772409
1759228840.231764, 2.989161, 11.116727, -0.375740, -2.652284, 1.059464, -1.288792, -69.036377, -171.799103, -890.964722, 13.727845, 100.772409
1759228840.251761, 1.256058, 9.171438, 0.451008, -2.470889, 0.509595, -1.304126, -69.670227, -170.310577, -889.167664, 13.727845, 100.772409
1759228840.271402, -0.902464, 7.557298, 2.043002, -2.523124, -0.601390, -1.614237, -70.328964, -168.451538, -888.191711, 13.727845, 100.772409
1759228840.291575, -3.657442, 5.956923, 0.892738, -2.345158, -1.485447, -1.943522, -71.603027, -166.735474, -887.636780, 13.727845, 100.772409
1759228840.311802, -3.879654, 4.535516, -0.065392, -2.117542, -1.765800, -1.937948, -73.329803, -164.575104, -887.725037, 13.727845, 100.772409
1759228840.331772, -3.939360, 3.150769, -1.116895, -2.241015, -1.780171, -1.965775, -74.654449, -162.760849, -887.056396, 13.727845, 100.772409
1759228840.351798, -2.455403, 3.791518, 2.794782, -2.460900, -1.883338, -1.530482, -76.345566, -161.088501, -886.754517, 13.727845, 100.772409
1759228840.371058, -0.140210, 4.912453, 1.255459, -2.226121, -1.997072, -1.154661, -77.232544, -159.950912, -886.132080, 13.727845, 100.772409
1759228840.391771, 0.454300, 5.403414, 0.138564, -1.951234, -1.461337, -1.013281, -78.696548, -158.884491, -885.615662, 13.727845, 100.772409
1759228840.411600, 1.365593, 4.236540, 0.306907, -1.402279, -0.789669, -0.878023, -79.549820, -157.852448, -884.867798, 13.727845, 100.772409
1759228840.431288, 2.603994, 2.004845, 0.537049, -0.629127, -0.114139, -0.614300, -80.366745, -157.199951, -884.548706, 13.727845, 100.772409
1759228840.451803, 2.971204, 0.367211, 0.495300, 0.060191, 0.456300, -0.195276, -80.391418, -156.814133, -884.159363, 13.727845, 100.772409
1759228840.471799, 1.955015, -0.740407, 0.211588, 0.669829, 1.033436, 0.203196, -80.123703, -157.194321, -884.053345, 13.727845, 100.772409
1759228840.491798, -0.570269, -0.387711, 1.574786, 1.386491, 1.536295, 0.444618, -79.470276, -157.707397, -883.986389, 13.727845, 100.772409
1759228840.511878, -3.383157, 0.329801, 1.916259, 2.464790, 2.248043, 0.789531, -78.556580, -158.183914, -884.479126, 13.727845, 100.772409
1759228840.531808, -4.415955, 1.168370, 3.525761, 2.854291, 2.882726, 1.430077, -76.695007, -159.723724, -885.164062, 13.727845, 100.772409
1759228840.551806, -9.268703, 0.686388, 12.346599, 2.312127, 1.281847, 0.992806, -75.508804, -160.260681, -885.636047, 13.727845, 100.772409
1759228840.571781, -4.363433, 9.230545, 7.062446, 3.099973, 0.954090, 1.514931, -73.659744, -162.104141, -886.371948, 13.727845, 100.772409
1759228840.591817, -8.949227, 39.294685, 11.011233, 1.908721, 2.226858, 0.586144, -72.905792, -163.320618, -886.690674, 13.727845, 100.772409
1759228840.611799, -11.750143, 33.449391, 13.594726, 0.452204, 0.779023, 0.507899, -73.290405, -162.818008, -886.389404, 13.727845, 100.772409
1759228840.631776, -1.404050, 5.842900, -0.002993, 0.987028, 0.562225, 0.386620, -73.669235, -162.973846, -886.602112, 13.727845, 100.772409
1759228840.651804, 4.000861, -0.493954, 2.010680, 1.317995, 0.990997, 1.406434, -72.895782, -163.958878, -886.799072, 13.727845, 100.772409
1759228840.671808, 2.425027, 0.746542, 2.518551, 1.570974, 1.336981, 2.123258, -70.999390, -165.708939, -886.593567, 13.727845, 100.772409
1759228840.691801, -0.492457, 2.661754, 2.019210, 1.692155, 1.574929, 2.138913, -69.656937, -167.425858, -886.642029, 13.727845, 100.772409
1759228840.711807, -0.599149, 10.872369, -1.010203, 1.996950, 2.212682, 2.334279, -68.253418, -169.543869, -885.751770, 13.727845, 100.772409
1759228840.731779, 0.583287, 22.959795, -3.371934, 2.257619, 1.549185, 2.763862, -66.383667, -172.319382, -885.540283, 13.727845, 100.772409
1759228840.751800, -8.229470, 21.068675, -1.796100, 1.920132, 0.578203, 1.740945, -65.507431, -174.494186, -886.328613, 13.727845, 100.772409
1759228840.771783, -10.403854, 8.821735, 6.947375, 1.181215, -0.261995, 1.087055, -65.677704, -175.159103, -886.807251, 13.727845, 100.772409
1759228840.791765, -4.436905, 7.208043, 0.932841, 1.219046, -0.958716, 1.179897, -65.675934, -176.332336, -887.850525, 13.727845, 100.772409
1759228840.811781, -3.347692, 6.760028, 1.735347, 0.939736, -0.567075, 0.828845, -65.730865, -176.817627, -888.378052, 13.727850, 100.772425
1759228840.831764, -2.818275, 6.962189, 0.874333, 0.942325, -0.641348, 0.240202, -65.810654, -177.045502, -889.182129, 13.727850, 100.772425
1759228840.851843, -1.613842, 7.128735, -0.266205, 1.063872, -0.636111, 0.137981, -66.175964, -177.401260, -890.017700, 13.727850, 100.772425
1759228840.871812, -0.497395, 5.600038, -0.137667, 1.012211, -0.316041, 0.405124, -66.142029, -177.546600, -890.559814, 13.727850, 100.772425
1759228840.891825, -0.711078, 4.181324, 0.478691, 0.824955, -0.264013, 0.365420, -66.034332, -178.004257, -890.930054, 13.727850, 100.772425
1759228840.911826, -2.065149, 4.238784, -0.288052, 0.844976, -0.527045, 0.052348, -65.697006, -178.672409, -891.601685, 13.727850, 100.772425
1759228840.931034, -1.743877, 5.090372, -2.886210, 1.323105, -0.387123, -0.058336, -66.032120, -178.743988, -892.162903, 13.727850, 100.772425
1759228840.951793, -0.928052, 5.730073, -1.306187, 1.579465, -0.385752, -0.018438, -66.075546, -179.215363, -892.479187, 13.727850, 100.772425
1759228840.971797, 0.348207, 7.216423, 3.372083, 0.895688, -0.060966, 0.142986, -65.859848, -179.422882, -893.197937, 13.727850, 100.772425
1759228840.991793, 0.637456, 9.644144, -0.319776, 0.858209, 0.390422, 0.376974, -65.715134, -179.955933, -893.046570, 13.727850, 100.772425
1759228841.011814, -2.249053, 8.309376, -1.961599, 0.843890, 0.266027, 0.326001, -65.430038, -180.359970, -893.311707, 13.727850, 100.772425
1759228841.031815, -2.686743, 9.333646, -1.239149, 0.785284, 0.011168, 0.557239, -65.206039, -181.146194, -893.615845, 13.727850, 100.772425
1759228841.051708, -3.081338, 13.787609, -0.865803, 0.744697, -0.196356, 0.690539, -64.599609, -182.007111, -893.643799, 13.727850, 100.772425
1759228841.071794, -4.878336, 15.389479, 1.202637, 0.337930, -0.443672, 0.650549, -64.484543, -182.593124, -894.109314, 13.727850, 100.772425
1759228841.091821, -5.890484, 13.398850, 0.985064, 0.133726, -0.648609, 0.562308, -64.814072, -183.072662, -894.654907, 13.727850, 100.772425
1759228841.111653, -4.879533, 14.383166, 0.090830, 0.414264, -0.792834, 0.429547, -64.719147, -183.569641, -895.174011, 13.727850, 100.772425
1759228841.131768, -4.188955, 16.478243, 1.678335, 0.028475, -0.787871, 0.325023, -64.947998, -184.068207, -896.051636, 13.727850, 100.772425
1759228841.151792, -4.757728, 18.469021, 1.840692, -0.514606, -0.790607, 0.192797, -65.420013, -183.770294, -896.222046, 13.727850, 100.772425
1759228841.171790, -3.365948, 20.366576, 4.010886, -1.338793, -1.168630, 0.250017, -65.524704, -183.731766, -897.189453, 13.727850, 100.772425
1759228841.191812, -2.724601, 16.496049, 4.233846, -1.880535, -0.688745, -0.168793, -66.310928, -182.995102, -897.608154, 13.727850, 100.772425
1759228841.211814, 0.076614, 15.459360, 5.641637, -2.160782, 0.194301, -0.521129, -66.525986, -181.662781, -897.234192, 13.727850, 100.772425
1759228841.231767, -1.089960, 14.601937, 7.971794, -2.882711, 1.148948, -0.932609, -66.495819, -180.268524, -896.108826, 13.727850, 100.772425
1759228841.251789, -4.695478, 14.475942, 5.563077, -3.524130, 0.611182, -1.612159, -66.467606, -178.131088, -894.503235, 13.727850, 100.772425
1759228841.271797, -7.053168, 13.732093, -0.215777, -3.918984, 0.763512, -1.807856, -67.202896, -175.140594, -893.380737, 13.727850, 100.772425
1759228841.291493, -4.299687, 11.734880, -5.800253, -3.110566, 1.022460, -1.933701, -68.053162, -172.512970, -891.203003, 13.727850, 100.772425
1759228841.311260, -0.544382, 12.173917, -1.168520, -2.791161, 0.855986, -2.005316, -68.672165, -170.133575, -889.077881, 13.727850, 100.772425
1759228841.331769, 2.217629, 12.130223, 3.092111, -2.808066, -0.173305, -1.791945, -69.912903, -168.153000, -888.198792, 13.727850, 100.772425
1759228841.351791, 0.132729, 9.441834, 1.490839, -3.066390, -0.207991, -1.782811, -70.880341, -166.308701, -886.840210, 13.727850, 100.772425
1759228841.371794, -0.915632, 7.544429, 3.092261, -3.258664, -1.135578, -1.863865, -71.754501, -164.559082, -885.486450, 13.727850, 100.772425
1759228841.391791, -0.137667, 7.063793, 0.175076, -2.623417, -2.247126, -1.963792, -73.500549, -162.808853, -885.149658, 13.727850, 100.772425
1759228841.411794, -3.327342, 5.425261, -2.047641, -2.613523, -2.120183, -2.391998, -74.995972, -161.101776, -885.011230, 13.727850, 100.772425
1759228841.431767, -4.885518, 5.154118, 3.096301, -3.012670, -1.686072, -1.998691, -77.136368, -159.177307, -883.952576, 13.727850, 100.772425
1759228841.451790, 0.139313, 4.893299, 0.685041, -2.642431, -2.014572, -1.361829, -78.361954, -157.889481, -883.317871, 13.727850, 100.772425
1759228841.471787, 0.824204, 3.868431, -0.292242, -2.578751, -1.902694, -1.111774, -79.413879, -157.174957, -882.484619, 13.727850, 100.772425
1759228841.491795, 1.382352, 3.253122, -0.358083, -2.106197, -1.338132, -0.848424, -80.340866, -156.199173, -881.395386, 13.727850, 100.772425
1759228841.511568, 2.383577, 1.703026, -0.531662, -1.464177, -0.546853, -0.507672, -81.123276, -155.535492, -880.620117, 13.727850, 100.772425
1759228841.531777, 2.580201, 0.487070, 0.023493, -0.783751, -0.096619, -0.196321, -81.183014, -155.439240, -879.937378, 13.727850, 100.772425
1759228841.551798, 1.690007, 0.392649, -0.244807, 0.084244, 0.185175, 0.161604, -81.154495, -155.501099, -879.874084, 13.727850, 100.772425
1759228841.571791, 0.639401, -0.282965, -0.156671, 0.916807, 0.557079, 0.458465, -80.762451, -155.678848, -880.393188, 13.727850, 100.772425
1759228841.591801, 0.246603, -0.843806, 0.644788, 1.744781, 1.237345, 0.629861, -80.282028, -156.106094, -880.918091, 13.727850, 100.772425
1759228841.611798, -0.596904, -1.001375, 1.367837, 2.682761, 2.117512, 0.755673, -79.579056, -156.548996, -881.998962, 13.727850, 100.772425
1759228841.631774, -1.916409, -0.008380, 2.666841, 3.089024, 3.046709, 1.395543, -77.696793, -157.871201, -882.474487, 13.727850, 100.772425
1759228841.651780, -4.245368, 0.482132, 15.317953, 2.295586, 2.581266, 1.302641, -75.946182, -159.168549, -882.436096, 13.727850, 100.772425
1759228841.671777, -7.552958, 10.952425, 7.563283, 3.618011, 3.395114, 1.226152, -74.527390, -160.227814, -882.898254, 13.727850, 100.772425
1759228841.691828, -14.283209, 53.270688, 20.964976, 1.447563, 2.928192, 0.170693, -73.957428, -160.791107, -882.205933, 13.727850, 100.772425
1759228841.711799, -10.583868, 27.704804, 6.657527, -0.018631, 0.901116, 0.546247, -74.522659, -160.191010, -881.732910, 13.727850, 100.772425
1759228841.731771, -1.359009, 2.560599, -0.888847, 1.053421, 0.750494, 0.676572, -74.524612, -160.446701, -881.656616, 13.727850, 100.772425
1759228841.751795, 4.077625, -2.981380, 4.136432, 1.520057, 1.217432, 1.703044, -73.333099, -161.733459, -882.062988, 13.727850, 100.772425
1759228841.771770, 2.681506, -2.965817, 1.511938, 1.789132, 1.315448, 2.072581, -71.356888, -163.307983, -882.227661, 13.727850, 100.772425
1759228841.791785, -2.249801, 1.619977, 2.341978, 1.876011, 2.286344, 1.973172, -69.867874, -164.958847, -882.200012, 13.727850, 100.772425
1759228841.811780, -0.166696, 16.314240, -0.621146, 2.120353, 3.045905, 2.747210, -68.449158, -166.983002, -881.158569, 13.727850, 100.772425
1759228841.831778, -3.085078, 31.305384, -3.823091, 1.651951, 1.817023, 2.402779, -66.294556, -169.728638, -881.117798, 13.727850, 100.772425
1759228841.851782, -16.598402, 14.530859, 2.394651, 1.084272, 0.702042, 0.453714, -67.169510, -169.629578, -880.732239, 13.727850, 100.772425
1759228841.871782, -5.912331, 8.003367, 0.067935, 1.430490, 0.419646, 0.733809, -66.673721, -170.193054, -880.830994, 13.727850, 100.772425
1759228841.891770, -4.055628, 4.937442, 1.245284, 1.201250, 0.303109, 0.742055, -66.338669, -170.666031, -881.475464, 13.727850, 100.772425
1759228841.911763, -2.189348, 6.537966, 1.792658, 0.940442, 0.532336, 0.820957, -65.918732, -171.243027, -881.103821, 13.727850, 100.772425
1759228841.931758, -0.905607, 7.487866, 1.374272, 0.903694, 0.800896, 0.801434, -65.697433, -172.045746, -881.022217, 13.727850, 100.772425
1759228841.951769, -0.953341, 6.809708, 0.677409, 0.838628, 0.856989, 0.777060, -65.307938, -172.754547, -880.679199, 13.727850, 100.772425
1759228841.971782, -1.451036, 6.231209, 0.225504, 0.817168, 0.461849, 0.840112, -65.009995, -173.353302, -880.402405, 13.727850, 100.772425
1759228841.991852, -2.716970, 5.226093, 0.555904, 0.699538, 0.140125, 0.713885, -64.861847, -173.873550, -880.738892, 13.727850, 100.772425
1759228842.011794, -3.525612, 4.262427, 0.648380, 0.484783, 0.541569, 0.413336, -64.798569, -174.251007, -880.673950, 13.727850, 100.772425
1759228842.031856, -3.081338, 3.482666, 0.851737, 0.374019, 0.408248, 0.105675, -64.782944, -174.235931, -880.338440, 13.727850, 100.772425
1759228842.051779, -1.873762, 4.290110, -0.476296, 0.492799, 0.385084, 0.042076, -64.343353, -174.509796, -880.218384, 13.727850, 100.772425
1759228842.071779, -1.389834, 6.616227, -2.683900, 0.990855, 0.543736, 0.137333, -64.206879, -174.690186, -879.803223, 13.727850, 100.772425
1759228842.091769, -0.296432, 8.678233, -3.188328, 1.529677, 0.493152, 0.447301, -64.181000, -175.025360, -880.211426, 13.727850, 100.772425
1759228842.111780, 0.505925, 9.685743, 0.234183, 1.641339, 0.164624, 0.764377, -63.793991, -175.296844, -880.413940, 13.727850, 100.772425
1759228842.131789, -1.637634, 12.099547, 3.969287, 0.805773, 0.169849, 1.037123, -63.171463, -176.359573, -880.581238, 13.727850, 100.772425
1759228842.151807, -6.985832, 13.140875, 1.796250, 0.445144, 0.024044, 0.964297, -62.653931, -177.230499, -880.862000, 13.727850, 100.772425
1759228842.171764, -10.485855, 11.327716, -0.286706, 0.449875, -0.337895, 0.852057, -62.475143, -178.015335, -881.275513, 13.727850, 100.772425
1759228842.191788, -10.217405, 11.911004, -0.050727, 0.576892, -0.539636, 0.655760, -62.386887, -178.541321, -881.782043, 13.727850, 100.772425
1759228842.211450, -7.270293, 17.068413, 0.894683, 0.818455, -0.471889, 0.442817, -62.239807, -179.119751, -882.374146, 13.727850, 100.772425
1759228842.231764, -4.632331, 21.715409, 6.703615, -0.495196, -0.768953, 0.154729, -62.286194, -179.344955, -882.496826, 13.727850, 100.772425
1759228842.251792, -2.749441, 23.033567, 5.532102, -1.297340, -1.234458, -0.129956, -62.234619, -179.168991, -883.512085, 13.727850, 100.772425
1759228842.271790, -3.084929, 16.166398, 4.654029, -1.974341, -0.851396, -0.196655, -62.337784, -178.519119, -883.769348, 13.727850, 100.772425
1759228842.291806, -2.724901, 15.199290, 3.789572, -2.411758, -0.326538, -0.515431, -62.640808, -178.213837, -883.635925, 13.727850, 100.772425
1759228842.311783, -0.521038, 15.514127, 5.246294, -2.793802, 0.656209, -1.016615, -62.634094, -177.158920, -882.778503, 13.727850, 100.772425
1759228842.331273, -2.292598, 15.200786, 3.819350, -3.256170, 1.626080, -1.485484, -63.063873, -175.744904, -880.576721, 13.727850, 100.772425
1759228842.351786, -3.796456, 13.709797, -0.809390, -3.026574, 1.009149, -1.622310, -63.598404, -174.230637, -878.477417, 13.727850, 100.772425
1759228842.371768, -3.597887, 12.866889, -3.131017, -2.837986, -0.057678, -1.536600, -64.484375, -172.766647, -877.002136, 13.727850, 100.772425
1759228842.391101, -2.131737, 11.903971, -2.899677, -2.663959, 0.418350, -1.631114, -65.124252, -171.345200, -876.106750, 13.727850, 100.772425
1759228842.411827, -0.153827, 12.034604, 2.729091, -2.754621, -0.300320, -1.598417, -65.648682, -170.019470, -874.851135, 13.727850, 100.772425
1759228842.431763, 1.278953, 12.031612, 4.930559, -2.853184, -1.491855, -1.422975, -66.441345, -169.034164, -873.976868, 13.727850, 100.772425
1759228842.451567, 1.711854, 9.676166, 0.070030, -2.759679, -2.150144, -1.306732, -67.341675, -168.156830, -874.740601, 13.727850, 100.772425
1759228842.471770, -2.171990, 7.354688, -3.494337, -2.460439, -2.333924, -1.698385, -67.622772, -167.433502, -875.307373, 13.727850, 100.772425
1759228842.491795, -6.643610, 6.171055, -0.210091, -2.726996, -1.515692, -2.023562, -68.725342, -165.795380, -874.939636, 13.727850, 100.772425
1759228842.511795, -2.692579, 6.288820, 2.287360, -2.688826, -1.583245, -1.601631, -69.921539, -164.607330, -874.700073, 13.727850, 100.772425
1759228842.531796, 1.253514, 4.111892, -1.694796, -2.514503, -1.461823, -1.345840, -71.065216, -163.612350, -873.907837, 13.727850, 100.772425
1759228842.551801, 1.661277, 3.240552, -1.838448, -2.488594, -1.141216, -1.103149, -71.505981, -163.045242, -872.908997, 13.727850, 100.772425
1759228842.571768, 1.495478, 0.829741, -0.375291, -2.350428, -0.915033, -0.823007, -72.085602, -162.496872, -872.258606, 13.727850, 100.772425
1759228842.591780, 1.195455, 0.433799, -0.455647, -1.917326, -0.482101, -0.691634, -72.378433, -162.347076, -871.675171, 13.727850, 100.772425
1759228842.611775, 1.865233, 1.128866, -0.326060, -1.285782, 0.156790, -0.528735, -72.845383, -161.886597, -870.453613, 13.727850, 100.772425
1759228842.631772, 1.353472, 1.791312, -0.002095, -0.794947, 0.294957, -0.386153, -73.100967, -162.048904, -869.890381, 13.727850, 100.772425
1759228842.651779, -1.223287, 1.592892, -0.001796, -0.316471, 0.342612, -0.440282, -73.018036, -162.085922, -869.296631, 13.727850, 100.772425
1759228842.671773, -4.423587, 0.872387, 1.612944, 0.354776, 0.511017, -0.662721, -73.192444, -161.709076, -868.810364, 13.727850, 100.772425
1759228842.691762, -5.259313, 0.860865, 4.210653, 0.984396, 0.276791, -0.632968, -73.793976, -161.293060, -869.215759, 13.727850, 100.772425
1759228842.711769, -5.417181, 0.717812, 5.318120, 1.564442, -0.354784, -0.393137, -73.766602, -160.611099, -870.497375, 13.727850, 100.772425
1759228842.731261, -5.034707, 0.608576, 4.798579, 2.125947, 0.351440, -0.059992, -73.704483, -160.642807, -871.454407, 13.727850, 100.772425
1759228842.751767, -10.297312, 3.028067, 29.930065, 0.741029, 1.598060, -0.168893, -72.443283, -161.435822, -871.774658, 13.727850, 100.772425
1759228842.771750, -4.650288, 31.093048, 21.473595, -0.142514, 1.650223, -0.108717, -73.056458, -159.938217, -870.595459, 13.727850, 100.772425
1759228842.791763, 0.315735, 23.743148, 0.657358, 1.786909, 2.009997, 1.759516, -73.080490, -160.422363, -869.710938, 13.727850, 100.772425
1759228842.811757, -3.407248, 2.108394, 5.457882, 0.835355, 1.219258, 1.559366, -73.169174, -161.026077, -869.363220, 13.727850, 100.772425
1759228842.831752, -3.484461, -4.076128, 6.080674, 1.581147, 1.964674, 1.155611, -72.750870, -161.386078, -869.319885, 13.727850, 100.772425
1759228842.851760, -2.993500, -0.762254, 3.313575, 1.591867, 2.236115, 1.073042, -72.527420, -161.980530, -868.749268, 13.727850, 100.772425
1759228842.871770, 2.017414, 8.984691, 1.194707, 1.864464, 2.905237, 1.856295, -71.748749, -162.571289, -868.008484, 13.727850, 100.772425
1759228842.891807, -0.579995, 17.255311, -0.806098, 1.759212, 3.715149, 2.558082, -70.298431, -164.213196, -866.702515, 13.727850, 100.772425
1759228842.911797, -9.587581, 20.569784, -1.426346, 2.113480, 3.013155, 1.948381, -69.978821, -165.351334, -865.721497, 13.727850, 100.772425
1759228842.931770, -8.847323, 13.769503, -0.736067, 1.898960, 2.244124, 1.517421, -69.908630, -165.775330, -865.286621, 13.727850, 100.772425
1759228842.951775, -7.209839, 9.886257, 1.221492, 1.841281, 0.959489, 1.382115, -69.771820, -166.192688, -865.360474, 13.727850, 100.772425
1759228842.971802, -3.240253, 10.419566, 0.753276, 1.662744, 0.262490, 1.935378, -68.852982, -166.893463, -865.562866, 13.727850, 100.772425
1759228842.991795, -2.597858, 8.238298, -0.162506, 1.744302, 0.451137, 2.280267, -68.085342, -168.169739, -866.594727, 13.727850, 100.772425
1759228843.011797, -2.369511, 6.494422, 0.279972, 1.776192, 0.541233, 1.897367, -67.505096, -169.276245, -866.743774, 13.727850, 100.772425
1759228843.031797, -1.336862, 6.351368, -0.602441, 1.811291, 1.055047, 1.409293, -67.116928, -169.738907, -866.836731, 13.727850, 100.772425
1759228843.051791, -1.010054, 6.264129, -0.089184, 1.770112, 1.610021, 1.220538, -66.928970, -170.164917, -866.578735, 13.727850, 100.772425
1759228843.071789, -1.077989, 6.253804, 0.480636, 1.584126, 2.011262, 1.335352, -66.616364, -170.703918, -865.831909, 13.727850, 100.772425
1759228843.091765, -2.296638, 6.520608, 1.168221, 1.211541, 1.735677, 1.566593, -66.382111, -171.755463, -865.271851, 13.727850, 100.772425
1759228843.111806, -4.813692, 7.632116, 0.336385, 0.790390, 0.608577, 1.489014, -65.934738, -172.831421, -865.291138, 13.727850, 100.772425
1759228843.131761, -6.568492, 8.441207, -1.287632, 0.554856, -0.423066, 1.077174, -65.164337, -173.414124, -865.836182, 13.727850, 100.772425
1759228843.151780, -6.908619, 8.377611, -1.127519, 0.665263, -0.307492, 0.587385, -65.164047, -173.616486, -865.923340, 13.727850, 100.772425
1759228843.171755, -4.107552, 6.762123, -2.378490, 1.307923, -0.037600, -0.198546, -65.108368, -172.851883, -866.265869, 13.727850, 100.772425
1759228843.191791, 0.225953, 8.820538, -0.109535, 1.339157, 0.705467, -0.364943, -65.457230, -172.053040, -866.258606, 13.727850, 100.772425
1759228843.211894, 2.383128, 11.457302, 2.242020, 1.172812, 0.637552, -0.185425, -65.852753, -171.449509, -866.034729, 13.727850, 100.772425
1759228843.231640, 1.041328, 13.718776, 6.321441, 0.607391, 0.485973, 0.297833, -65.507324, -171.829834, -865.721802, 13.727850, 100.772425
1759228843.251830, -4.040365, 11.552472, 3.080889, -0.675257, 1.087411, 0.099541, -66.012939, -171.928711, -864.889526, 13.727850, 100.772425
1759228843.271031, -4.155885, 8.676288, -0.833631, -0.990887, 0.849271, 0.033321, -65.718353, -172.381104, -863.739136, 13.727850, 100.772425
1759228843.291790, -4.282628, 6.646304, -2.674323, -0.625028, 0.704940, 0.151048, -66.170746, -172.597137, -863.128540, 13.727850, 100.772425
1759228843.311849, -4.564097, 7.814375, -2.727594, 0.083803, 0.421374, 0.402248, -65.985657, -172.797714, -862.898193, 13.727850, 100.772425
1759228843.331760, -4.131494, 10.708665, -2.245013, 0.754759, 0.101283, 0.544146, -65.666473, -172.890259, -862.867249, 13.727850, 100.772425
1759228843.350912, -2.838027, 10.837952, 0.204555, 0.975837, -0.128647, 0.757218, -65.947159, -172.954514, -863.310913, 13.727850, 100.772425
1759228843.371796, -4.210353, 13.729849, 2.183512, 0.928870, -0.336960, 0.817490, -64.868561, -173.569336, -864.202881, 13.727850, 100.772425
1759228843.391639, -7.496096, 18.308460, 2.079065, 0.634143, -0.499878, 0.608149, -64.732620, -173.632614, -864.799072, 13.727850, 100.772425
1759228843.411757, -7.445069, 17.694497, 3.787178, -0.695403, -0.891354, 0.380353, -64.347305, -173.897507, -864.963135, 13.727850, 100.772425
1759228843.431825, -3.964499, 20.569035, 3.196858, -0.827050, -1.032880, 0.319037, -64.387100, -174.204956, -865.499695, 13.727850, 100.772425
1759228843.451577, -4.510975, 16.818518, 6.915352, -1.517824, -0.763489, 0.024495, -64.039246, -174.741394, -866.061646, 13.727850, 100.772425
1759228843.471792, -6.073341, 12.403760, 2.838326, -2.409845, 0.050968, -0.679048, -64.603622, -174.901230, -865.573425, 13.727850, 100.772425
1759228843.491793, -5.510854, 13.602507, -0.523732, -2.664093, -0.057745, -1.051355, -65.350906, -174.462082, -864.170532, 13.727850, 100.772425
1759228843.511769, -4.495712, 14.508862, -4.088698, -2.366651, -0.395575, -0.649773, -65.770767, -174.669067, -863.820557, 13.727850, 100.772425
1759228843.531785, -8.437915, 11.640758, -5.051017, -1.684234, -0.445249, -0.585352, -66.061386, -174.949326, -863.855713, 13.727850, 100.772425
1759228843.550864, -8.566005, 12.377274, -4.213945, -1.598790, 0.508091, -1.535773, -67.102890, -174.404205, -863.116882, 13.727850, 100.772425
1759228843.571076, -3.793313, 14.664036, 10.269928, -2.514673, 1.141633, -2.325681, -68.463684, -173.789398, -861.564209, 13.727850, 100.772425
1759228843.591802, 0.489614, 15.919645, 2.313697, -3.406393, -0.369075, -2.621185, -70.063461, -172.737122, -860.455933, 13.727850, 100.772425
1759228843.611772, 0.954389, 13.195642, -2.016516, -2.633240, 0.253903, -2.695728, -71.670242, -172.009384, -859.630859, 13.727850, 100.772425
1759228843.630953, 0.568174, 10.096348, -1.757793, -2.071718, 1.109553, -2.705404, -73.731903, -171.145813, -858.512451, 13.727850, 100.772425
1759228843.651802, -0.370203, 7.195474, -1.078588, -1.917608, -0.679448, -2.798832, -75.119293, -170.196457, -857.974121, 13.727850, 100.772425
1759228843.671784, -4.781520, 4.611532, -0.940023, -2.095017, -2.986357, -3.040792, -75.355209, -169.720734, -859.081543, 13.727850, 100.772425
1759228843.691786, -8.954314, 5.276521, 2.913743, -2.551289, -3.087379, -3.677470, -76.482269, -168.545471, -860.069275, 13.727850, 100.772425
1759228843.710860, -1.995717, 7.655310, 0.013617, -2.285152, -2.730499, -2.945840, -77.357224, -167.728073, -860.333252, 13.727850, 100.772425
1759228843.731782, -0.814328, 6.481553, -2.782960, -2.147648, -2.912051, -2.586930, -78.009293, -167.048660, -861.191284, 13.727850, 100.772425
1759228843.750915, 1.372925, 6.211756, -1.434276, -2.307492, -2.733092, -2.283773, -78.528305, -166.659973, -861.772705, 13.727850, 100.772425
1759228843.771783, 3.007566, 4.726603, -1.672948, -2.032187, -2.301097, -1.856774, -79.060791, -166.324661, -861.852051, 13.727850, 100.772425
1759228843.791784, 2.213739, 2.757073, -1.706467, -1.455733, -1.589201, -1.491899, -79.780136, -166.159210, -861.987671, 13.727850, 100.772425
1759228843.811785, 1.864634, 2.443432, -1.231517, -0.821895, -1.677802, -1.176513, -80.217865, -165.748154, -862.360352, 13.727850, 100.772425
1759228843.831642, 1.864335, 1.428740, -1.963395, -0.136568, -1.678300, -0.774014, -80.260498, -165.683441, -863.036133, 13.727850, 100.772425
1759228843.851781, 0.649278, -0.863708, -1.496825, 0.803132, -1.315081, -0.465712, -80.150482, -165.477753, -864.210754, 13.727850, 100.772425
1759228843.871624, -1.305887, -1.598130, 1.401955, 1.727875, -0.567719, -0.243186, -80.015106, -165.340576, -865.707031, 13.727850, 100.772425
1759228843.891788, -4.983830, -0.350601, 5.321412, 2.349830, -0.123289, -0.219977, -80.091064, -165.046753, -866.896606, 13.727850, 100.772425
1759228843.911780, -7.399580, 0.966659, 6.161628, 2.809472, -0.322030, -0.207985, -79.955124, -164.716156, -868.638916, 13.727850, 100.772425
1759228843.931758, -9.424476, 2.731335, 9.304017, 2.886827, -0.726023, -0.078888, -79.785049, -164.754410, -870.536011, 13.727850, 100.772425
1759228843.950814, -16.112678, 8.910321, 16.004490, 1.854562, 0.505658, -0.525255, -79.509338, -164.882690, -871.481323, 13.727850, 100.772425
1759228843.971615, -6.300791, 41.180867, 22.964883, 0.267269, -0.245595, -0.511504, -80.255554, -164.446640, -871.662476, 13.727850, 100.772425
1759228843.991771, -11.825860, 29.074437, 6.365733, -0.374732, -0.379576, -0.503942, -81.445358, -163.309158, -871.541260, 13.727850, 100.772425
1759228844.011783, 6.984036, -0.169988, -8.286930, 1.450409, 1.051515, 0.114840, -82.408188, -162.820648, -871.555908, 13.727850, 100.772425
1759228844.031792, 11.715577, -8.600870, 2.167501, 1.869206, 1.427031, 0.936086, -82.384399, -163.181900, -872.106934, 13.727850, 100.772425
1759228844.050820, 4.131494, -1.880047, -1.490690, 1.951154, 2.220026, 1.212429, -81.435394, -164.007568, -872.441284, 13.727850, 100.772425
1759228844.071758, 0.595558, 11.060763, -1.143680, 1.926706, 2.724954, 0.832113, -80.694839, -164.433716, -872.301147, 13.727850, 100.772425
1759228844.091672, -3.832518, 36.114287, 2.007987, 2.576618, 2.345787, 1.847796, -79.688400, -165.753571, -872.533813, 13.727850, 100.772425
1759228844.111622, -6.836942, 16.647333, 1.845630, 0.854736, 0.998838, 1.805806, -79.745972, -165.755905, -872.478577, 13.727850, 100.772425
1759228844.131257, -4.744560, 5.120898, 0.388459, 1.329212, 0.566942, 1.895995, -78.777328, -166.543640, -872.989441, 13.727850, 100.772425
1759228844.150828, -5.622034, 1.770512, 1.607108, 1.527352, 0.594927, 1.269413, -78.389267, -167.203278, -873.443359, 13.727850, 100.772425
1759228844.171233, -5.902156, 3.098695, 1.070956, 1.619003, 0.452442, 0.995745, -77.721939, -167.521347, -874.251343, 13.727850, 100.772425
1759228844.191783, -6.280290, 4.915446, 1.984494, 1.491321, 0.356598, 0.861871, -77.424576, -168.073593, -874.480713, 13.727850, 100.772425
1759228844.211766, -5.600038, 8.146570, 4.523844, 1.162711, 0.298170, 0.733581, -77.019287, -168.492279, -874.884399, 13.727850, 100.772425
1759228844.231756, -4.117877, 10.007763, 3.544765, 0.845743, 0.214350, 0.647121, -76.809860, -168.911957, -875.375000, 13.727850, 100.772425
1759228844.250856, -2.911798, 9.396344, 2.536956, 0.747149, 0.115890, 0.520427, -76.838730, -168.958023, -875.559692, 13.727850, 100.772425
1759228844.271250, -2.674772, 8.226776, 2.267159, 0.527137, 0.326155, 0.478561, -76.649155, -169.218979, -875.722961, 13.727850, 100.772425
1759228844.291822, -2.472163, 7.952490, 2.175731, 0.338718, 0.464069, 0.492684, -76.518875, -169.627167, -875.323669, 13.727850, 100.772425
1759228844.311869, -2.948010, 8.753351, 1.491139, 0.173174, 0.350718, 0.521859, -76.276047, -170.131912, -875.446594, 13.727850, 100.772425
1759228844.330808, -3.817854, 9.204658, 0.251391, 0.112481, 0.145614, 0.499248, -76.022034, -170.344574, -875.071167, 13.727850, 100.772425
1759228844.350861, -3.676895, 9.191041, 0.120758, 0.209238, 0.006134, 0.360144, -75.853256, -170.566071, -875.338135, 13.727850, 100.772425
1759228844.371772, -2.830695, 8.685116, 0.292392, 0.247102, -0.070830, 0.228301, -75.878845, -170.663467, -875.644592, 13.727850, 100.772425
1759228844.391770, -2.507477, 8.816498, 0.258574, 0.292084, -0.180711, 0.182211, -76.041946, -170.827637, -875.426636, 13.727850, 100.772425
1759228844.411779, -2.442984, 9.089437, 0.325312, 0.387933, -0.079220, 0.185296, -75.735046, -171.057846, -875.743958, 13.727850, 100.772425
1759228844.431594, -2.433556, 9.804256, 0.444573, 0.388118, -0.117240, 0.230921, -75.686691, -171.173523, -876.243225, 13.727850, 100.772425
1759228844.450881, -2.381482, 9.870096, 0.333393, 0.429995, -0.171871, 0.351068, -75.667343, -171.492813, -876.461609, 13.727850, 100.772425
1759228844.471783, -2.603545, 9.208848, 0.695516, 0.483285, -0.050065, 0.423358, -75.271835, -171.708542, -876.238770, 13.727850, 100.772425
1759228844.491787, -2.677615, 9.022250, 1.109413, 0.462592, 0.050997, 0.503089, -75.308685, -172.010773, -876.549988, 13.727850, 100.772425
1759228844.511783, -3.126528, 9.419538, 1.785476, 0.398318, 0.191231, 0.569107, -75.107269, -172.500748, -876.717896, 13.727850, 100.772425
1759228844.531268, -3.552995, 9.518897, 2.314894, 0.293107, 0.388272, 0.561514, -74.695648, -172.733521, -876.807617, 13.727850, 100.772425
1759228844.550911, -3.461267, 8.901193, 2.170045, 0.014708, 0.705450, 0.494563, -74.952728, -172.838242, -876.403137, 13.727850, 100.772425
1759228844.571593, -3.095403, 7.726538, 0.696264, -0.252307, 0.821269, 0.293159, -74.364594, -173.590195, -875.295532, 13.727850, 100.772425
1759228844.591767, -1.969231, 9.120861, -0.867300, -0.288120, 0.512140, 0.119690, -74.629761, -173.356903, -875.161804, 13.727850, 100.772425
1759228844.611768, -2.550423, 9.145701, -1.474679, 0.018015, -0.426052, 0.156305, -74.337051, -173.666534, -875.278992, 13.727850, 100.772425
1759228844.631568, -2.697667, 10.332177, -1.492336, 0.497094, -0.858328, 0.093407, -74.452789, -173.354614, -875.681030, 13.727850, 100.772425
1759228844.650935, -1.583465, 11.082460, -0.643442, 0.615037, -0.289253, 0.070122, -74.860382, -173.298355, -876.031738, 13.727850, 100.772425
1759228844.671778, -0.623540, 9.983372, 0.409558, 0.421454, 0.018262, 0.215670, -74.545609, -173.427658, -876.186218, 13.727850, 100.772425
1759228844.691779, 0.121955, 9.486276, 0.691176, 0.226740, 0.157489, 0.211271, -74.615570, -173.378952, -876.267212, 13.727850, 100.772425
1759228844.711777, 0.525378, 8.611195, 0.484975, -0.031439, 0.386854, 0.329860, -74.151093, -173.800079, -876.171448, 13.727850, 100.772425
1759228844.731755, -0.263512, 7.889792, -0.562039, 0.081388, 0.331265, 0.343949, -74.373016, -174.188232, -876.058533, 13.727850, 100.772425
1759228844.750968, -0.844255, 9.055769, -0.787243, 0.191271, 0.231372, 0.328823, -74.022583, -174.380188, -875.865234, 13.727850, 100.772425
1759228844.771349, -1.627459, 10.329334, -0.922815, 0.233460, 0.326497, 0.262958, -73.686111, -174.649200, -875.903809, 13.727850, 100.772425
1759228844.791779, -1.955614, 10.636241, -0.201263, 0.211977, 0.530564, 0.246058, -73.903900, -174.831924, -875.765747, 13.727850, 100.772425
1759228844.810825, -1.987636, 9.836129, 0.990152, 0.138162, 0.386313, 0.293397, -73.619400, -174.902069, -875.305176, 13.727850, 100.772425
1759228844.831593, -1.772757, 9.457396, 1.013047, 0.026297, 0.257221, 0.295120, -73.592117, -175.254410, -874.751465, 13.727850, 100.772425
1759228844.851003, -1.658434, 9.893889, 0.575805, -0.033056, 0.268557, 0.272869, -73.609451, -175.360626, -874.891785, 13.727850, 100.772425
1759228844.871130, -1.675792, 9.519944, 0.388160, -0.068772, 0.016259, 0.307372, -73.543579, -175.458649, -874.639526, 13.727850, 100.772425
1759228844.891778, -2.169745, 9.138368, -0.322768, 0.004637, -0.163290, 0.363369, -73.428436, -175.814484, -875.027405, 13.727850, 100.772425
1759228844.911619, -2.546533, 8.873211, -0.469862, 0.080729, -0.093202, 0.324027, -73.145447, -176.123093, -874.924194, 13.727850, 100.772425
1759228844.931754, -2.097171, 8.973169, 0.138265, 0.127501, 0.028970, 0.212877, -73.320343, -175.951172, -874.780457, 13.727850, 100.772425
1759228844.950991, -1.421408, 9.290999, 0.754922, 0.145480, 0.103637, 0.107737, -73.219421, -175.975784, -874.690979, 13.727850, 100.772425
1759228844.971625, -0.817770, 9.604939, 1.534534, 0.080228, 0.159833, 0.098344, -73.180191, -175.867935, -874.522217, 13.727850, 100.772425
1759228844.991780, -0.899771, 9.381380, 1.740285, -0.091940, 0.053057, 0.144954, -73.151016, -176.196304, -874.928345, 13.727850, 100.772425
1759228845.011779, -1.187823, 9.521441, 1.227028, -0.225078, 0.030430, 0.127244, -72.490372, -176.526810, -874.488037, 13.727850, 100.772425
1759228845.031757, -1.593192, 9.623344, 1.586308, -0.273327, -0.008149, 0.124583, -72.875854, -176.697418, -874.571838, 13.727850, 100.772425
1759228845.051014, -2.532317, 9.418490, 2.082207, -0.427953, 0.123810, -0.009044, -72.915466, -176.802902, -874.275635, 13.727850, 100.772425
1759228845.071757, -3.223493, 9.681254, 2.255039, -0.598312, 0.445250, -0.312088, -72.739151, -176.597885, -873.859070, 13.727850, 100.772425
1759228845.090974, -3.740790, 10.408792, 2.423082, -0.643747, 0.705245, -0.694128, -72.926514, -176.266708, -873.067139, 13.727850, 100.772425
1759228845.111746, -4.046500, 11.558009, 2.351555, -0.714924, 1.170036, -1.347830, -73.399994, -175.608551, -872.487122, 13.727850, 100.772425
1759228845.131738, -2.397344, 12.156559, 1.607557, -0.736069, 1.368182, -1.435327, -74.206894, -174.794189, -871.173401, 13.727850, 100.772425
1759228845.151011, -1.434426, 12.101941, 1.338059, -0.705853, 1.443032, -1.401131, -74.980133, -174.152267, -870.303589, 13.727850, 100.772425
1759228845.171746, -1.849371, 10.846482, 3.149872, -0.754684, 0.762423, -1.327718, -75.610992, -173.572021, -869.784180, 13.727850, 100.772425
1759228845.191766, -1.978508, 9.735123, 6.532579, -1.057911, 0.248848, -1.278320, -76.422546, -173.216904, -869.119202, 13.727850, 100.772425
1759228845.211749, 0.713173, 10.556035, 3.380613, -1.470767, 0.140700, -0.595260, -76.408981, -173.003952, -868.143616, 13.727850, 100.772425
1759228845.231743, -0.052972, 9.966912, 2.659210, -1.551206, 0.274988, -0.371968, -76.514465, -172.895477, -867.728577, 13.727850, 100.772425
1759228845.251051, -1.404199, 9.523835, 1.925686, -1.552003, 0.515626, -0.364241, -76.898941, -173.049255, -866.862427, 13.727850, 100.772425
1759228845.271771, -1.812860, 8.529044, 1.093701, -1.226830, 0.941574, -0.349956, -76.875229, -173.150772, -865.666382, 13.727850, 100.772425
1759228845.291764, -3.150171, 7.950396, 0.512210, -0.997105, 1.047736, -0.245476, -77.386658, -173.287689, -865.033813, 13.727850, 100.772425
1759228845.310912, -4.418200, 7.450606, 1.559822, -0.923436, 0.889203, -0.230092, -77.638718, -173.568909, -864.135620, 13.727850, 100.772425
1759228845.331457, -4.075979, 7.018901, 1.606360, -0.653309, 0.251761, -0.167864, -77.622742, -173.844467, -863.701172, 13.727850, 100.772425
1759228845.351073, -3.771765, 6.602909, 0.896479, -0.536014, 0.163804, -0.108538, -78.047089, -173.734146, -863.549683, 13.727850, 100.772425
1759228845.371763, -3.701286, 6.107459, 1.024718, -0.217617, 0.036235, 0.068204, -77.891922, -174.018265, -863.180542, 13.727850, 100.772425
1759228845.391597, -3.217657, 5.912331, 1.779939, -0.064783, -0.245725, 0.172790, -77.864029, -174.227249, -863.150635, 13.727850, 100.772425
1759228845.411403, -2.850147, 6.006902, 2.618658, 0.031027, -0.598124, 0.280718, -77.314575, -174.378616, -863.814026, 13.727850, 100.772425
1759228845.431761, -2.757671, 6.128857, 2.934543, 0.098162, -0.677889, 0.359155, -76.983139, -174.579086, -864.110229, 13.727850, 100.772425
1759228845.451093, -2.506580, 5.846790, 3.489549, 0.143954, -0.537857, 0.431860, -76.759140, -174.755035, -864.340942, 13.727850, 100.772425
1759228845.471775, -3.077597, 5.915923, 3.991134, 0.180582, -0.141206, 0.471461, -76.074005, -175.410309, -864.795532, 13.727850, 100.772425
1759228845.491547, -4.616769, 7.375039, 4.535965, 0.140840, 0.315605, 0.461703, -75.579086, -175.877014, -864.549072, 13.727850, 100.772425
1759228845.511797, -5.381716, 8.637831, 5.488109, 0.220467, 0.613496, 0.426339, -75.672256, -175.788834, -864.356567, 13.727850, 100.772425
1759228845.531752, -4.944475, 9.061305, 5.547365, 0.352662, 0.737595, 0.452761, -75.600311, -176.124008, -863.788757, 13.727850, 100.772425
1759228845.551082, -4.354005, 9.076718, 5.121646, 0.255633, 0.897698, 0.182644, -75.719498, -176.087418, -863.195984, 13.727850, 100.772425
1759228845.571754, -4.390517, 8.729858, 4.587440, 0.287099, 0.764822, -0.018949, -75.902756, -175.982864, -863.054688, 13.727850, 100.772425
1759228845.591784, -2.087445, 10.824635, 3.515436, 0.359381, 0.722586, 0.157267, -75.843613, -175.835724, -862.671997, 13.727850, 100.772425
1759228845.611779, -0.669928, 17.353623, 3.766229, 0.033743, 0.284570, 0.494576, -75.120621, -176.440674, -862.439758, 13.727850, 100.772425
1759228845.631301, -6.558915, 15.321993, 10.798298, -0.980550, 0.884733, -0.097413, -75.496643, -176.447083, -862.026001, 13.727850, 100.772425
1759228845.651114, -1.751359, 9.676615, 0.304961, -0.109472, 1.798682, 0.119697, -76.301453, -176.281876, -860.810059, 13.727850, 100.772425
1759228845.671780, 3.014300, 3.419967, -3.717148, 0.716693, 1.799778, 0.456681, -76.347244, -176.378662, -860.053955, 13.727850, 100.772425
1759228845.691791, 2.442834, 3.177854, -1.772757, 0.687187, 0.984415, 0.834133, -76.173965, -176.699570, -859.651001, 13.727850, 100.772425
1759228845.711778, 0.418387, 8.586505, -2.236783, 0.907315, 0.720144, 1.264478, -75.474197, -177.102890, -859.509399, 13.727850, 100.772425
1759228845.731751, -2.649334, 15.359402, -3.320907, 1.115843, 0.938393, 1.358005, -75.147278, -177.531113, -859.438477, 13.727850, 100.772425
1759228845.751194, -5.378424, 13.879337, -2.223166, 1.073472, 0.727164, 0.810584, -75.368683, -177.393616, -859.501404, 13.727850, 100.772425
1759228845.771778, -4.841974, 10.521469, 0.014066, 1.191424, 0.398368, 0.288331, -75.222916, -177.145004, -859.382507, 13.727850, 100.772425
1759228845.791775, -1.685518, 8.420258, 1.361702, 0.880902, 0.681090, 0.015266, -75.562790, -176.861542, -859.432739, 13.727850, 100.772425
1759228845.811776, 0.871489, 8.438364, -0.268001, 0.606160, 1.603364, 0.070927, -75.955215, -176.649536, -859.021545, 13.727850, 100.772425
1759228845.830951, 2.005742, 8.530840, -0.405069, 0.477503, 1.970888, 0.277619, -76.451004, -176.576920, -857.894470, 13.727850, 100.772425
1759228845.851156, 1.325789, 9.537452, -0.382623, 0.468714, 1.753162, 0.524009, -76.539200, -176.734833, -857.366943, 13.727850, 100.772425
1759228845.871764, -1.195604, 9.962273, -0.962768, 0.427338, 1.747905, 0.600381, -77.043152, -176.797653, -856.030701, 13.727850, 100.772425
1759228845.891753, -2.873940, 9.754726, -1.343746, 0.319352, 1.982114, 0.460058, -77.662827, -177.069366, -855.504517, 13.727850, 100.772425
1759228845.911045, -3.228880, 8.974366, -1.039532, 0.324568, 1.866935, 0.313174, -77.979660, -176.807999, -854.770325, 13.727850, 100.772425
1759228845.931750, -2.849699, 8.919299, -0.346261, 0.300627, 1.592532, 0.356786, -78.776398, -176.876099, -853.705811, 13.727850, 100.772425
1759228845.951207, -2.949956, 9.346963, -0.215029, 0.187746, 1.391792, 0.398663, -79.084305, -176.858139, -853.463440, 13.727850, 100.772425
1759228845.971589, -3.222446, 9.176227, -0.714370, 0.228853, 1.199010, 0.390222, -79.538849, -176.705124, -852.749817, 13.727850, 100.772425
1759228845.991752, -2.861071, 9.053674, -1.544110, 0.404679, 1.331366, 0.407411, -80.078827, -176.854370, -852.389648, 13.727850, 100.772425
1759228846.011053, -3.113510, 9.151537, -1.177498, 0.590152, 1.350905, 0.411710, -80.313156, -176.509735, -851.649780, 13.727850, 100.772425
1759228846.031744, -3.159149, 8.427889, -0.076465, 0.608127, 1.394119, 0.389172, -80.901840, -176.551559, -851.181763, 13.727850, 100.772425
1759228846.051195, -3.599682, 9.064896, 1.071256, 0.453276, 1.321871, 0.348235, -81.333191, -176.192886, -851.244568, 13.727850, 100.772425
1759228846.071758, -2.928857, 9.822661, 1.307234, 0.180164, 1.396287, 0.417713, -81.991241, -176.355850, -850.614746, 13.727850, 100.772425
1759228846.091775, -2.631976, 9.457545, 0.983568, -0.084598, 1.148054, 0.457644, -82.260239, -176.503311, -850.113953, 13.727850, 100.772425
1759228846.111607, -2.341230, 9.014469, -0.151882, -0.194563, 0.665653, 0.524673, -82.396179, -176.652069, -849.786865, 13.727850, 100.772425
1759228846.131750, -2.584241, 8.555530, -1.622221, 0.113855, 0.449725, 0.486124, -82.116058, -177.116501, -849.647949, 13.727850, 100.772425
1759228846.151247, -3.072808, 8.960000, -1.967286, 0.344671, 0.732326, 0.327226, -82.205093, -177.023636, -849.671936, 13.727850, 100.772425
1759228846.171776, -2.805855, 9.122208, -0.332944, 0.244582, 0.750605, 0.095995, -82.187683, -176.806839, -850.051453, 13.727850, 100.772425
1759228846.191789, -2.654122, 9.351003, 1.424999, 0.001237, 0.618776, -0.112813, -82.555115, -176.630905, -850.312866, 13.727850, 100.772425
1759228846.211796, -2.772934, 9.293094, 2.521992, -0.484477, 0.696675, -0.349806, -82.582993, -176.760559, -850.436096, 13.727850, 100.772425
1759228846.231749, -2.560299, 9.559449, 3.599682, -1.108513, 0.887653, -0.772400, -83.097855, -176.860474, -849.945068, 13.727850, 100.772425
1759228846.251266, -1.971326, 12.285547, 4.785560, -1.897003, 0.592526, -0.938992, -83.449814, -177.292160, -850.242859, 13.727850, 100.772425
1759228846.271646, -4.282628, 15.028105, 6.126313, -2.992342, -0.574664, -1.163228, -82.971085, -178.515350, -850.303833, 13.727850, 100.772425
1759228846.291807, -6.861632, 16.772430, 2.140865, -3.440393, -0.151480, -1.980698, -82.990372, -179.400757, -850.388611, 13.727850, 100.772425
1759228846.311661, -2.752434, 15.093047, -2.891298, -3.352197, 1.818069, -2.524506, -84.565063, -179.801697, -849.904907, 13.727850, 100.772425
1759228846.331746, 3.360112, 15.932215, -5.130176, -2.265767, 3.653673, -2.199041, -87.390991, -180.210526, -849.069763, 13.727850, 100.772425
1759228846.351297, 7.414693, 16.570120, -2.182614, -0.896109, 3.066583, -1.591401, -90.420746, -180.319260, -848.284668, 13.727850, 100.772425
1759228846.371638, 4.639364, 11.806557, 5.981614, -1.247453, 2.202731, -1.382699, -92.157104, -180.641159, -847.521118, 13.727850, 100.772425
1759228846.391780, 0.745495, 9.071480, 3.672406, -1.427734, 2.116083, -0.689775, -93.798599, -181.275955, -847.366882, 13.727850, 100.772425
1759228846.411144, -1.677138, 8.123227, -0.731878, -0.787187, 0.521624, -0.562329, -94.252655, -182.284348, -846.916138, 13.727850, 100.772425
1759228846.431773, -6.193500, 8.223185, 3.515287, -1.592466, 0.446279, -0.871601, -95.173935, -182.536316, -846.956360, 13.727850, 100.772425
1759228846.451314, -1.990629, 9.524433, 1.761833, -1.547381, -0.017425, -0.703166, -95.716537, -183.220047, -847.133118, 13.727850, 100.772425
1759228846.471781, 0.574309, 8.116942, 1.205331, -1.419080, 0.145884, -0.601988, -96.076508, -183.704376, -847.139465, 13.727850, 100.772425
1759228846.491780, 1.385046, 6.413767, 0.226701, -1.148782, 0.690131, -0.468550, -96.588913, -184.231125, -847.019348, 13.727850, 100.772425
1759228846.511779, 1.720982, 5.604377, 0.001197, -0.804480, 0.940171, -0.307137, -97.410477, -185.104599, -846.819580, 13.727850, 100.772425
1759228846.531755, 1.767370, 6.170905, 1.778892, -0.815315, 0.761171, -0.047652, -98.236954, -185.049591, -846.845825, 13.727850, 100.772425
1759228846.551325, 1.498770, 7.358579, 1.200542, -0.717026, 0.626998, 0.355161, -98.478546, -185.771790, -846.868042, 13.727850, 100.772425
1759228846.571753, -0.622642, 7.685238, -0.425869, -0.546362, 0.896530, 0.751645, -98.633896, -186.040054, -846.630005, 13.727850, 100.772425
1759228846.591782, -2.046444, 6.682366, -0.190788, -0.379024, 0.937468, 1.032073, -99.280350, -186.256500, -846.773804, 13.727850, 100.772425
1759228846.611767, -2.326266, 5.746982, 0.378433, -0.101005, 0.883234, 1.171421, -99.881638, -186.576691, -846.550781, 13.727850, 100.772425
1759228846.631747, -2.040608, 5.447407, 0.534805, 0.358238, 0.875034, 1.291841, -99.921814, -186.277130, -846.729553, 13.727850, 100.772425
1759228846.651353, -1.365742, 5.648820, 2.446575, 0.644745, 0.564268, 1.462595, -100.402573, -186.065063, -847.025146, 13.727850, 100.772425
1759228846.671734, -3.073107, 6.066308, 4.566640, 0.795681, 0.237262, 1.435261, -100.254593, -185.855972, -847.421814, 13.727850, 100.772425
1759228846.691777, -6.351967, 7.754670, 4.970363, 0.817574, 0.269334, 1.398984, -99.884247, -185.520096, -847.698242, 13.727850, 100.772425
1759228846.711638, -8.322844, 10.572196, 5.752069, 0.752228, 0.940728, 1.410631, -100.081192, -185.186554, -847.854126, 13.727850, 100.772425
1759228846.731746, -10.195109, 11.192145, 4.060865, 0.799852, 1.247428, 0.842409, -100.903061, -184.521912, -848.171509, 13.727850, 100.772425
1759228846.751364, -9.840019, 9.734824, 4.159626, 0.759283, 0.694737, -0.020959, -101.969177, -183.602875, -848.209412, 13.727850, 100.772425
1759228846.771777, -5.242853, 10.651205, 3.891326, 0.746487, 0.426080, -0.226817, -102.103668, -182.799759, -848.637085, 13.727850, 100.772425
1759228846.791776, -1.304241, 15.160683, 6.489184, 0.514543, -0.602039, -0.099342, -102.029846, -182.329468, -848.657654, 13.727850, 100.772425
1759228846.811740, 1.315315, 19.211972, 7.384616, -0.116606, -0.461215, -0.106648, -101.994980, -182.012466, -848.836670, 13.727850, 100.772425
1759228846.831581, -0.917279, 20.191649, 1.047763, -0.778895, 1.114227, -0.716708, -103.242996, -182.152542, -848.728638, 13.727850, 100.772425
1759228846.851428, -0.192733, 5.915773, -4.832397, -0.705768, 2.613732, -0.362010, -105.021439, -182.313065, -848.749512, 13.727850, 100.772425
1759228846.871748, 3.628562, 0.753575, -0.618003, -0.250812, 1.969134, -0.206299, -106.331436, -181.854202, -848.677368, 13.727850, 100.772425
1759228846.890984, 7.696161, 2.282572, 0.770933, -0.655686, 0.966508, 0.758634, -106.277069, -182.622055, -848.437744, 13.727850, 100.772425
1759228846.911231, 1.912817, 6.058378, -1.815553, -0.489473, -0.171524, 1.107569, -105.808945, -182.916580, -848.813110, 13.727850, 100.772425
1759228846.931257, -2.391209, 12.548161, -4.571578, 0.326709, -0.493861, 0.969570, -105.038940, -182.601486, -848.892456, 13.727850, 100.772425
1759228846.951400, -6.123769, 16.694020, -7.279570, 0.738289, 1.796018, 0.385441, -106.084351, -182.221802, -848.891479, 13.727850, 100.772425
1759228846.971778, -4.499004, 14.368053, -3.865439, 0.915442, 2.670679, 0.470956, -107.878143, -181.370056, -849.287109, 13.727850, 100.772425
1759228846.991594, -2.952200, 8.990377, 1.561019, 0.835992, 2.033665, 0.203688, -109.331543, -180.766708, -849.777954, 13.727850, 100.772425
1759228847.011786, -1.023222, 6.959346, 4.525041, -0.044260, 1.318982, 0.031290, -110.202621, -180.569717, -849.837280, 13.727850, 100.772425
1759228847.031256, 0.939724, 8.699182, 1.055993, -0.420486, 1.486387, 0.320266, -110.735489, -180.869751, -849.893921, 13.727850, 100.772425
1759228847.051437, 0.035314, 9.261819, -1.559523, -0.061525, 1.379413, 0.448313, -111.206589, -181.096527, -850.519592, 13.727850, 100.772425
1759228847.071752, -1.847575, 9.631574, -3.062483, 0.291276, 1.806250, 0.386989, -111.971329, -180.795410, -850.563660, 13.727850, 100.772425
1759228847.091790, -2.685396, 9.881469, -0.967557, 0.274770, 1.860703, 0.325726, -113.069611, -180.790176, -851.020203, 13.727850, 100.772425
1759228847.111784, -2.777274, 9.814431, 0.828693, 0.033944, 1.548715, 0.249929, -113.797729, -180.608078, -851.478577, 13.727850, 100.772425
1759228847.130781, -2.973449, 9.819668, 0.986561, -0.201565, 1.344889, 0.146069, -114.164215, -180.658279, -851.683411, 13.727850, 100.772425
1759228847.151424, -2.844910, 9.255535, 0.193332, -0.237006, 1.451982, 0.084008, -115.300781, -180.703064, -851.667908, 13.727850, 100.772425
1759228847.171543, -2.877980, 8.670452, 0.317531, -0.218630, 1.651128, 0.019128, -115.904922, -180.682388, -852.243042, 13.727850, 100.772425
1759228847.191757, -2.745251, 9.242067, 0.420182, -0.190331, 1.667146, 0.013683, -116.814224, -180.997086, -852.774414, 13.727850, 100.772425
1759228847.211741, -2.945018, 10.026767, 0.267103, -0.030074, 1.490461, 0.082747, -117.171844, -180.780334, -852.516663, 13.727850, 100.772425
1759228847.231258, -3.526958, 10.154408, 0.449062, 0.068193, 1.263650, 0.184253, -117.778580, -180.997696, -853.069458, 13.727850, 100.772425
1759228847.251482, -4.044854, 10.009559, 0.862661, 0.011867, 1.018685, 0.222696, -118.408813, -180.832016, -853.549805, 13.727850, 100.772425
1759228847.271763, -4.302530, 9.846603, 1.062277, -0.057033, 0.727798, 0.180905, -118.503494, -180.694138, -853.702820, 13.727850, 100.772425
1759228847.291758, -3.916016, 9.529820, 0.714071, -0.115202, 0.593536, 0.167096, -119.154861, -180.416351, -853.958313, 13.727850, 100.772425
1759228847.311737, -2.985869, 9.032724, 0.087239, -0.187358, 0.616324, 0.213887, -119.406403, -180.300720, -854.401672, 13.727850, 100.772425
1759228847.331745, -1.859547, 8.884882, -0.409857, -0.214742, 0.602953, 0.247766, -119.730103, -180.187592, -854.239624, 13.727850, 100.772425
1759228847.351453, -1.311424, 9.367164, -0.924611, -0.083528, 0.548640, 0.201553, -119.859009, -180.154709, -854.509644, 13.727850, 100.772425
1759228847.371744, -0.917578, 9.202413, -0.842011, -0.013603, 0.248855, 0.203782, -119.824173, -179.695068, -854.870850, 13.727850, 100.772425
1759228847.391740, -0.597054, 9.593267, -0.786795, 0.057043, 0.043825, 0.277156, -120.084442, -179.708817, -854.996399, 13.727850, 100.772425
1759228847.411730, -1.264587, 9.347263, -0.925957, 0.070782, 0.156077, 0.247431, -119.908401, -179.503922, -854.884155, 13.727850, 100.772425
1759228847.431760, -1.226280, 9.301174, -0.550217, -0.001109, 0.197668, 0.230078, -119.992020, -179.250259, -855.334717, 13.727850, 100.772425
1759228847.451485, -0.689380, 9.446472, -0.420332, -0.054136, 0.177255, 0.272155, -120.319275, -179.405502, -855.070801, 13.727850, 100.772425
1759228847.471734, -0.775422, 9.354894, -0.093075, -0.106668, 0.104544, 0.292672, -120.026093, -179.167938, -855.215088, 13.727850, 100.772425
1759228847.491312, -1.333271, 9.763554, 0.006135, -0.206071, 0.087583, 0.262033, -120.223190, -179.172165, -855.178223, 13.727850, 100.772425
1759228847.511741, -1.785177, 9.590723, -0.273837, -0.258674, 0.099923, 0.199561, -120.104095, -179.172104, -855.156006, 13.727850, 100.772425
1759228847.531742, -1.538723, 9.274090, -0.661099, -0.198806, 0.155364, 0.154933, -120.031876, -179.250320, -855.273438, 13.727850, 100.772425
1759228847.551478, -1.327884, 9.326463, -0.368707, -0.167043, 0.177850, 0.146880, -120.289017, -179.256958, -855.439270, 13.727850, 100.772425
1759228847.571751, -1.616685, 9.650578, 0.196325, -0.211695, 0.141634, 0.122793, -120.187790, -179.290512, -855.346252, 13.727850, 100.772425
1759228847.591455, -2.139518, 9.818172, 0.655113, -0.323564, 0.089877, 0.056144, -120.287903, -179.274872, -855.352295, 13.727850, 100.772425
1759228847.611187, -2.453159, 9.536404, 0.852037, -0.439736, 0.026144, -0.017445, -120.113968, -179.433853, -854.794006, 13.727850, 100.772425
1759228847.630780, -2.680309, 8.832060, 0.830489, -0.470849, -0.023410, -0.113232, -120.434753, -179.559708, -855.300537, 13.727850, 100.772425
1759228847.651536, -3.062782, 8.214656, 1.101482, -0.484974, -0.188047, -0.267974, -120.419983, -179.875595, -854.937927, 13.727772, 100.772412
1759228847.671502, -3.455282, 8.503157, 1.265336, -0.519737, -0.411630, -0.469364, -120.533630, -180.047195, -854.646240, 13.727772, 100.772412
1759228847.691781, -3.569605, 9.364471, 1.220594, -0.596222, -0.412379, -0.697238, -120.474930, -180.349854, -854.479614, 13.727772, 100.772412
1759228847.711587, -2.897134, 10.149470, 2.110638, -0.804941, -0.358300, -0.930754, -120.372253, -180.947662, -854.172424, 13.727772, 100.772412
1759228847.731745, -1.721281, 11.776330, 4.256292, -1.570098, -0.645916, -1.069324, -119.986099, -181.986420, -853.639771, 13.727772, 100.772412
1759228847.751581, -3.682133, 13.578116, 11.044602, -2.736784, -0.387694, -1.383590, -119.584549, -183.879822, -853.343628, 13.727772, 100.772412
1759228847.771743, -5.088876, 15.472528, 6.904279, -2.852235, 0.208192, -1.748891, -119.782806, -185.560959, -853.091736, 13.727772, 100.772412
1759228847.791747, -2.615067, 15.562610, 5.655404, -2.791698, 0.355399, -1.948858, -120.651566, -187.041855, -852.661499, 13.727772, 100.772412
1759228847.811739, -2.519299, 12.674006, 2.457947, -2.605089, 1.198700, -1.961070, -121.514084, -188.611298, -852.733521, 13.727772, 100.772412
1759228847.831736, -3.369540, 10.392780, -0.096217, -2.280567, 1.220213, -1.883142, -122.392609, -190.214081, -852.646423, 13.727772, 100.772412
1759228847.851556, -6.202479, 9.357139, 0.850391, -2.095733, 0.155374, -1.810740, -122.567902, -192.329544, -852.988159, 13.727772, 100.772412
1759228847.871738, -6.758532, 10.050410, 3.083881, -1.825785, -0.581226, -1.881487, -122.287720, -193.793854, -852.549194, 13.727772, 100.772412
1759228847.890859, -6.064513, 10.561272, 6.774394, -1.904802, -1.819648, -2.065418, -121.471863, -195.734604, -852.301819, 13.727772, 100.772412
1759228847.911743, -5.495291, 8.738836, 2.653374, -1.822805, -1.678969, -1.850728, -120.710449, -197.091751, -851.497559, 13.727772, 100.772412
1759228847.931743, -1.921646, 6.589142, 2.369212, -1.599673, -1.120824, -1.292644, -120.284454, -198.272842, -851.166077, 13.727772, 100.772412
1759228847.951585, -1.913416, 3.837307, 1.796848, -1.482042, -1.420079, -1.074806, -119.775772, -199.687729, -850.790405, 13.727772, 100.772412
1759228847.971830, -3.225887, 2.594716, 2.172439, -1.337127, -1.172903, -0.965669, -118.959961, -200.875565, -850.713684, 13.727772, 100.772412
1759228847.991831, -2.161814, 3.595792, 2.832490, -1.062662, -1.095069, -0.836752, -118.582626, -201.572922, -850.253113, 13.727772, 100.772412
1759228848.011749, -1.623568, 3.767276, 2.611924, -0.774891, -0.979070, -0.670208, -118.018692, -202.022507, -850.424072, 13.727772, 100.772412
1759228848.031749, -1.350030, 2.836680, 2.508824, -0.525769, -0.658330, -0.524352, -117.633148, -202.423599, -850.252808, 13.727772, 100.772412
1759228848.051678, -2.275389, 2.095675, 2.617311, -0.236578, -0.252369, -0.491454, -117.498978, -202.516830, -850.034302, 13.727772, 100.772412
1759228848.071757, -3.841945, 2.597709, 2.367117, 0.069789, 0.261146, -0.526687, -117.278107, -202.823853, -849.991333, 13.727772, 100.772412
1759228848.091781, -5.079748, 3.099294, 2.192640, 0.362322, 0.553260, -0.540076, -117.748718, -202.613205, -850.200928, 13.727772, 100.772412
1759228848.111779, -4.739771, 3.124583, 2.930353, 0.587713, 0.496557, -0.513304, -118.004288, -202.179886, -850.201538, 13.727772, 100.772412
1759228848.131750, -4.193594, 2.878279, 4.026748, 0.822913, 0.296364, -0.401229, -118.165115, -201.734512, -850.033997, 13.727772, 100.772412
1759228848.151647, -3.788674, 3.081637, 4.750395, 0.930977, 0.059335, -0.253781, -118.175385, -201.077133, -849.619507, 13.727772, 100.772412
1759228848.171778, -3.340510, 3.663577, 4.228310, 1.054372, -0.052354, -0.096228, -118.067551, -200.350784, -849.690979, 13.727772, 100.772412
1759228848.191779, -3.757550, 3.738396, 6.308871, 1.077427, -0.071709, 0.136633, -117.709412, -199.785233, -849.572632, 13.727772, 100.772412
1759228848.211778, -7.783999, 6.281637, 17.224934, -0.080510, -0.577347, 0.071092, -116.804504, -200.205551, -849.254578, 13.727772, 100.772412
1759228848.231750, -13.733889, 17.595587, 15.048455, -1.158577, -0.674953, -0.596875, -116.667999, -200.381088, -849.164246, 13.727772, 100.772412
1759228848.251712, -5.715259, 15.169662, 5.260809, 0.021171, 0.852217, 0.573393, -117.737625, -199.972977, -849.190186, 13.727772, 100.772412
1759228848.271773, -1.903241, 3.953874, 3.922750, 0.529731, 0.574167, 0.504347, -118.585312, -199.094986, -849.256409, 13.727772, 100.772412
1759228848.291782, -4.609137, -4.515015, 8.845528, 0.637937, 0.334069, 0.630953, -118.760712, -198.862686, -849.460266, 13.727772, 100.772412
1759228848.311769, -5.224298, 2.155081, 3.319860, 0.839436, 0.996146, 0.616067, -119.608780, -197.830322, -849.350891, 13.727772, 100.772412
1759228848.331741, 0.677858, 7.137863, 6.883479, 0.973502, 0.768367, 1.182480, -119.982788, -196.453369, -849.476196, 13.727772, 100.772412
1759228848.351689, -0.639850, 12.006173, 5.049222, 1.299509, 2.278499, 1.381849, -121.610107, -195.097488, -850.403687, 13.727772, 100.772412
1759228848.371764, -4.467281, 13.705757, 3.740940, 1.472245, 2.527593, 1.439041, -123.096649, -193.383850, -851.138306, 13.727772, 100.772412
1759228848.391763, -6.712144, 12.553697, 0.912041, 1.597748, 2.041384, 1.650783, -124.330338, -191.798477, -851.897583, 13.727772, 100.772412
1759228848.411752, -6.973861, 12.407800, 1.774403, 1.561901, 1.127071, 1.747054, -125.144073, -190.124115, -852.296326, 13.727772, 100.772412
1759228848.431117, -5.964705, 11.836035, 2.340332, 1.518407, 0.213378, 1.683604, -125.086014, -189.456512, -852.566711, 13.727772, 100.772412
1759228848.451683, -3.828927, 10.787824, 2.140267, 1.540987, -0.284092, 1.699820, -125.386703, -186.856110, -852.219604, 13.727772, 100.772412
1759228848.471742, -1.438766, 9.753978, 1.049708, 1.569305, -0.205447, 1.873469, -125.129166, -185.160812, -852.578125, 13.727772, 100.772412
1759228848.491748, -1.684022, 8.878897, 0.022296, 1.802391, 0.112867, 1.897115, -125.117599, -183.547760, -853.057861, 13.727772, 100.772412
1759228848.511772, -2.482637, 8.531887, 0.668581, 1.930441, 0.371228, 1.830336, -124.953995, -182.633652, -853.171082, 13.727772, 100.772412
1759228848.531749, -4.069245, 7.687632, 1.720533, 1.971462, 0.157808, 1.874206, -124.739502, -180.902771, -853.376953, 13.727772, 100.772412
1759228848.551722, -4.782717, 6.935104, 2.773982, 1.823403, -0.075276, 1.718973, -124.488297, -179.467407, -854.081543, 13.727772, 100.772412
1759228848.571772, -4.433912, 6.273557, 2.726996, 1.590379, -0.299122, 1.511277, -124.008133, -178.085419, -854.392944, 13.727772, 100.772412
1759228848.591779, -3.945644, 6.008399, 2.252495, 1.422243, -0.574905, 1.322016, -123.817566, -176.612640, -854.787659, 13.727772, 100.772412
1759228848.611786, -3.440019, 6.247370, 2.605340, 1.289457, -0.584185, 1.084273, -123.070282, -175.547150, -854.825195, 13.727772, 100.772412
1759228848.631748, -2.570325, 6.578967, 2.569876, 1.092265, -1.026837, 0.829938, -122.418808, -174.789536, -855.030090, 13.727772, 100.772412
1759228848.651793, -2.121562, 7.126491, -0.043245, 1.213794, -1.225062, 0.445264, -121.736404, -173.864746, -854.574707, 13.727772, 100.772412
1759228848.671760, -1.036390, 9.693374, 1.882441, 0.843395, -1.022029, 0.324034, -121.121063, -173.066040, -854.659668, 13.727772, 100.772412
1759228848.691783, -3.361758, 9.922918, -1.069011, 0.562265, -0.191945, -0.110881, -120.703308, -172.766037, -854.898315, 13.727772, 100.772412
1759228848.711770, -2.427272, 10.826281, 1.017386, 0.624582, 0.892440, -0.373439, -121.164017, -172.356171, -855.304138, 13.727772, 100.772412
1759228848.731748, -2.122759, 11.330709, 1.560421, 0.152423, 0.950171, -0.357468, -121.903656, -172.301163, -855.667297, 13.727772, 100.772412
1759228848.751766, -0.838419, 10.410587, 0.647033, -0.252600, 0.937679, -0.107166, -122.809845, -172.140839, -856.028503, 13.727772, 100.772412
1759228848.771797, -1.754052, 8.703073, -0.265756, -0.282048, 0.730400, 0.109773, -122.987686, -172.143173, -856.419983, 13.727772, 100.772412
1759228848.791764, -0.524181, 9.270199, 1.507748, 0.304535, 0.582976, 0.370704, -123.373566, -171.607239, -856.791382, 13.727772, 100.772412
1759228848.811766, -2.344672, 10.389937, 2.389413, 0.342338, 0.360681, 0.848807, -123.137833, -171.129562, -856.873718, 13.727772, 100.772412
1759228848.831748, -5.946000, 8.139089, -1.324891, 0.267262, 0.427500, 0.730785, -123.167923, -170.793793, -857.407654, 13.727772, 100.772412
1759228848.851773, -3.632154, 9.396942, -0.506523, 0.509369, 0.419076, 0.669508, -123.227417, -169.962280, -857.227905, 13.727772, 100.772412
1759228848.871768, -6.076633, 13.330017, 4.490924, 0.543440, 0.185297, 0.565153, -122.601410, -169.659393, -858.118225, 13.727772, 100.772412
1759228848.891768, -8.228572, 15.984139, 2.854936, 0.266075, -0.363131, 0.336359, -122.727737, -169.173965, -858.005615, 13.727772, 100.772412
1759228848.911746, -5.378125, 17.399561, 0.555904, -0.012753, -0.616812, 0.221365, -122.651062, -168.725616, -857.713196, 13.727772, 100.772412
1759228848.931748, -0.824204, 16.933291, 3.247435, -0.361570, -0.523299, 0.431262, -122.783417, -168.321732, -857.472900, 13.727772, 100.772412
1759228848.951771, -1.212065, 16.231490, 2.721908, -0.581783, -0.396184, 0.231076, -122.980865, -168.178253, -856.809509, 13.727772, 100.772412
1759228848.971773, -2.393902, 13.305327, 4.459201, -0.918393, -0.433596, -0.145408, -123.445953, -168.344971, -855.981506, 13.727772, 100.772412
1759228848.991077, -2.316839, 11.963975, 5.189133, -1.284386, -0.326605, -0.565294, -123.761108, -168.981293, -855.086548, 13.727772, 100.772412
1759228849.011759, -3.643526, 13.576769, 5.953631, -1.652983, -0.219431, -0.857115, -124.333694, -170.113098, -853.771362, 13.727772, 100.772412
1759228849.031747, -6.307524, 13.543251, 5.230134, -2.342272, -0.182627, -1.382960, -125.703781, -171.411407, -852.310974, 13.727772, 100.772412
1759228849.051748, -2.423082, 11.652430, -0.731578, -2.769776, -0.013326, -1.544968, -127.295013, -173.653625, -850.753235, 13.727772, 100.772412
1759228849.071465, 1.646163, 11.967267, -0.290447, -2.952336, 0.268350, -1.421823, -128.247040, -175.839127, -849.516235, 13.727772, 100.772412
1759228849.091737, 4.333206, 12.211626, -0.052224, -2.744564, 0.242359, -1.163525, -129.551773, -178.228195, -848.061890, 13.727772, 100.772412
1759228849.111727, 3.713107, 10.066870, 1.008707, -2.419545, 0.357674, -1.119995, -130.320068, -180.596115, -847.273315, 13.727772, 100.772412
1759228849.131735, 2.735824, 9.225158, 3.833416, -2.675866, 0.129924, -1.128325, -130.901962, -183.154373, -846.567505, 13.727772, 100.772412
1759228849.150833, 2.134880, 8.173356, 1.447145, -3.062223, -1.354042, -1.144045, -130.426346, -186.500473, -845.111084, 13.727772, 100.772412
1759228849.171737, -3.388095, 8.011148, -3.495086, -2.370927, -1.522842, -1.478336, -129.207291, -189.677063, -843.962708, 13.727772, 100.772412
1759228849.191730, -9.264812, 8.437915, 3.296965, -2.499947, 0.192037, -2.323895, -129.909836, -192.941223, -843.627380, 13.727772, 100.772412
1759228849.211678, -2.142062, 9.576657, 3.143736, -2.547573, -0.561325, -1.986071, -129.470032, -195.894867, -842.944458, 13.727772, 100.772412
1759228849.231173, -0.027833, 8.614038, -0.626533, -2.371799, -1.390646, -1.609475, -128.527710, -198.966553, -842.378967, 13.727772, 100.772412
1759228849.250937, -0.295235, 6.055086, -0.074220, -2.376610, -1.610307, -1.318228, -127.533981, -201.779190, -842.405334, 13.727772, 100.772412
1759228849.271736, 0.105046, 3.411887, -0.214730, -2.062897, -1.343402, -0.974020, -126.455170, -204.114960, -841.787842, 13.727772, 100.772412
1759228849.291439, 0.938677, 0.963517, -0.040253, -1.554088, -0.945753, -0.760223, -125.896057, -205.864258, -841.411194, 13.727772, 100.772412
1759228849.311729, 2.320281, -0.281019, -0.096816, -0.871265, -0.421403, -0.523809, -125.560562, -206.628998, -841.573486, 13.727772, 100.772412
1759228849.331733, 3.120543, -1.531242, -0.356586, -0.065697, 0.090277, 0.008522, -125.530624, -206.738937, -841.618530, 13.727772, 100.772412
1759228849.351730, 1.954267, -1.758242, 0.142754, 0.654714, 0.873877, 0.370919, -126.539291, -206.261047, -841.752686, 13.727772, 100.772412
1759228849.371726, -0.725593, -0.502034, 0.586430, 1.374858, 2.059174, 0.506290, -128.120071, -204.957840, -842.215149, 13.727772, 100.772412
1759228849.391752, -2.308459, 1.456124, 3.026720, 2.093731, 2.900125, 0.944232, -130.233002, -203.220413, -842.824707, 13.727772, 100.772412
1759228849.411777, -3.083133, 2.838176, 12.622231, 1.770522, 2.623495, 1.655741, -132.041000, -201.587418, -843.396301, 13.727772, 100.772412
1759228849.431762, -7.379977, 8.009951, 3.736900, 2.423244, 2.515208, 1.395130, -134.153366, -198.638702, -844.657654, 13.727772, 100.772412
1759228849.451763, -4.810999, 33.400460, 13.127857, 1.908275, 2.099728, 1.541194, -135.482559, -196.935669, -845.847900, 13.727772, 100.772412
1759228849.471757, -15.019575, 34.988564, 2.708890, 1.034450, 1.898432, 0.737030, -136.956863, -195.526489, -847.009155, 13.727772, 100.772412
1759228849.491768, -3.246687, 4.957344, 3.674800, 0.887873, 1.115648, 0.717642, -138.440689, -194.138504, -847.408630, 13.727772, 100.772412
1759228849.511726, 4.717475, -0.237026, 4.470124, 1.133340, 0.485426, 1.281262, -138.665298, -192.651627, -848.100220, 13.727772, 100.772412
1759228849.531245, 1.804330, 1.545756, 3.583821, 1.270237, 0.690237, 2.182304, -138.757904, -190.609116, -848.557617, 13.727772, 100.772412
1759228849.551824, -2.136077, 6.781576, 1.196353, 1.351886, 1.239532, 2.296802, -139.165222, -188.214722, -849.625244, 13.727772, 100.772412
1759228849.571729, -0.587777, 18.397195, -0.252588, 1.591045, 1.745813, 2.390883, -139.781281, -185.711166, -850.900208, 13.727772, 100.772412
1759228849.591784, -5.226243, 23.830537, -1.491588, 1.583836, 1.461682, 2.593546, -140.123550, -183.171127, -852.324707, 13.727772, 100.772412
1759228849.611736, -9.024045, 12.949489, -0.384120, 1.408911, 1.206536, 2.017818, -140.499863, -180.930405, -853.862854, 13.727772, 100.772412
1759228849.631763, -6.352116, 7.974786, 0.528221, 1.485559, 0.355542, 1.539252, -140.606064, -179.259583, -854.042419, 13.727772, 100.772412
1759228849.651761, -5.029619, 6.992266, 0.862212, 1.573561, -0.428384, 1.249147, -140.072510, -177.615479, -854.190186, 13.727772, 100.772412
1759228849.671736, -4.224868, 7.269395, 1.191864, 1.522073, -0.924163, 1.015671, -139.233124, -176.399139, -854.004211, 13.727772, 100.772412
1759228849.691766, -2.994548, 7.180061, 2.116923, 1.375308, -1.178881, 0.761613, -138.419174, -175.486496, -853.388916, 13.727772, 100.772412
1759228849.711825, -1.533486, 7.217022, 2.335095, 1.057377, -0.838538, 0.474541, -138.088394, -174.557190, -852.981934, 13.727772, 100.772412
1759228849.731735, -0.836474, 7.373991, 0.614562, 0.991143, -0.247120, 0.115506, -138.094406, -174.164383, -853.521790, 13.727772, 100.772412
1759228849.751746, -0.233734, 6.499360, 0.538097, 1.122733, -0.373856, -0.058713, -138.038879, -173.546097, -853.495605, 13.727772, 100.772412
1759228849.771730, 0.066140, 4.897788, 0.309151, 1.067293, 0.126767, 0.084043, -138.261398, -173.185928, -853.972168, 13.727772, 100.772412
1759228849.791768, -1.040730, 3.047220, 0.007781, 0.950129, 0.017524, 0.099075, -138.320633, -172.937515, -854.006958, 13.727772, 100.772412
1759228849.811758, -1.960851, 2.444630, -0.888099, 0.893427, -0.170857, 0.038016, -138.106567, -172.313904, -854.376770, 13.727772, 100.772412
1759228849.831744, -2.632275, 3.282450, -1.395969, 1.055557, -0.554112, -0.093948, -137.959427, -172.172302, -854.365662, 13.727772, 100.772412
1759228849.851763, -1.489642, 5.479729, -3.529053, 1.549374, -0.627772, -0.109406, -137.782669, -171.379730, -854.692627, 13.727772, 100.772412
1759228849.871767, 0.627580, 8.504354, -2.362179, 1.864480, -0.377837, 0.095374, -137.436234, -170.258102, -855.281128, 13.727772, 100.772412
1759228849.891789, 2.869301, 12.451644, 0.603638, 1.551759, -0.287273, 0.402921, -137.320740, -169.222900, -855.615967, 13.727772, 100.772412
1759228849.911764, 0.391302, 15.259893, 2.846406, 0.649276, -0.451591, 0.934320, -136.405579, -168.303757, -855.842773, 13.727772, 100.772412
1759228849.931743, -5.821651, 14.576648, 1.484106, 0.328275, -0.149622, 0.826957, -135.939163, -167.768478, -855.617310, 13.727772, 100.772412
1759228849.951758, -8.010400, 17.121086, 3.075801, 0.645776, -0.035932, 0.625144, -135.551117, -167.078583, -856.472900, 13.727772, 100.772412
1759228849.971766, -8.407838, 17.017836, 1.893215, 0.143639, -0.029827, 0.356739, -135.230011, -166.884445, -856.123535, 13.727772, 100.772412
1759228849.991794, -4.723161, 17.038336, 0.588225, -0.099781, -0.052192, 0.210674, -135.424789, -166.684555, -855.901978, 13.727772, 100.772412
1759228850.011786, -4.304625, 19.510050, 2.580500, -0.274145, -0.932958, 0.348548, -134.970261, -166.780441, -854.792480, 13.727772, 100.772412
1759228850.031743, -4.981137, 19.450943, 4.664803, -0.993789, -1.421260, 0.170612, -134.398010, -167.452820, -853.304199, 13.727772, 100.772412
1759228850.051745, -4.042161, 14.842704, 4.248212, -1.797460, -1.231183, -0.042020, -134.346954, -168.338806, -851.560791, 13.727772, 100.772412
