SamplingTime, AccelerationX, AccelerationY, AccelerationZ, GyroX, GyroY, GyroZ, MagneticFieldX, MagneticFieldY, MagneticFieldZ, Latitude, Longitude
1759316218.533195, 2.225261, 1.365293, -8.814852, 0.751326, 1.368816, 0.041509, 42.641388, -98.704285, 69.911911, , 
1759316218.552956, 2.355446, 0.728436, -8.968231, 0.782443, 1.315764, 0.024133, 42.579773, -98.884583, 69.565521, , 
1759316218.573061, 3.170073, 0.518644, -9.012224, 0.524830, 1.060000, 0.309909, 43.143021, -98.679077, 68.878799, 13.727789, 100.772415
1759316218.592223, 1.908927, 1.229871, -9.731831, 0.498580, 1.923243, 0.138642, 43.383377, -98.808395, 68.638718, 13.727789, 100.772415
1759316218.612830, 3.453786, 0.840215, -8.390330, 0.647294, 2.006388, -0.009850, 43.642441, -99.034042, 68.414825, 13.727789, 100.772415
1759316218.633114, 3.390489, 1.081132, -9.075521, 0.702700, 2.216209, 0.367243, 44.106323, -99.390106, 67.898941, 13.727789, 100.772415
1759316218.653182, 2.989161, 0.574010, -9.345317, -0.369040, 2.344972, 0.476490, 44.949142, -99.268280, 68.507645, 13.727789, 100.772415
1759316218.673178, 4.944775, -0.300921, -7.810035, -1.510433, 2.211855, 0.594444, 45.597992, -99.006348, 69.496872, 13.727789, 100.772415
1759316218.693219, 9.008483, -2.113781, -6.010643, -1.568714, 1.425484, 0.849629, 46.006058, -98.590118, 70.492844, 13.727789, 100.772415
1759316218.713204, 6.647351, -1.607407, -0.602591, 0.024391, -0.488495, 0.683487, 46.473709, -98.703033, 70.280853, 13.727789, 100.772415
1759316218.733189, 2.108095, 2.003199, -7.836521, 0.227570, -2.825569, 0.310778, 46.639877, -99.274506, 69.323029, 13.727789, 100.772415
1759316218.753186, 3.737798, 0.904859, -6.989572, -0.867838, -3.796986, 0.855695, 46.716507, -99.243561, 69.879333, 13.727789, 100.772415
1759316218.773196, 5.261258, -0.767641, -11.276540, -1.803267, -2.890108, 0.647940, 47.027542, -98.848404, 70.573563, 13.727789, 100.772415
1759316218.793192, 4.453814, 1.947982, -12.574796, -1.856980, -0.972090, 0.307421, 47.237427, -98.759460, 71.829163, 13.727789, 100.772415
1759316218.813206, 4.574122, 1.380856, -10.740987, -1.449015, 0.463004, -0.357834, 46.919144, -98.497406, 72.814499, 13.727789, 100.772415
1759316218.833193, 5.519383, 0.944662, -10.750414, -1.696589, 1.578547, -0.794412, 46.410507, -98.526276, 74.317230, 13.727789, 100.772415
1759316218.853193, 6.565500, 4.148852, -8.757092, -1.702888, 2.577923, -0.732379, 46.083450, -98.450684, 75.903351, 13.727789, 100.772415
1759316218.873208, 6.861333, 3.847332, -8.646809, -1.654912, 3.408021, -0.028507, 46.025574, -98.808746, 76.591599, 13.727789, 100.772415
1759316218.893201, 5.545420, 3.817555, -7.464672, -2.132205, 4.041138, 0.387639, 45.908920, -98.734772, 77.867142, 13.727789, 100.772415
1759316218.913199, 5.086033, 3.170522, -6.517017, -2.978027, 4.218695, 0.179665, 45.875977, -98.792969, 80.154175, 13.727789, 100.772415
1759316218.932916, 5.688324, 4.192097, -4.825364, -3.586790, 3.390496, 0.190080, 45.400375, -99.385742, 83.242584, 13.727789, 100.772415
1759316218.953188, 7.163152, 5.143643, -5.149928, -3.391885, 2.021224, 0.831468, 45.345200, -100.170563, 85.403503, 13.727789, 100.772415
1759316218.973212, 7.363966, 3.410690, -7.051522, -3.026797, 1.176605, 1.372825, 45.749680, -100.894592, 87.587769, 13.727789, 100.772415
1759316218.993194, 6.808212, 0.357185, -9.260473, -2.890257, 1.339069, 1.085114, 46.083832, -101.735458, 90.163986, 13.727789, 100.772415
1759316219.013187, 6.952762, 3.072808, -7.143998, -2.277143, 1.693735, 0.438218, 45.967407, -102.563339, 91.182098, 13.727789, 100.772415
1759316219.032826, 7.944859, 4.193145, -4.731990, -1.552605, 1.666001, 0.453600, 45.808350, -103.147751, 92.735809, 13.727789, 100.772415
1759316219.052968, 7.743147, 2.750190, -5.547365, -0.415129, 2.069152, 0.411648, 45.691483, -103.522446, 93.099670, 13.727789, 100.772415
1759316219.073212, 7.940519, 3.559130, -4.698621, -0.765004, 1.469774, 0.835109, 45.421188, -103.701279, 93.179276, 13.727789, 100.772415
1759316219.093191, 8.686613, 4.163367, -2.064101, -1.108089, 0.941769, 1.011503, 45.296234, -104.175125, 94.180893, 13.727789, 100.772415
1759316219.113206, 7.523928, 2.408268, -4.434361, -0.732157, 0.801288, 0.792126, 45.641495, -104.720764, 94.838165, 13.727789, 100.772415
1759316219.133212, 8.609250, 3.460070, -2.065149, -1.028338, 0.498251, 0.732306, 45.888580, -104.982574, 95.403870, 13.727789, 100.772415
1759316219.153207, 9.096919, 3.865887, -1.247379, -1.477329, 0.140855, 0.700403, 45.878815, -105.727722, 96.419022, 13.727789, 100.772415
1759316219.173204, 9.875633, 5.019444, -0.866551, -1.855805, 0.152590, 0.800966, 46.357773, -106.599213, 97.106995, 13.727789, 100.772415
1759316219.193076, 10.032603, 4.627842, 0.094571, -2.509377, -0.248716, 1.264089, 47.067001, -107.901413, 98.411713, 13.727789, 100.772415
1759316219.213206, 8.794202, 2.969858, -1.968632, -2.705392, -0.530994, 1.475480, 48.047974, -109.284958, 99.411942, 13.727789, 100.772415
1759316219.233198, 8.728511, 1.786374, -2.230797, -2.593260, -0.357893, 1.341594, 48.803619, -110.583176, 100.494934, 13.727789, 100.772415
1759316219.253195, 8.438513, 0.619350, -3.117400, -2.511981, 0.026244, 0.899842, 48.954117, -112.270676, 101.711090, 13.727789, 100.772415
1759316219.273185, 7.747337, -0.170737, -2.952200, -2.488274, 0.435970, 0.470662, 48.982040, -113.439224, 102.686661, 13.727789, 100.772415
1759316219.293184, 6.984934, 0.215927, -3.232322, -2.206605, 0.134037, 0.521641, 49.223267, -114.625229, 104.085403, 13.727789, 100.772415
1759316219.313189, 6.524349, 0.930447, -5.404162, -1.252263, 0.164139, 0.622149, 49.336090, -115.533646, 103.886078, 13.727789, 100.772415
1759316219.333187, 6.786065, 0.163554, -2.806902, -0.256204, 0.260127, 0.524376, 49.470993, -115.785873, 104.073944, 13.727789, 100.772415
1759316219.353013, 6.794445, 0.803105, -1.911471, -0.843032, -0.007858, -0.037064, 49.481644, -116.197952, 104.254318, 13.727789, 100.772415
1759316219.372994, 6.336255, 1.392827, 0.110582, -1.751059, 0.170671, -0.855359, 48.925598, -116.840866, 104.680252, 13.727789, 100.772415
1759316219.393196, 6.438756, 2.700360, -0.007332, -1.647663, -0.108060, -1.608562, 48.505905, -117.767639, 104.728149, 13.727789, 100.772415
1759316219.412922, 8.716690, 6.297798, -1.718139, -0.768800, 0.064662, -1.511554, 48.279785, -118.362274, 105.116287, 13.727789, 100.772415
1759316219.433201, 8.735245, 6.246921, -2.723404, 0.134543, 0.395655, -1.046778, 47.961258, -118.517487, 105.135910, 13.727789, 100.772415
1759316219.453105, 8.744223, 8.843732, -1.289128, 0.157856, 0.523458, -0.476085, 47.724030, -118.544525, 105.594696, 13.727789, 100.772415
1759316219.473226, 9.256881, 7.487566, -0.607978, -0.421234, 0.203557, 0.318709, 47.235550, -118.325836, 106.004562, 13.727789, 100.772415
1759316219.492299, 9.351003, 1.900547, 1.236755, -0.443061, -0.561469, 0.316645, 47.445450, -118.358124, 106.621826, 13.727789, 100.772415
1759316219.513211, 8.646959, -0.774674, 2.992453, -0.039238, -1.674865, -1.073841, 47.998489, -118.503952, 105.840546, 13.727789, 100.772415
1759316219.533198, 10.502465, -0.720505, -3.676147, -1.090838, -1.586695, -2.718451, 48.539093, -118.726456, 105.716629, 13.727789, 100.772415
1759316219.553185, 13.531280, 7.837868, -6.770353, -2.086538, 0.536270, -2.550315, 47.787781, -119.751953, 105.610321, 13.727789, 100.772415
1759316219.573214, 10.591350, 7.418733, -2.082806, -1.312990, 0.899847, -1.790765, 46.304535, -120.141830, 106.729462, 13.727789, 100.772415
1759316219.593190, 9.778967, 4.498406, -1.403451, 0.008537, 0.476020, -1.907536, 45.446289, -120.132614, 106.698563, 13.727789, 100.772415
1759316219.613239, 7.102699, 3.070115, -0.458639, -0.119786, 0.587655, -2.052709, 44.505600, -120.005203, 106.529419, 13.727789, 100.772415
1759316219.633204, 6.942137, 1.980753, 0.044442, -0.813292, 0.661274, -2.354170, 43.450134, -120.220703, 106.952515, 13.727789, 100.772415
1759316219.652812, 4.141071, -3.465158, 1.576283, -1.688903, 0.317315, -2.795834, 42.449982, -121.215988, 107.450653, 13.727789, 100.772415
1759316219.673202, 3.089867, -0.631022, -4.099023, -2.914683, 1.324653, -4.360733, 40.389374, -123.513062, 107.772797, 13.727789, 100.772415
1759316219.693183, 3.970035, 5.257368, -1.222090, -4.056043, 3.848892, -5.151088, 36.656357, -126.311844, 108.436615, 13.727789, 100.772415
1759316219.712833, 6.379500, 11.738920, 6.839187, -1.774534, 2.939088, -4.874437, 34.443054, -128.083527, 108.050217, 13.727789, 100.772415
1759316219.733201, 0.654964, 14.218864, 7.928249, 0.711184, 1.652317, -4.777169, 34.176270, -128.346680, 108.060425, 13.727789, 100.772415
1759316219.752692, 4.897639, 12.738799, 4.508431, 1.837016, -2.124124, -1.191754, 35.477646, -127.254044, 108.130814, 13.727789, 100.772415
1759316219.773201, 4.535815, 9.157372, 2.997092, 0.073883, -1.116026, -1.875304, 35.728271, -127.437729, 108.318390, 13.727789, 100.772415
1759316219.793170, 3.309236, 9.078513, 0.272490, 0.158418, -1.015982, -1.994044, 36.174286, -127.295807, 108.726059, 13.727789, 100.772415
1759316219.813110, 1.979705, 8.464401, -3.186383, 1.167274, 0.037477, -1.266805, 35.861404, -127.136688, 107.831406, 13.727789, 100.772415
1759316219.833200, 1.650802, 6.041469, -1.626411, 1.835572, 0.402796, -0.520020, 35.777328, -126.015427, 108.141785, 13.727789, 100.772415
1759316219.853176, 0.329652, 6.845771, -3.509900, 0.868421, 0.009052, 0.068745, 35.906647, -125.389664, 107.570541, 13.727789, 100.772415
1759316219.873200, 1.638083, 5.684583, -3.101239, 0.217829, 0.401180, 0.317702, 35.263809, -125.162903, 107.658051, 13.727789, 100.772415
1759316219.893143, 2.197129, 3.367295, 2.666542, 2.493155, 0.288929, -0.502517, 34.886154, -123.467407, 107.828064, 13.727789, 100.772415
1759316219.913067, 0.449362, 1.613692, 3.571999, 4.098531, -1.609553, -1.372626, 35.676971, -121.158768, 106.859375, 13.727789, 100.772415
1759316219.933195, -0.964414, 1.068412, 2.328211, 3.587440, -4.028306, -2.102397, 37.567215, -119.226868, 106.957489, 13.727789, 100.772415
1759316219.952397, -2.085649, 0.653467, 1.665915, 1.771691, -7.040686, -2.610444, 41.517715, -117.938400, 105.913727, 13.727789, 100.772415
1759316219.973207, -2.151639, 13.133393, -1.601272, 0.314079, -8.961423, -2.857383, 47.249374, -118.927948, 104.166031, 13.727789, 100.772415
1759316219.993205, -8.149862, 51.935322, -13.514371, 0.287477, -9.589682, -5.768776, 51.586243, -118.044495, 103.436050, 13.727789, 100.772415
1759316220.012912, -10.497676, 33.636438, -13.574525, 0.675795, -6.271456, -2.845195, 53.125671, -116.262314, 101.675415, 13.727789, 100.772415
1759316220.033039, -3.110667, 6.697929, -5.274127, 1.166825, -1.694217, 2.064445, 54.104919, -115.316101, 101.014679, 13.727789, 100.772415
1759316220.053177, -2.560000, 2.042254, -1.120187, 0.195017, 1.462830, 1.839321, 53.596649, -115.680069, 101.896011, 13.727789, 100.772415
1759316220.073209, -4.039317, 2.645892, -0.636558, -0.334545, 2.704885, 0.682468, 52.258820, -116.020187, 101.968872, 13.727789, 100.772415
1759316220.093200, -5.142147, 7.153426, -0.321571, 0.683453, 2.821927, 0.080566, 50.894043, -115.758408, 103.145752, 13.727789, 100.772415
1759316220.113206, -3.895815, 8.296657, -0.805350, 1.412271, 2.422222, -0.037993, 49.747604, -115.186874, 102.652115, 13.727789, 100.772415
1759316220.132886, -2.433107, 9.073575, -2.469769, 1.346071, 2.383802, -0.364997, 48.273697, -114.432739, 102.554352, 13.727789, 100.772415
1759316220.153176, -0.887800, 9.346514, -3.210026, 1.215365, 2.066399, -0.523466, 47.199326, -113.895386, 102.719788, 13.727789, 100.772415
1759316220.172705, 0.400430, 8.179940, -2.766350, 0.257318, -0.630474, -0.683265, 47.482330, -113.427567, 101.924240, 13.727789, 100.772415
1759316220.193193, -0.596156, 8.772505, -4.684405, 0.380023, -1.389372, -0.545390, 47.962708, -113.128082, 102.260010, 13.727789, 100.772415
1759316220.212668, -0.729483, 8.545504, -4.551976, 0.801865, -0.592814, -0.413339, 48.285904, -112.633072, 101.417450, 13.727789, 100.772415
1759316220.232719, -0.941071, 8.306982, -4.590433, 0.606325, -0.193419, -0.223470, 48.038544, -112.372421, 101.112930, 13.727789, 100.772415
1759316220.253179, -1.570147, 8.541913, -6.267122, 0.030961, 0.196771, -0.089719, 47.940063, -112.329926, 101.865204, 13.727789, 100.772415
1759316220.273211, -1.356615, 8.918401, -5.948843, 0.026077, 0.971757, 0.024199, 47.464966, -112.202164, 101.125458, 13.727789, 100.772415
1759316220.293203, -1.262343, 8.132953, -4.339640, 0.145074, 0.820828, 0.104431, 46.990585, -112.276993, 101.462662, 13.727789, 100.772415
1759316220.313206, -1.014244, 7.835923, -3.051410, 0.228623, 0.176457, 0.033824, 47.083984, -112.216675, 101.109756, 13.727789, 100.772415
1759316220.332601, -0.933739, 8.336012, -3.636942, 0.337471, -0.518458, -0.024171, 47.387680, -112.130966, 101.599213, 13.727789, 100.772415
1759316220.353177, -1.194407, 7.783849, -5.154417, 0.385376, -0.707997, -0.100572, 47.950958, -111.941849, 100.711716, 13.727789, 100.772415
1759316220.373212, -2.105551, 6.710648, -6.722769, 0.265144, -0.577103, -0.158871, 47.977936, -111.716003, 100.607422, 13.727789, 100.772415
1759316220.393204, -2.876783, 6.679074, -7.191434, 0.357989, 0.101809, -0.267997, 47.954147, -111.658737, 100.866043, 13.727789, 100.772415
1759316220.412338, -2.423680, 7.993940, -5.133917, 0.208512, 0.536200, -0.361952, 47.731232, -111.445572, 100.429367, 13.727789, 100.772415
1759316220.432440, -1.670704, 7.265654, -3.406650, 0.158375, 0.548495, -0.204031, 47.388092, -111.126938, 101.231400, 13.727789, 100.772415
1759316220.453176, -1.000926, 7.111527, -3.779098, 0.002320, 0.338327, -0.190059, 47.042648, -110.997467, 100.629333, 13.727789, 100.772415
1759316220.473198, -0.698658, 7.154024, -2.713379, -0.015912, -0.092105, -0.093963, 47.186279, -111.117233, 100.562576, 13.727789, 100.772415
1759316220.493206, -1.041029, 7.280169, -4.388123, 0.022823, -0.249864, 0.017045, 47.375061, -111.103271, 101.479294, 13.727789, 100.772415
1759316220.513214, -1.959804, 6.972215, -3.998915, -0.210303, -0.092775, 0.104741, 47.485107, -111.256760, 100.555695, 13.727789, 100.772415
1759316220.532296, -3.037494, 7.158214, -4.625149, -0.383119, -0.028565, 0.050408, 47.659775, -111.597229, 100.565765, 13.727789, 100.772415
1759316220.553176, -3.617339, 7.357980, -5.297171, -0.477787, 0.036993, -0.101697, 47.640305, -111.920761, 101.536697, 13.727789, 100.772415
1759316220.573206, -3.504513, 7.464373, -5.984307, -0.527593, 0.074194, -0.329058, 47.446655, -112.213730, 101.348297, 13.727789, 100.772415
1759316220.593203, -2.461090, 8.034941, -6.821380, -0.684318, 0.316823, -0.376861, 47.293106, -112.621994, 102.043152, 13.727789, 100.772415
1759316220.613205, -0.407014, 8.040028, -7.226150, -0.886515, 0.831393, -0.105411, 46.844116, -112.974243, 101.583618, 13.727789, 100.772415
1759316220.633206, 1.148768, 8.955661, -6.965331, -0.981806, 1.174101, 0.040286, 46.428589, -113.487869, 102.469513, 13.727789, 100.772415
1759316220.653181, 0.035614, 10.256161, -5.387852, -0.662645, 0.783520, 0.278856, 46.307602, -113.825195, 103.498703, 13.727789, 100.772415
1759316220.673210, -2.634370, 12.912079, -4.795586, -0.517110, -0.028220, 0.272733, 46.716522, -114.249268, 102.637085, 13.727789, 100.772415
1759316220.693207, -3.872920, 16.206501, -4.390218, -0.311969, 0.454650, -0.078185, 46.387054, -114.473129, 103.820343, 13.727789, 100.772415
1759316220.712956, -4.967520, 17.417518, -2.882469, -0.249816, 0.851142, -0.223017, 45.724228, -114.164185, 103.071259, 13.727789, 100.772415
1759316220.733194, -3.874716, 11.123910, -1.798943, 0.122051, 0.320189, -0.166670, 45.701630, -113.958038, 103.261429, 13.727789, 100.772415
1759316220.753028, -0.919224, 6.878990, -1.105373, 0.000071, -0.154328, -0.363648, 45.523926, -114.172638, 103.247482, 13.727789, 100.772415
1759316220.773209, 0.146046, 7.028478, -0.470161, -0.562135, 0.190800, -0.365710, 45.252045, -114.363449, 103.214096, 13.727789, 100.772415
1759316220.793207, 0.448464, 7.366959, 1.030105, -0.518959, 0.902026, -0.582621, 44.631683, -114.738846, 104.369827, 13.727789, 100.772415
1759316220.813207, 0.345364, 8.377611, 2.089091, -0.439745, 0.437693, -0.454274, 44.263062, -114.957474, 104.056458, 13.727789, 100.772415
1759316220.833208, 0.276081, 10.107571, 2.469769, -0.437125, -0.514058, 0.040068, 44.572357, -115.443619, 104.622864, 13.727789, 100.772415
1759316220.853180, -0.159214, 11.456704, 2.450016, -0.704359, -1.325265, 0.555775, 45.572388, -115.756485, 103.702332, 13.727789, 100.772415
1759316220.873208, -0.646883, 10.799196, 0.712275, -0.939457, -1.307139, 0.766622, 46.627319, -116.532349, 104.101379, 13.727789, 100.772415
1759316220.892532, -1.185279, 9.264214, -0.118363, -0.918123, -0.201232, 0.706024, 46.635422, -117.073517, 105.211746, 13.727789, 100.772415
1759316220.913203, -1.375319, 8.505551, -0.230143, -0.726505, 1.019777, 0.592052, 46.504944, -117.557632, 104.825272, 13.727789, 100.772415
1759316220.933015, -1.247080, 8.593538, 0.132729, -0.901888, 1.454458, 0.523683, 45.696320, -118.472565, 105.741440, 13.727789, 100.772415
1759316220.953181, -0.622044, 8.506150, 0.106692, -1.303659, 1.240051, 0.427037, 45.373657, -119.142441, 105.683151, 13.727789, 100.772415
1759316220.973209, -0.209792, 9.317485, 0.421978, -1.695546, 0.709413, 0.361773, 45.185074, -120.449020, 106.257889, 13.727789, 100.772415
1759316220.993215, -0.190189, 10.207080, 0.491410, -1.888368, 0.021781, 0.480396, 45.343735, -121.493027, 107.674271, 13.727789, 100.772415
1759316221.013213, -0.328305, 11.133038, -2.132635, -0.515529, -1.218081, 0.463260, 46.449219, -121.788177, 106.279266, 13.727789, 100.772415
1759316221.033213, -0.923114, 10.761338, -1.980154, 0.284109, -2.017202, 0.300733, 47.853821, -122.002670, 106.347839, 13.727789, 100.772415
1759316221.053180, -1.868824, 9.410260, -1.866430, -0.539039, -2.094732, 0.502988, 49.143112, -122.443161, 106.703842, 13.727789, 100.772415
1759316221.072463, -2.444330, 7.970746, -2.500893, -0.951010, -1.685930, 0.399766, 49.954880, -123.066147, 106.251923, 13.727789, 100.772415
1759316221.093184, -3.132214, 7.992144, -3.074155, -0.426105, -1.141361, -0.282015, 50.679474, -123.149780, 106.222351, 13.727789, 100.772415
1759316221.113206, -4.107702, 11.198130, -2.716671, 0.037305, -0.339335, -0.791360, 50.716614, -122.997559, 105.507019, 13.727789, 100.772415
1759316221.133205, -3.306542, 12.094759, -1.826177, 0.043826, 0.441476, -0.343609, 50.054962, -122.793793, 105.930893, 13.727789, 100.772415
1759316221.153170, -1.564312, 10.583868, -0.385766, -0.142529, 1.136722, -0.604388, 49.179077, -122.941788, 107.219711, 13.727789, 100.772415
1759316221.172976, -0.645836, 9.320926, 1.548899, -0.273852, 1.147542, -0.584243, 48.568420, -122.923035, 106.192459, 13.727789, 100.772415
1759316221.193203, 0.088286, 9.305514, 2.485930, -0.169941, 0.402872, -0.179031, 48.848267, -122.910767, 107.576462, 13.727789, 100.772415
1759316221.213196, 0.428113, 8.741679, 2.453009, 0.053418, -0.546311, 0.292603, 49.451782, -123.056534, 105.976883, 13.727789, 100.772415
1759316221.233212, 0.555156, 8.666112, 1.713949, 0.165648, -0.951676, 0.348757, 49.678665, -123.185089, 107.106583, 13.727789, 100.772415
1759316221.252756, 0.325462, 8.647108, 1.050456, -0.002385, -0.689182, -0.013883, 50.174118, -123.316895, 105.785507, 13.727789, 100.772415
1759316221.273210, -0.451457, 9.465626, 0.785897, -0.310447, -0.220575, -0.184644, 50.231384, -123.590057, 106.196533, 13.727789, 100.772415
1759316221.293211, -0.307505, 9.456947, 0.839317, -0.344067, 0.429609, 0.111215, 49.992767, -123.747284, 106.904495, 13.727789, 100.772415
1759316221.313212, -0.064195, 9.598055, 1.141735, -0.342528, 0.665276, 0.361066, 49.605942, -124.246597, 106.411133, 13.727789, 100.772415
1759316221.333216, -0.386664, 10.032603, 0.781707, -0.402906, 0.529072, 0.430445, 49.310364, -124.530090, 107.378601, 13.727789, 100.772415
1759316221.352658, -0.882563, 10.419715, 0.136170, -0.484669, 0.609767, 0.537389, 49.066879, -124.880463, 106.956146, 13.727789, 100.772415
1759316221.372605, -2.376844, 9.150788, -2.479495, -0.005013, 0.921760, 0.332730, 48.334503, -124.879074, 106.955139, 13.727789, 100.772415
1759316221.392958, -1.849820, 8.909573, -1.349582, 1.047301, 1.023485, -0.259737, 47.890594, -124.032684, 107.692383, 13.727789, 100.772415
1759316221.413207, -0.969951, 8.730307, -1.345092, 0.574972, 0.901961, -0.146621, 47.187088, -124.017593, 106.623047, 13.727789, 100.772415
1759316221.433211, -0.510713, 8.934113, -0.703446, -0.455058, 0.834894, 0.025346, 46.849777, -124.444504, 106.722015, 13.727789, 100.772415
1759316221.453194, -0.819565, 10.564564, 0.468964, -0.711557, 0.555602, 0.161325, 46.509583, -124.829208, 106.929489, 13.727789, 100.772415
1759316221.473211, -0.816572, 10.458771, 1.235258, -0.330012, 0.012921, 0.111467, 46.714844, -124.972168, 107.308533, 13.727789, 100.772415
1759316221.493208, -0.764798, 9.616161, 1.601122, -0.046681, -0.500352, -0.053768, 47.163986, -124.988708, 108.020020, 13.727789, 100.772415
1759316221.513211, -1.088614, 9.151686, 1.261894, -0.013111, -0.739488, -0.017770, 47.488190, -125.163925, 106.721451, 13.727789, 100.772415
1759316221.533206, -1.413926, 8.705467, 0.762853, -0.108178, -0.625015, 0.035972, 47.602524, -125.393906, 106.897079, 13.727789, 100.772415
1759316221.553183, -1.664868, 9.232042, 0.439486, -0.226798, -0.150910, 0.018337, 47.799271, -125.486679, 107.642700, 13.727789, 100.772415
1759316221.573204, -1.831864, 10.254066, 0.702100, -0.285347, 0.348593, 0.037208, 47.504944, -125.798325, 106.865341, 13.727789, 100.772415
1759316221.593214, -1.800290, 10.222343, 0.340725, -0.206598, 0.615845, 0.082961, 46.950821, -125.601196, 107.781860, 13.727789, 100.772415
1759316221.613212, -1.302895, 9.263615, -0.200514, 0.294283, 0.585555, 0.028547, 46.862686, -125.567627, 106.962830, 13.727789, 100.772415
1759316221.633280, -1.136647, 9.160365, -0.372747, 0.364526, 0.374488, 0.000411, 46.589996, -125.233765, 107.073349, 13.727789, 100.772415
1759316221.652735, -1.435025, 9.616461, -0.277578, -0.141056, 0.149076, 0.019721, 46.720566, -125.438751, 107.015717, 13.727789, 100.772415
1759316221.673238, -1.569549, 9.898079, -0.194080, -0.306985, -0.007712, -0.006905, 46.655548, -125.529099, 107.167404, 13.727789, 100.772415
1759316221.693205, -1.217302, 10.123283, 0.207098, -0.062581, 0.003525, -0.086320, 46.633148, -125.542358, 107.863861, 13.727789, 100.772415
1759316221.713187, -0.458490, 9.031527, 0.737414, -0.069748, 0.208535, -0.135328, 46.195297, -125.856628, 107.615341, 13.727789, 100.772415
1759316221.733175, -0.320823, 8.982895, 1.076942, -0.141309, 0.223830, -0.096991, 46.242935, -125.667175, 108.204071, 13.727789, 100.772415
1759316221.753183, -0.621894, 9.412804, 0.645986, -0.198637, -0.007684, -0.035567, 46.241974, -125.900772, 107.270889, 13.727789, 100.772415
1759316221.773194, -0.966809, 9.812336, -0.167594, -0.113321, 0.034781, 0.020895, 46.190796, -125.832169, 107.260239, 13.727789, 100.772415
1759316221.793185, -1.087416, 9.936685, -0.543035, -0.068968, 0.230416, 0.019634, 46.134659, -125.898102, 107.616013, 13.727789, 100.772415
1759316221.812382, -1.122282, 10.243442, -0.706140, -0.043106, 0.236246, -0.015899, 45.997925, -125.995544, 107.331573, 13.727789, 100.772415
1759316221.833019, -0.992995, 9.840318, -0.265457, -0.017274, 0.166662, -0.076154, 46.000076, -125.978455, 108.140945, 13.727789, 100.772415
1759316221.853184, -0.975488, 9.419388, 0.118363, -0.046046, 0.147621, -0.100560, 45.590683, -126.156448, 107.723557, 13.727789, 100.772415
1759316221.873214, -0.986561, 9.530718, 0.462679, -0.006895, 0.106347, -0.131526, 45.576172, -125.974182, 107.344650, 13.727789, 100.772415
1759316221.893209, -0.772429, 10.104279, 0.405069, 0.078111, -0.003461, -0.145009, 45.636276, -126.072571, 108.506119, 13.727789, 100.772415
1759316221.913210, -0.647033, 10.458022, 0.266355, 0.026342, -0.127164, -0.134897, 45.547409, -125.956802, 107.723373, 13.727789, 100.772415
1759316221.932877, -0.685640, 9.777770, 0.105345, -0.069097, -0.163766, -0.066196, 45.519058, -126.138260, 107.542633, 13.727789, 100.772415
1759316221.953189, -0.756418, 8.861240, 0.221464, -0.148242, -0.048365, -0.018025, 45.895401, -126.133057, 108.360855, 13.727789, 100.772415
1759316221.973216, -1.055544, 8.615535, 0.594211, -0.290307, 0.196959, -0.044230, 45.745316, -126.086945, 107.638474, 13.727789, 100.772415
1759316221.993206, -1.227627, 9.153332, 0.904709, -0.307272, 0.318645, -0.017114, 45.260681, -126.566360, 108.593201, 13.727789, 100.772415
1759316222.013191, -1.357213, 10.272173, 0.917578, -0.179306, 0.326222, -0.045073, 45.111389, -126.915802, 107.573547, 13.727789, 100.772415
1759316222.032753, -1.469741, 10.941053, 0.380678, -0.007286, 0.253197, -0.115596, 45.130569, -126.936905, 107.105804, 13.727789, 100.772415
1759316222.053191, -1.143680, 9.996989, -0.322319, 0.154182, 0.160629, -0.124468, 45.007950, -126.760117, 108.503342, 13.727789, 100.772415
1759316222.073210, -0.772130, 8.984990, -0.482432, 0.103900, 0.297400, -0.103366, 44.790283, -126.534653, 107.938644, 13.727789, 100.772415
1759316222.093211, -0.692074, 9.057564, -0.509366, -0.005417, 0.438761, -0.069061, 44.280090, -126.720535, 108.523453, 13.727789, 100.772415
1759316222.113213, -0.940023, 9.586084, -0.272041, -0.044419, 0.607861, -0.083135, 43.968063, -126.524017, 107.900681, 13.727789, 100.772415
1759316222.132594, -0.857723, 9.792584, -0.004788, 0.039103, 0.681134, -0.147975, 43.310333, -126.625183, 107.624115, 13.727789, 100.772415
1759316222.152625, -0.568174, 9.998934, 0.451157, 0.228121, 0.410262, -0.054913, 43.456802, -126.419312, 107.935440, 13.727789, 100.772415
1759316222.173282, -0.724096, 9.552416, 0.396091, 0.166537, 0.083897, -0.013284, 43.218079, -126.134354, 107.559982, 13.727789, 100.772415
1759316222.193216, -0.826897, 9.350555, -0.181211, 0.029086, -0.101871, -0.004314, 43.085358, -126.330231, 108.589310, 13.727789, 100.772415
1759316222.213212, -0.751181, 9.199121, -0.709432, 0.082308, -0.053096, -0.009060, 43.246780, -126.264343, 107.862106, 13.727789, 100.772415
1759316222.232500, -0.745644, 9.265261, -0.701501, 0.242992, 0.082265, -0.082799, 43.422836, -126.063278, 108.412231, 13.727789, 100.772415
1759316222.252777, -1.084424, 9.598055, -0.640898, 0.352573, 0.115355, -0.166122, 43.300797, -125.972549, 107.297836, 13.727789, 100.772415
1759316222.273200, -1.299902, 10.151415, -0.823007, 0.517699, 0.020956, -0.254977, 43.251694, -125.684189, 107.287064, 13.727789, 100.772415
1759316222.293215, -1.530643, 10.773608, -1.325789, 0.994736, -0.220943, -0.306519, 43.511597, -124.997787, 107.646561, 13.727789, 100.772415
1759316222.313109, -2.668787, 11.686098, -2.335993, 1.753798, -0.477319, -0.212104, 43.661407, -124.186768, 107.049500, 13.727789, 100.772415
1759316222.332302, -2.921076, 11.757924, -4.135534, 2.781605, -0.309752, -0.024258, 43.833939, -122.336929, 106.477325, 13.727789, 100.772415
1759316222.353187, -2.693327, 10.671406, -4.574571, 3.794695, 0.189524, -0.236081, 43.910843, -119.911804, 105.369843, 13.727789, 100.772415
1759316222.372951, -3.207482, 10.313323, -5.032313, 4.124662, 1.060804, -0.364304, 43.231461, -117.497330, 104.619720, 13.727789, 100.772415
1759316222.393212, -1.985242, 8.827571, -4.216788, 3.104392, 0.620269, -0.069433, 42.815247, -115.469879, 103.886856, 13.727789, 100.772415
1759316222.412947, -2.250101, 9.611822, -6.511331, 2.866026, -0.754769, -0.402023, 42.992340, -113.666183, 102.246460, 13.727789, 100.772415
1759316222.433209, -2.167501, 12.077700, -7.341071, 3.588840, -0.385546, -0.721566, 42.945129, -111.967377, 100.871750, 13.727789, 100.772415
1759316222.453189, 0.286107, 12.555343, -3.355773, 3.070960, -0.142353, -0.389096, 42.917404, -110.282867, 100.364700, 13.727789, 100.772415
1759316222.473252, 2.115726, 13.429676, -3.525462, 2.454892, -0.500706, 0.674352, 43.472931, -109.237305, 98.144485, 13.727789, 100.772415
1759316222.493213, 1.804779, 9.155876, -1.730260, 2.599356, -0.983041, 1.173108, 44.129929, -107.793823, 98.172104, 13.727789, 100.772415
1759316222.512821, -0.728735, 5.937770, -1.181539, 3.238198, -3.049820, 0.721759, 45.997177, -106.501953, 95.328659, 13.727789, 100.772415
1759316222.532566, -4.037522, 4.779575, -6.743419, 3.395808, -4.062001, 0.131918, 47.749710, -105.173218, 92.817047, 13.727789, 100.772415
1759316222.553188, -4.821174, 3.594744, -5.045930, 2.944345, -3.317697, -0.061354, 48.567322, -103.938477, 92.048141, 13.727789, 100.772415
1759316222.573213, -5.163395, 1.714398, -8.799140, 2.403999, -1.839150, 0.106359, 49.217987, -103.075500, 89.431580, 13.727789, 100.772415
1759316222.593214, -4.292205, 1.407641, -8.003517, 1.956556, -0.866179, -0.214319, 49.323196, -102.639175, 88.834564, 13.727789, 100.772415
1759316222.612659, -2.687940, 4.423288, -6.593781, 1.527620, -0.206349, -0.434184, 49.332916, -102.217758, 87.630157, 13.727789, 100.772415
1759316222.633223, -2.591873, 4.000861, -5.288343, 1.250237, -0.000857, -0.344111, 48.942093, -101.935196, 88.151688, 13.727789, 100.772415
1759316222.653188, -2.178574, 3.132813, -6.024260, 0.876052, -0.081646, -0.110451, 48.699677, -101.775360, 86.736191, 13.727789, 100.772415
1759316222.673213, -1.837849, 2.478448, -5.918766, 0.439078, -0.480711, 0.042158, 48.912796, -101.621216, 86.628464, 13.727789, 100.772415
1759316222.693216, -2.193687, 2.911648, -6.215946, 0.042329, -0.686568, 0.132814, 49.318726, -101.599564, 86.537109, 13.727789, 100.772415
1759316222.712529, -3.045724, 2.557606, -5.985654, -0.275834, -0.414144, 0.244301, 49.448822, -101.703308, 85.936600, 13.727789, 100.772415
1759316222.732322, -3.924695, 1.750012, -7.395390, -0.578129, 0.086033, 0.318983, 49.881668, -101.927551, 87.361145, 13.727789, 100.772415
1759316222.752458, -4.531625, 1.987187, -7.461081, -0.986854, 0.588162, 0.292566, 49.899368, -102.246109, 87.239807, 13.727789, 100.772415
1759316222.773265, -3.791967, 3.614496, -8.479813, -1.373343, 0.737942, 0.376946, 50.243027, -102.922745, 88.359024, 13.727789, 100.772415
1759316222.793220, -3.403657, 5.756409, -9.772233, -1.812806, 0.980673, 0.467310, 50.719406, -103.534134, 90.227493, 13.727789, 100.772415
1759316222.812368, -3.485060, 8.893861, -11.844265, -1.787293, 1.333117, 0.518358, 50.511749, -104.301636, 90.730362, 13.727789, 100.772415
1759316222.833210, -2.671331, 13.633332, -13.970915, -0.407516, 1.324564, 0.571035, 50.904755, -104.871185, 90.752457, 13.727789, 100.772415
1759316222.853189, -8.566753, 12.645724, -7.357082, -0.512132, -0.050537, -0.536421, 50.549576, -104.877350, 91.379074, 13.727789, 100.772415
1759316222.873259, -11.181820, 12.359617, -8.799589, -1.533067, -1.208433, -1.140955, 50.197754, -105.072754, 92.494507, 13.727789, 100.772415
1759316222.893216, -4.377349, 6.016329, -5.392640, -1.831470, 0.600304, -0.267273, 49.669327, -105.151947, 94.534454, 13.727789, 100.772415
1759316222.913000, -1.012448, 2.618508, -1.153706, -3.421991, 1.434026, -0.260505, 48.469116, -106.449966, 95.944199, 13.727789, 100.772415
1759316222.933213, -0.031125, 5.442170, -2.496105, -3.765646, 2.554010, 0.038059, 47.592361, -108.170334, 98.323807, 13.727789, 100.772415
1759316222.953192, -0.182109, 9.198224, -3.305794, -3.415792, 3.951390, 0.352343, 45.855331, -110.063934, 100.799820, 13.727789, 100.772415
1759316222.973220, -1.024269, 11.103559, -3.223643, -3.284292, 4.372928, -0.194782, 43.442673, -112.135193, 102.049835, 13.727789, 100.772415
1759316222.993212, -1.386692, 13.739575, -4.517559, -3.276447, 3.389307, -1.113091, 41.039581, -114.142181, 104.763016, 13.727789, 100.772415
1759316223.012731, -1.673397, 12.365752, -3.737947, -3.165593, 2.057225, -0.702323, 39.488678, -115.737564, 105.135315, 13.727789, 100.772415
1759316223.033221, -0.635960, 7.394941, -2.123956, -2.982485, 1.572773, 0.019385, 38.344284, -117.318573, 105.951782, 13.727789, 100.772415
1759316223.053190, -0.521188, 5.625775, -0.657657, -2.767113, 1.221683, -0.045900, 37.659210, -119.092102, 107.335663, 13.727789, 100.772415
1759316223.073215, -0.192584, 5.221754, -0.408511, -2.701576, 0.867479, -0.156285, 37.011459, -120.777740, 107.188614, 13.727789, 100.772415
1759316223.093219, 0.033220, 5.313033, -0.483329, -2.570607, 0.630517, 0.069182, 36.583206, -122.344025, 108.357666, 13.727789, 100.772415
1759316223.113217, -0.191835, 5.863400, -0.294038, -2.345692, 0.341463, 0.225533, 36.496185, -123.124878, 108.114136, 13.727789, 100.772415
1759316223.133215, -0.382923, 7.668179, -0.344017, -2.043340, 0.023035, 0.027387, 36.638367, -124.596436, 109.358673, 13.727789, 100.772415
1759316223.152427, -0.275034, 9.432556, -0.191237, -1.466690, -0.361692, -0.136614, 36.665802, -125.774719, 108.641602, 13.727789, 100.772415
1759316223.172859, -0.300472, 10.726323, 0.052523, -0.850402, -0.748242, 0.090311, 37.114532, -126.661407, 108.767212, 13.727789, 100.772415
1759316223.193222, -0.367510, 10.121637, 0.073322, -0.659757, -1.114506, 0.447899, 38.190948, -127.234039, 109.990356, 13.727789, 100.772415
1759316223.212556, -0.516399, 9.107094, -0.717812, -0.634399, -1.336732, 0.567883, 39.383591, -127.483109, 109.513290, 13.727789, 100.772415
1759316223.233215, -1.091457, 7.807492, -2.270152, -0.348049, -1.204900, 0.289391, 40.033218, -127.821899, 109.942734, 13.727789, 100.772415
1759316223.252796, -1.630451, 9.414151, -2.963124, 0.093462, -0.747459, -0.162853, 40.841766, -127.989822, 109.352921, 13.727789, 100.772415
1759316223.273223, -1.235109, 10.979061, -2.971055, -0.070718, -0.311826, -0.148804, 41.398666, -128.039841, 109.480301, 13.727789, 100.772415
1759316223.293218, -0.690428, 10.620529, -3.396474, -0.474055, -0.083839, -0.080232, 41.462036, -128.482956, 109.948257, 13.727789, 100.772415
1759316223.312404, -0.182708, 11.390115, -4.012981, -0.452038, 0.146407, -0.011105, 41.208939, -128.916611, 109.924820, 13.727789, 100.772415
1759316223.333223, 0.218172, 12.836512, -3.847482, -0.498769, 0.525138, 0.239400, 41.107925, -129.375717, 109.610199, 13.727789, 100.772415
1759316223.352674, 0.277877, 13.920188, -2.897732, -0.848862, 0.783636, 0.474237, 40.623215, -130.087250, 110.432022, 13.727789, 100.772415
1759316223.373218, 0.035314, 15.346683, -1.257854, -0.934730, 0.946914, 0.562088, 39.959290, -130.656784, 109.413651, 13.727789, 100.772415
1759316223.393217, -0.520888, 17.215507, 1.181090, -0.726243, 0.587072, 0.448856, 39.758469, -131.366196, 110.411331, 13.727789, 100.772415
1759316223.413222, -0.615310, 18.605491, 1.735497, -0.030719, -0.493827, 0.080659, 40.186646, -131.146973, 109.423080, 13.727789, 100.772415
1759316223.433209, 0.318578, 14.935778, 0.393697, 1.143602, -0.741406, -0.156936, 40.168121, -130.362671, 109.676880, 13.727789, 100.772415
1759316223.453188, 0.057910, 11.410615, -1.148169, 1.766883, -0.280683, -0.280178, 39.963058, -129.116074, 110.668594, 13.727789, 100.772415
1759316223.473068, -1.331775, 10.968287, -3.684377, 2.635562, 0.783547, -0.636514, 38.968307, -127.188797, 109.159393, 13.727789, 100.772415
1759316223.493220, -3.011756, 13.122320, -5.591359, 4.991092, 1.910055, -1.484497, 37.384537, -123.800476, 109.548248, 13.727789, 100.772415
1759316223.513224, -4.017470, 16.558149, -2.033725, 6.022194, 1.697391, -2.134409, 36.715637, -120.433655, 107.035446, 13.727789, 100.772415
1759316223.533221, -5.826439, 13.183073, -3.984700, 4.155685, -0.990614, -0.134747, 36.650070, -117.524704, 106.599030, 13.727789, 100.772415
1759316223.553193, -0.978929, 5.161450, -0.102651, 2.259924, 0.301109, 0.361056, 36.096619, -116.286102, 106.594193, 13.727789, 100.772415
1759316223.573203, 0.784849, 5.562628, 2.259677, 0.344125, 0.106820, 0.091262, 35.878372, -115.884415, 105.894485, 13.727789, 100.772415
1759316223.593220, 1.912817, 10.015544, -3.094805, 1.653360, 1.448180, 1.222618, 35.573578, -114.876450, 105.980637, 13.727789, 100.772415
1759316223.613221, 1.470788, 9.285163, 4.817134, 2.618084, 0.491345, 1.510375, 35.603806, -113.428894, 104.842499, 13.727789, 100.772415
1759316223.633223, -0.179864, 7.724742, 4.360589, 2.864962, -2.572810, 1.061350, 37.051788, -111.519180, 104.208435, 13.727789, 100.772415
1759316223.653194, -1.265485, 7.529764, -0.734122, 3.549178, -3.663963, 0.585720, 39.457077, -109.416107, 102.211441, 13.727789, 100.772415
1759316223.673217, -0.903362, 5.981763, 1.876605, 4.299136, -2.362060, 0.523453, 40.747253, -106.983261, 100.742981, 13.727789, 100.772415
1759316223.693217, -1.528398, 3.440617, 2.547580, 4.976281, -2.553837, 0.362741, 41.978973, -104.399902, 98.301544, 13.727789, 100.772415
1759316223.713223, -2.761562, 0.556951, -1.532289, 4.896435, -2.542925, 0.354538, 43.484268, -102.507538, 95.060928, 13.727789, 100.772415
1759316223.733221, -4.471022, -3.942352, -9.619902, 3.349056, -2.347799, 0.407246, 44.582947, -101.043411, 93.561584, 13.727789, 100.772415
1759316223.753197, -3.357569, -0.995539, -7.366510, 2.228653, -1.064581, 0.203373, 45.005478, -100.417862, 91.127655, 13.727789, 100.772415
1759316223.773224, -2.396446, 3.708469, -5.129278, 1.614656, -0.481017, 0.070507, 45.740692, -100.163696, 90.626190, 13.727789, 100.772415
1759316223.792894, -2.697068, 5.712416, -6.377704, 0.992735, -0.196738, 0.125942, 45.788544, -99.922913, 90.379181, 13.727789, 100.772415
1759316223.813222, -3.211672, 3.790769, -7.219266, 0.159597, 0.214943, 0.140609, 45.883713, -99.812317, 89.556000, 13.727789, 100.772415
1759316223.833218, -2.476951, 1.704971, -8.809465, -0.743133, 0.124906, 0.246315, 46.120163, -100.114456, 90.202271, 13.727789, 100.772415
1759316223.853198, -1.707664, 2.280028, -9.702203, -1.794736, -0.062071, 0.266995, 46.575409, -100.729401, 92.441727, 13.727789, 100.772415
1759316223.873221, -2.052579, 3.201945, -8.733299, -2.764794, -0.093482, 0.267919, 46.509460, -101.815796, 93.829315, 13.727789, 100.772415
1759316223.893223, -2.534262, 4.167407, -7.202058, -2.982166, 0.799040, 0.247339, 46.386185, -102.956757, 96.155991, 13.727789, 100.772415
1759316223.913224, -2.022951, 4.890007, -8.032098, -2.962019, 1.863195, 0.430322, 45.566071, -104.499100, 97.607071, 13.727789, 100.772415
1759316223.933223, -0.971597, 4.495114, -8.673594, -3.200472, 2.846210, 0.147719, 43.995071, -106.360779, 99.933899, 13.727789, 100.772415
1759316223.953196, -1.621922, 10.141539, -10.610802, -2.827993, 3.496983, -0.936471, 42.346909, -108.281372, 101.335175, 13.727789, 100.772415
1759316223.973252, -4.591780, 26.141689, -5.594501, -1.219816, 0.937880, -2.435837, 41.423874, -109.338882, 102.018204, 13.727789, 100.772415
1759316223.992750, -8.308179, 22.443695, -4.799028, -2.947102, -0.344328, -1.962438, 39.501053, -110.244659, 104.893326, 13.727789, 100.772415
1759316224.013230, -4.809353, 6.754791, -1.290774, -3.509536, 1.100192, 0.138032, 38.976959, -110.635880, 105.017319, 13.727789, 100.772415
1759316224.033207, -1.803881, 1.713650, 0.870891, -3.231164, 1.246438, 0.490810, 37.863174, -113.639908, 107.019516, 13.727789, 100.772415
1759316224.052995, -0.654216, 2.523040, 0.474052, -3.045699, 0.570616, 0.121285, 37.914886, -114.370544, 107.426514, 13.727789, 100.772415
1759316224.073229, -1.132906, 6.805967, -2.445827, -2.776601, 0.322067, -0.207322, 37.886353, -116.498444, 108.407333, 13.727789, 100.772415
1759316224.092436, -2.590526, 12.570756, -4.022109, -2.566925, 1.140785, -0.481849, 37.198273, -118.747757, 109.865265, 13.727789, 100.772415
1759316224.113001, -1.678485, 14.749030, -4.510377, -3.117796, 1.943445, -0.519449, 35.456451, -120.762665, 109.679794, 13.727789, 100.772415
1759316224.133222, 0.046687, 10.207679, -3.573196, -3.021228, 2.594572, 0.307549, 33.392624, -122.488480, 111.295135, 13.727789, 100.772415
1759316224.152298, 0.053121, 6.218191, -1.256806, -2.568312, 2.512982, 0.708129, 31.547943, -124.087173, 110.570236, 13.727789, 100.772415
1759316224.173224, 0.280122, 4.409671, -0.223858, -2.178377, 1.872279, 0.654885, 30.057846, -125.213913, 110.395050, 13.727789, 100.772415
1759316224.192416, -0.005537, 3.726725, 0.553958, -1.876007, 1.082095, 0.362034, 29.469940, -126.640121, 111.129395, 13.727789, 100.772415
1759316224.212849, -0.034417, 5.679645, 1.083975, -1.593802, 0.169324, -0.069004, 29.516602, -127.657639, 110.535889, 13.727789, 100.772415
1759316224.233222, -0.150984, 8.186075, 1.306935, -1.276238, -0.698431, -0.155541, 30.114670, -128.822189, 110.943024, 13.727789, 100.772415
1759316224.253198, -0.058508, 9.020304, 1.354520, -1.080012, -1.447503, 0.055775, 31.458023, -129.518341, 110.904434, 13.727789, 100.772415
1759316224.273226, 0.294786, 9.616610, 0.809839, -0.925331, -2.065296, 0.390178, 33.041565, -130.230392, 111.678574, 13.727789, 100.772415
1759316224.293224, 0.316035, 9.502886, 0.132429, -0.874101, -2.395519, 0.617560, 34.711014, -130.789017, 112.564072, 13.727789, 100.772415
1759316224.312743, 0.170886, 9.052925, -0.635511, -1.012498, -2.285115, 0.651589, 36.452347, -131.423050, 112.121979, 13.727789, 100.772415
1759316224.333227, -1.654543, 8.958953, -3.135955, -0.855107, -1.820037, 0.371287, 37.832016, -131.809845, 112.332458, 13.727789, 100.772415
1759316224.353202, -2.324919, 10.593744, -3.984550, 0.546124, -1.240171, -0.289709, 38.686523, -131.587067, 112.968933, 13.727789, 100.772415
1759316224.373215, -1.132757, 13.729998, -4.825513, 0.797562, -0.631154, -0.537377, 39.547821, -131.661789, 112.276428, 13.727789, 100.772415
1759316224.393222, 1.358410, 13.729549, -7.674464, -0.275333, -0.654192, -0.477037, 39.574188, -131.802017, 113.262299, 13.727789, 100.772415
1759316224.413257, 1.564760, 13.951612, -6.946776, -0.302792, 0.243927, 0.129595, 38.813370, -132.087677, 111.747742, 13.727789, 100.772415
1759316224.433273, 1.062427, 13.422194, -2.788946, -0.301890, 1.445962, 0.796756, 37.800064, -132.326889, 112.280151, 13.727789, 100.772415
1759316224.453248, 0.950348, 13.887567, 1.332672, -0.745849, 1.512121, 0.903975, 36.901901, -132.932251, 112.191605, 13.727789, 100.772415
1759316224.472979, 0.473004, 15.574431, 3.286042, -0.931480, 0.263169, 0.504611, 37.298889, -133.300354, 112.034348, 13.727789, 100.772415
1759316224.493176, -0.743100, 18.996195, 2.446724, -0.084917, -1.104419, 0.021945, 38.194443, -132.702225, 113.034470, 13.727789, 100.772415
1759316224.513225, 0.161609, 14.887744, 1.256657, 0.916224, -1.496792, -0.058498, 38.788712, -132.019409, 112.348541, 13.727789, 100.772415
1759316224.533221, 0.735319, 11.049241, -0.019603, 1.412058, -0.871465, -0.287928, 39.354019, -130.691193, 113.390274, 13.727789, 100.772415
1759316224.553215, -0.979977, 11.196035, -3.506308, 2.174172, 0.366024, -0.590026, 38.659042, -128.929535, 112.362579, 13.727718, 100.772434
1759316224.573228, -2.576011, 12.158055, -4.951359, 4.694345, 1.527641, -1.423278, 36.983017, -125.413406, 111.783936, 13.727718, 100.772434
1759316224.593032, -2.983774, 13.643358, -4.748001, 6.995943, 1.531383, -2.351501, 35.694870, -121.023987, 110.537384, 13.727718, 100.772434
1759316224.612687, -3.433136, 12.496685, -1.113603, 4.965657, -0.947452, -1.692140, 35.494019, -117.818497, 108.581879, 13.727718, 100.772434
1759316224.633224, -3.079243, 7.320870, -1.357363, 2.302602, 0.384560, -0.605123, 34.487915, -115.870132, 109.089844, 13.727718, 100.772434
1759316224.652348, -1.193958, 4.562750, 0.101305, 0.658073, 2.411831, -0.274417, 32.232132, -115.378067, 107.848953, 13.727718, 100.772434
1759316224.672832, -0.043545, 6.909516, 0.406416, 1.061795, 2.903495, -0.023681, 30.373840, -114.723724, 106.594818, 13.727718, 100.772434
1759316224.692905, 0.378134, 9.464578, 3.006968, 2.382339, 2.327193, 0.494017, 29.437012, -113.005997, 105.614532, 13.727718, 100.772434
1759316224.713230, -0.094272, 10.068067, 3.853468, 3.103270, -0.171076, 0.559326, 29.836700, -110.814667, 103.794098, 13.727718, 100.772434
1759316224.733235, -0.070180, 10.334871, 3.591751, 4.251742, -2.636984, 0.811156, 32.283890, -107.856277, 102.213043, 13.727718, 100.772434
1759316224.753200, -0.686986, 7.546075, 0.813131, 5.164091, -3.931007, 1.260313, 34.944290, -104.686172, 100.503616, 13.727718, 100.772434
1759316224.773229, -0.055366, 2.329109, -1.266832, 5.333617, -3.768567, 1.186759, 37.498581, -102.134308, 97.653305, 13.727718, 100.772434
1759316224.792755, -1.185728, -1.044022, -7.222558, 4.221267, -3.944870, 0.605494, 39.248413, -100.615784, 96.565781, 13.727718, 100.772434
1759316224.812335, -1.649755, -0.432902, -7.461230, 2.796584, -2.220916, 0.153407, 39.741684, -99.798965, 94.014908, 13.727718, 100.772434
1759316224.833224, -3.278261, 1.978658, -5.225495, 1.914088, -0.776631, 0.053424, 40.438538, -99.242966, 93.362335, 13.727718, 100.772434
1759316224.852753, -4.295497, 3.320309, -6.848614, 1.368010, -0.971815, 0.147263, 40.827713, -98.948883, 92.740845, 13.727718, 100.772434
1759316224.872533, -3.471892, 5.147982, -6.697929, 0.708931, -0.939505, 0.042125, 40.999969, -98.798477, 91.986343, 13.727718, 100.772434
1759316224.892615, -2.785654, 4.805761, -5.287894, 0.014416, -0.542756, 0.041146, 41.148407, -98.920929, 93.368912, 13.727718, 100.772434
1759316224.912235, -2.248604, 2.151041, -6.721272, -0.522290, -0.144882, 0.209371, 41.041016, -99.249634, 93.088913, 13.727718, 100.772434
1759316224.933216, -2.216582, 1.460613, -7.624036, -1.414026, -0.214048, 0.198335, 41.227020, -99.891983, 94.246674, 13.727718, 100.772434
1759316224.953219, -2.166004, 3.283797, -6.594080, -1.809265, -0.190462, 0.173643, 41.367004, -100.578857, 95.083786, 13.727718, 100.772434
1759316224.972466, -2.142062, 3.973477, -6.397307, -1.895528, -0.055982, 0.235127, 41.663834, -100.885117, 96.046432, 13.727718, 100.772434
1759316224.992613, -2.778770, 5.196615, -7.542932, -1.982200, 0.653839, 0.358837, 41.606995, -101.892365, 97.541031, 13.727718, 100.772434
1759316225.013240, -3.002329, 5.858462, -9.004443, -2.367767, 1.632183, 0.557458, 41.047638, -103.146133, 98.376022, 13.727718, 100.772434
1759316225.033220, -2.096423, 9.630527, -15.257948, -3.228988, 2.938603, -0.225381, 39.860397, -105.114563, 101.365967, 13.727718, 100.772434
1759316225.053208, -3.986795, 26.278907, -12.796709, -0.985523, 2.919211, -0.735393, 38.614410, -107.236298, 100.714462, 13.727718, 100.772434
1759316225.072204, -5.901857, 27.452964, -2.554912, -1.876092, 0.724629, -1.230148, 36.866760, -108.127106, 102.607681, 13.727718, 100.772434
1759316225.092416, -6.064064, 14.507216, -4.618864, -3.270511, -0.016604, -0.872213, 35.585495, -109.326324, 104.878891, 13.727718, 100.772434
1759316225.113309, -0.658705, -0.102352, 0.892439, -2.735620, 0.618285, 0.349117, 34.889328, -110.469238, 105.795334, 13.727718, 100.772434
1759316225.133231, 0.583437, -0.084994, -1.020528, -2.706389, -0.261199, 0.182196, 34.987152, -112.484299, 107.961945, 13.727718, 100.772434
1759316225.152776, -0.063147, 3.810671, -3.279757, -2.525315, -0.660524, -0.028548, 35.442261, -114.347229, 107.929901, 13.727718, 100.772434
1759316225.173225, -2.739266, 10.904092, -4.493917, -2.287424, -0.233693, -0.423467, 35.880798, -116.522400, 108.608688, 13.727718, 100.772434
1759316225.192285, -4.551677, 16.240768, -6.800730, -2.915773, 1.004521, -0.692894, 35.029144, -118.579330, 109.919601, 13.727718, 100.772434
1759316225.213229, -2.486079, 12.195315, -5.031714, -3.414925, 2.437318, -0.182917, 32.767242, -120.791733, 109.852219, 13.727718, 100.772434
1759316225.233282, -0.916530, 8.113201, -1.830517, -3.121503, 2.809799, 0.474626, 30.717758, -122.793060, 110.685379, 13.727718, 100.772434
1759316225.253202, -0.158466, 5.317821, 0.343418, -2.898538, 2.418648, 1.015852, 28.954422, -124.694641, 110.977554, 13.727718, 100.772434
1759316225.273237, 0.016011, 2.806753, 1.315015, -2.943362, 1.707855, 1.139677, 27.595200, -126.609879, 110.597382, 13.727718, 100.772434
1759316225.293235, 0.034117, 3.279308, 1.077391, -2.769675, 0.940254, 0.914373, 26.954071, -128.385971, 111.333145, 13.727718, 100.772434
1759316225.313231, 0.085892, 5.448006, 1.417068, -1.847505, 0.358436, 0.600784, 26.763474, -129.837112, 110.686401, 13.727718, 100.772434
1759316225.333227, 0.512359, 8.673444, 2.226159, -0.819564, -0.409865, 0.217901, 27.191666, -130.602982, 111.267761, 13.727718, 100.772434
1759316225.353203, 0.841712, 11.317990, 1.913416, -0.157310, -1.281263, 0.170189, 28.184784, -130.841217, 111.785095, 13.727718, 100.772434
1759316225.372441, 0.827346, 12.333879, 0.612018, 0.040171, -1.966213, 0.297598, 29.675735, -131.233109, 111.641739, 13.727718, 100.772434
1759316225.392783, 0.693421, 11.081862, -0.778415, -0.473360, -2.218256, 0.459752, 31.380600, -131.390854, 112.629913, 13.727718, 100.772434
1759316225.413228, 0.174627, 9.348310, -1.341501, -1.389545, -2.075200, 0.709250, 32.760315, -132.228210, 112.518066, 13.727718, 100.772434
1759316225.433235, -1.724723, 7.934534, -4.004901, -1.274656, -1.999298, 0.561154, 34.277588, -133.005020, 112.890228, 13.727718, 100.772434
1759316225.453209, -1.893065, 9.745299, -3.997419, 0.083477, -1.908692, -0.168342, 35.871399, -133.154144, 113.981842, 13.727718, 100.772434
1759316225.473251, -0.614412, 11.046398, -4.316895, -0.159972, -1.031031, -0.258389, 36.434631, -133.493439, 113.593781, 13.727718, 100.772434
1759316225.492531, 0.669628, 12.134263, -4.884620, -0.686509, 0.074892, -0.146453, 36.558960, -133.593369, 113.859619, 13.727718, 100.772434
1759316225.513228, 1.363348, 14.200459, -4.683807, -0.523498, 1.118935, 0.232130, 35.673782, -134.236282, 113.278427, 13.727718, 100.772434
1759316225.533218, 1.504456, 14.960319, -2.254440, -0.259784, 1.916681, 0.645605, 34.206711, -134.677231, 113.973770, 13.727718, 100.772434
1759316225.553205, 1.174356, 15.331570, 0.947056, -0.265192, 2.145584, 0.729880, 32.260864, -135.001511, 113.093613, 13.727718, 100.772434
1759316225.573243, 0.753425, 17.410036, 4.708048, -0.146398, 1.357646, 0.393219, 31.071671, -135.244904, 112.781708, 13.727718, 100.772434
1759316225.593241, -0.378134, 19.184588, 4.863671, -0.115359, -0.708123, 0.097827, 31.531342, -135.333374, 113.612183, 13.727718, 100.772434
1759316225.613240, -0.602740, 13.840281, 3.466804, 0.225295, -1.478857, -0.193454, 32.365051, -135.228165, 113.539658, 13.727718, 100.772434
1759316225.633218, -0.023792, 10.118495, 1.884386, 1.041181, -1.333150, -0.556896, 33.575012, -134.333221, 114.673523, 13.727718, 100.772434
1759316225.653206, -0.899621, 10.565762, -1.924639, 1.739767, -0.738886, -0.890619, 34.221359, -132.814316, 114.484955, 13.727718, 100.772434
1759316225.673248, -2.289006, 11.893346, -5.117456, 5.232628, -0.232435, -2.043696, 34.816391, -129.348343, 114.897461, 13.727718, 100.772434
1759316225.693244, -2.392107, 13.083265, -5.792771, 7.525273, 0.018257, -2.917850, 34.983719, -123.892487, 114.527313, 13.727718, 100.772434
1759316225.713243, -3.005022, 12.276119, -3.787477, 6.328883, -0.374015, -1.871687, 35.314468, -119.022034, 112.267151, 13.727718, 100.772434
1759316225.733234, -1.697190, 5.937919, -4.560056, 2.887248, -0.478106, -0.385756, 35.202454, -116.356308, 112.168976, 13.727718, 100.772434
1759316225.753212, -0.480786, 3.827730, 1.057190, 1.191170, 1.717444, -0.755587, 33.966797, -115.298492, 112.070724, 13.727718, 100.772434
1759316225.773262, 0.506972, 5.750573, 1.840991, 0.120819, 1.432936, -0.714792, 32.633392, -115.010880, 111.614502, 13.727718, 100.772434
1759316225.793234, 0.586579, 9.467721, -0.399532, 1.349895, 1.985979, 0.291310, 31.701096, -113.520920, 111.511932, 13.727718, 100.772434
1759316225.813236, 0.173580, 10.214712, 4.634127, 2.811231, 0.713151, 0.735557, 31.646698, -111.166412, 109.282806, 13.727718, 100.772434
1759316225.833240, -0.874482, 8.760534, 4.296245, 3.900667, -2.619345, 0.494578, 33.792282, -108.445099, 107.910400, 13.727718, 100.772434
1759316225.853213, -0.636708, 8.897751, 0.576254, 5.038438, -2.863976, 0.586814, 35.893112, -104.670853, 106.385040, 13.727718, 100.772434
1759316225.873268, -1.445799, 4.217386, 2.496404, 5.842446, -2.706803, 0.682838, 37.897049, -101.395767, 102.238571, 13.727718, 100.772434
1759316225.893279, -2.688688, -0.361225, -4.608988, 5.101649, -3.874599, 0.386724, 40.475204, -98.819443, 100.259216, 13.727718, 100.772434
1759316225.913227, -2.873192, -0.619649, -9.786898, 3.600531, -2.994298, 0.298310, 41.809326, -97.182907, 97.060791, 13.727718, 100.772434
1759316225.933215, -3.346196, 0.304213, -7.846846, 2.243391, -0.812113, 0.396131, 42.543716, -96.384964, 95.545761, 13.727718, 100.772434
1759316225.953213, -5.010615, 1.900846, -7.732822, 1.258409, -0.400576, 0.182901, 42.844604, -96.000977, 94.775864, 13.727718, 100.772434
1759316225.973243, -4.916792, 4.361188, -7.707833, 0.285547, -0.515438, -0.137812, 43.234299, -95.828415, 93.979568, 13.727718, 100.772434
1759316225.993224, -3.276016, 4.792144, -7.275231, -0.784623, -0.506350, -0.052689, 43.397369, -96.110092, 95.836441, 13.727718, 100.772434
1759316226.013239, -2.361581, 2.284966, -4.736329, -1.153968, -0.254063, 0.211548, 43.466629, -96.506546, 95.966110, 13.727718, 100.772434
1759316226.033243, -2.225710, 1.337760, -5.379322, -1.023626, 0.012767, 0.362082, 43.757568, -96.899399, 97.641434, 13.727718, 100.772434
1759316226.053213, -1.782932, 1.372775, -7.786243, -1.644264, 0.193084, 0.520620, 44.186386, -97.824539, 98.091507, 13.727718, 100.772434
1759316226.073238, -2.151340, 2.394950, -10.844836, -2.551063, 1.035124, 0.643373, 44.483521, -98.935364, 99.592972, 13.727718, 100.772434
1759316226.093246, -2.800318, 4.661211, -12.639290, -2.951276, 2.413244, 0.643074, 44.069351, -100.551208, 102.507767, 13.727718, 100.772434
1759316226.113244, -2.464382, 4.979341, -10.196606, -3.509085, 2.723348, -0.098892, 42.534882, -102.600159, 103.899490, 13.727718, 100.772434
1759316226.133246, -3.412186, 16.975788, -14.493300, -1.915982, 2.861717, -1.542191, 40.942825, -104.787155, 105.483566, 13.727718, 100.772434
1759316226.153208, -7.176619, 29.202078, 0.203507, -1.865176, -0.227065, -1.590458, 39.985443, -105.841690, 105.912674, 13.727718, 100.772434
1759316226.173238, -7.117962, 12.358420, -4.636820, -3.933898, 1.286673, -0.283689, 37.824249, -107.294968, 108.290482, 13.727718, 100.772434
1759316226.193178, -2.554912, 2.579453, 0.769137, -3.411101, 2.605441, 0.131266, 36.322159, -109.265884, 110.504318, 13.727718, 100.772434
1759316226.213245, -1.263390, 1.584363, -1.146823, -2.801627, 1.607361, 0.306263, 35.539215, -110.899155, 111.007614, 13.727718, 100.772434
1759316226.233247, -0.912490, 4.533122, -1.192462, -1.993307, 0.475258, -0.005777, 35.734024, -112.534988, 111.544998, 13.727718, 100.772434
1759316226.253165, -2.417545, 10.123732, -3.453037, -2.751850, -0.847107, -0.808225, 35.906937, -114.901047, 113.453323, 13.727718, 100.772434
1759316226.273232, -3.135357, 13.978995, -4.131045, -3.372492, -0.493484, -0.698386, 35.967957, -117.547333, 113.624176, 13.727718, 100.772434
1759316226.293000, -1.316811, 11.519402, -3.867234, -3.786368, 0.677635, -0.020471, 35.367645, -120.142914, 115.391525, 13.727718, 100.772434
1759316226.313250, -0.543633, 8.199991, -2.985121, -3.135062, 1.561909, 0.556978, 33.993164, -122.332657, 115.488770, 13.727718, 100.772434
1759316226.333245, -0.142904, 6.440702, -0.879420, -2.526608, 1.926267, 0.882035, 32.535339, -124.387726, 115.429306, 13.727718, 100.772434
1759316226.353214, 0.096217, 4.639364, 0.853832, -2.506914, 1.618248, 0.932869, 31.495728, -126.146118, 116.482132, 13.727718, 100.772434
1759316226.373250, 0.178667, 4.205266, 1.416619, -2.639269, 0.962827, 0.807881, 30.951385, -128.053391, 115.814377, 13.727718, 100.772434
1759316226.392803, 0.202759, 5.262904, 1.772906, -2.398803, 0.284262, 0.673695, 30.893890, -128.575272, 116.382706, 13.727718, 100.772434
1759316226.413243, 0.155025, 7.156718, 1.859397, -1.779209, -0.369015, 0.458616, 31.261612, -130.106293, 116.084091, 13.727711, 100.772436
1759316226.433232, 0.165200, 9.521740, 1.795053, -0.841312, -1.044209, 0.193900, 32.157730, -131.082214, 117.012726, 13.727711, 100.772436
1759316226.453216, 0.322619, 11.616367, 1.264438, -0.112843, -1.661826, 0.159692, 33.630844, -131.511551, 116.461349, 13.727711, 100.772436
1759316226.473247, 0.309899, 12.205191, -0.141557, -0.000737, -1.993085, 0.327083, 35.242981, -131.674179, 116.836868, 13.727711, 100.772436
1759316226.492627, -0.797868, 9.625588, -2.925714, -0.102876, -1.914453, 0.233967, 36.832565, -131.790390, 117.033096, 13.727711, 100.772436
1759316226.513246, -1.506701, 8.787319, -4.597765, 0.443061, -1.650016, -0.117850, 38.287109, -131.635941, 116.591843, 13.727711, 100.772436
1759316226.533244, -0.739359, 9.978584, -5.038448, 0.141915, -0.868224, -0.076814, 39.281754, -131.389801, 117.790833, 13.727711, 100.772436
1759316226.552785, -0.000898, 10.897358, -3.921403, -0.849310, 0.288779, 0.073568, 38.990891, -132.183289, 116.798798, 13.727711, 100.772436
1759316226.573231, 0.281468, 12.923901, -2.217031, -1.444426, 1.125237, 0.225474, 38.302765, -133.387939, 116.662827, 13.727711, 100.772436
1759316226.592455, 0.362123, 16.556353, -0.792181, -1.352661, 1.392981, 0.473567, 37.094543, -134.552567, 117.151215, 13.727711, 100.772436
1759316226.613243, 0.319177, 18.628834, 0.733075, -0.639228, 0.989955, 0.573896, 36.300858, -134.812195, 116.083511, 13.727711, 100.772436
1759316226.633249, -0.521038, 16.920272, 0.974739, 0.391359, 0.132413, 0.373114, 36.275818, -134.393448, 116.186523, 13.727711, 100.772436
1759316226.653217, -1.664269, 16.373945, -0.137367, 1.146135, -0.749926, 0.076532, 37.082687, -132.952545, 116.196442, 13.727711, 100.772436
1759316226.673186, -1.523161, 13.521404, -0.815226, 1.728367, -1.360238, -0.360679, 38.133652, -131.170761, 116.343704, 13.727711, 100.772436
1759316226.692313, -0.964564, 10.735301, -2.785953, 2.124463, -0.907910, -0.841150, 38.618729, -129.066147, 117.001129, 13.727711, 100.772436
1759316226.713245, -1.936311, 11.194539, -4.632182, 2.984774, 0.424012, -1.104644, 37.786179, -126.192642, 115.716095, 13.727711, 100.772436
1759316226.733244, -2.018312, 12.630162, -4.859032, 4.835824, 1.393080, -1.576138, 36.797272, -122.104187, 114.602493, 13.727711, 100.772436
1759316226.752445, -1.789666, 15.292813, -3.922451, 6.044715, 1.222921, -1.336555, 36.091431, -117.740906, 113.591537, 13.727711, 100.772436
1759316226.773036, -1.718887, 11.289858, -4.269759, 4.320505, -0.260748, -0.183470, 35.555038, -114.375961, 111.314362, 13.727711, 100.772436
1759316226.793249, -0.877475, 6.000767, 0.608726, 1.882616, 1.853829, -0.563305, 33.732254, -113.372528, 111.661148, 13.727711, 100.772436
1759316226.812397, -0.229694, 5.711368, 6.066757, -0.106626, 1.142439, -0.895354, 32.723862, -113.655563, 110.833755, 13.727711, 100.772436
1759316226.833232, 0.358532, 8.801833, -0.968455, -0.303303, 0.011240, -0.280570, 32.311295, -113.205673, 110.487152, 13.727711, 100.772436
1759316226.853210, -0.074968, 9.115175, 1.621473, 2.185515, 0.959486, 0.633811, 32.323898, -111.021820, 109.805267, 13.727711, 100.772436
1759316226.872883, -0.755670, 7.844602, 5.926697, 3.104816, -0.807797, 0.441485, 32.956604, -109.471954, 107.892731, 13.727711, 100.772436
1759316226.893245, -0.781557, 8.131457, 0.975787, 4.025909, -2.375943, 0.271288, 34.320374, -106.822876, 107.022873, 13.727711, 100.772436
1759316226.913241, -0.553659, 7.057508, 3.100641, 5.288535, -1.920582, 0.769580, 35.781509, -103.430984, 103.509720, 13.727711, 100.772436
1759316226.933243, -1.476624, 3.266140, 3.942203, 5.951150, -3.061847, 0.661282, 37.671967, -99.995575, 101.275909, 13.727711, 100.772436
1759316226.952493, -3.269731, 0.925658, -3.779696, 5.619210, -3.785272, 0.473081, 40.256226, -97.715744, 97.198532, 13.727711, 100.772436
1759316226.972733, -3.840748, -1.542764, -11.126005, 3.568433, -3.482449, 0.619274, 42.241333, -96.113678, 94.454590, 13.727711, 100.772436
1759316226.993233, -3.847781, -0.358532, -8.891466, 1.948565, -1.053302, 0.466828, 42.874481, -95.486374, 93.491196, 13.727711, 100.772436
1759316227.013246, -5.791275, 3.887735, -6.777985, 0.995179, -0.118174, 0.163025, 43.206635, -95.224487, 92.290939, 13.727711, 100.772436
1759316227.033235, -5.400122, 5.526266, -6.657377, 0.289305, -0.162726, -0.182793, 42.949539, -95.378922, 93.098816, 13.727704, 100.772439
1759316227.053213, -1.775001, 2.254440, -8.368782, -0.535812, -0.261129, -0.060570, 43.059113, -95.511902, 92.533737, 13.727704, 100.772439
1759316227.072581, -0.862960, 1.582867, -10.401908, -1.656636, -0.302054, -0.061818, 43.169525, -96.051163, 93.780457, 13.727704, 100.772439
1759316227.093240, -1.171214, 2.664447, -6.162376, -2.209206, 0.223775, 0.034454, 42.815109, -96.731613, 96.289673, 13.727704, 100.772439
1759316227.113247, -2.265513, 3.890877, -3.789572, -2.115816, 0.501304, 0.300795, 42.723328, -97.823853, 96.984833, 13.727704, 100.772439
1759316227.133247, -2.894590, 4.362984, -6.725013, -2.272305, 0.974500, 0.681868, 42.794022, -99.046967, 98.430862, 13.727704, 100.772439
1759316227.153215, -2.888006, 3.775656, -10.367941, -2.922308, 1.902309, 0.662420, 42.062576, -100.440277, 101.260193, 13.727704, 100.772439
1759316227.172427, -2.627187, 8.349329, -14.185046, -2.425889, 3.746006, -0.121794, 40.262131, -102.152084, 101.035614, 13.727704, 100.772439
1759316227.193237, -5.148731, 23.748086, -9.897480, -0.706873, 0.768429, -1.631202, 39.849503, -103.427338, 102.109207, 13.727704, 100.772439
1759316227.213285, -6.047753, 24.435970, -6.941389, -2.333761, -0.825926, -1.061110, 38.589035, -104.029724, 103.539703, 13.727704, 100.772439
1759316227.232772, -2.748095, 6.271611, -1.344195, -3.214880, 1.966832, 0.303891, 37.002899, -105.179993, 104.914032, 13.727704, 100.772439
1759316227.253214, -1.146523, 0.524480, 0.896629, -3.131178, 2.366429, 0.206198, 35.693726, -106.983490, 107.308395, 13.727704, 100.772439
1759316227.273234, -0.174777, 0.893037, -1.230320, -2.819224, 1.210857, 0.030158, 35.254578, -108.850739, 107.683319, 13.727704, 100.772439
1759316227.293226, -0.941520, 5.057003, -3.582624, -2.288123, 0.280809, -0.158744, 35.102646, -110.866882, 109.370148, 13.727704, 100.772439
1759316227.313246, -3.524863, 11.541548, -5.484368, -2.470414, 0.315764, -0.938724, 34.599518, -113.018997, 109.364471, 13.727704, 100.772439
1759316227.332263, -4.354454, 16.046538, -5.572055, -3.120415, 1.308733, -1.001276, 33.720963, -113.868927, 110.162369, 13.727704, 100.772439
1759316227.353217, -1.579275, 12.309189, -3.788226, -3.776145, 2.019469, -0.436084, 30.743927, -117.629730, 111.821533, 13.727704, 100.772439
1759316227.373242, -0.488567, 8.256853, -1.372177, -3.406445, 2.161622, 0.253953, 30.180344, -118.303055, 110.737259, 13.727704, 100.772439
1759316227.393092, 0.149488, 5.583578, 0.572214, -2.880143, 1.803764, 0.763606, 28.745102, -120.098602, 112.331268, 13.727704, 100.772439
1759316227.413244, 0.511910, 3.763086, 1.397765, -2.562319, 1.106357, 1.023169, 28.087753, -121.560059, 112.008820, 13.727704, 100.772439
1759316227.433235, 0.460884, 4.026898, 1.515829, -2.292096, 0.367287, 1.004442, 28.124435, -123.196350, 113.309402, 13.727704, 100.772439
1759316227.452768, 0.401178, 5.991789, 1.900996, -1.868286, -0.280336, 0.682298, 28.399704, -124.801453, 113.013611, 13.727704, 100.772439
1759316227.473248, 0.609474, 8.829816, 2.205060, -1.273591, -0.948003, 0.277167, 29.463531, -125.567566, 112.886337, 13.727704, 100.772439
1759316227.492740, 0.714520, 10.696545, 1.818695, -0.667795, -1.588360, 0.030512, 30.768967, -126.092087, 114.072250, 13.727704, 100.772439
1759316227.513243, 0.563086, 11.141717, 0.697162, -0.382836, -2.044871, 0.098763, 32.327301, -126.658173, 113.977478, 13.727704, 100.772439
1759316227.533239, 0.235829, 10.478523, -0.707936, -0.574845, -2.146863, 0.353063, 34.137558, -126.803970, 114.396088, 13.727704, 100.772439
1759316227.553228, -0.930596, 8.537723, -3.214365, -0.541591, -1.977191, 0.322263, 35.477524, -127.012146, 114.211182, 13.727704, 100.772439
1759316227.573242, -1.480215, 9.319430, -4.488679, 0.087131, -1.701311, -0.032190, 36.897903, -126.945419, 114.011505, 13.727704, 100.772439
1759316227.593238, -0.768988, 10.579229, -4.966622, -0.128350, -1.060910, -0.104657, 37.658340, -127.482529, 115.368927, 13.727704, 100.772439
1759316227.613245, 0.306308, 10.661679, -4.347870, -0.967896, -0.155959, 0.056243, 37.411011, -128.290497, 114.917923, 13.727704, 100.772439
1759316227.633232, 0.551115, 11.707945, -3.394828, -1.261366, 0.691387, 0.276131, 36.694458, -129.122589, 114.621841, 13.727704, 100.772439
1759316227.652769, 0.884807, 14.219912, -1.855057, -1.039047, 1.303086, 0.547548, 35.702744, -129.909195, 115.076035, 13.727704, 100.772439
1759316227.673246, 0.987907, 16.565032, 0.179565, -0.717412, 1.380631, 0.651682, 34.542389, -130.093140, 114.102570, 13.727704, 100.772439
1759316227.693238, 0.722151, 16.611719, 1.918803, -0.064959, 0.637163, 0.432163, 34.565826, -129.742249, 115.087082, 13.727704, 100.772439
1759316227.713278, -0.424672, 15.963489, 2.410811, 0.561123, -0.765310, 0.192371, 35.500381, -129.096848, 114.521362, 13.727704, 100.772439
1759316227.733305, -1.198448, 14.686781, 1.297957, 0.544600, -1.879743, 0.165419, 36.923553, -128.246597, 114.292542, 13.727704, 100.772439
1759316227.753210, -1.466748, 11.591976, -1.720982, 0.878483, -1.921821, -0.462417, 37.926895, -127.083939, 115.006638, 13.727704, 100.772439
1759316227.773242, -0.579696, 11.672930, -2.886659, 1.931536, -0.231720, -1.002071, 37.147736, -125.150925, 113.733597, 13.727704, 100.772439
1759316227.793250, -0.816123, 12.983007, -3.757999, 3.611447, 0.804906, -1.163205, 36.244461, -121.243073, 113.557251, 13.727704, 100.772439
1759316227.813226, -1.273865, 13.998448, -5.165939, 5.811861, 1.109704, -1.595612, 35.213608, -116.598068, 110.217972, 13.727704, 100.772439
1759316227.833240, -1.197101, 14.990396, -2.430115, 6.761332, 0.999384, -1.643120, 34.798737, -113.997421, 109.902008, 13.727704, 100.772439
1759316227.853217, -2.394651, 9.605387, -3.418770, 4.612331, -0.624264, -0.859849, 34.456741, -110.882355, 107.463852, 13.727704, 100.772439
1759316227.873247, -1.031901, 6.052991, 0.846201, 1.931896, 0.383783, -1.178009, 33.174149, -109.495132, 105.836594, 13.727704, 100.772439
1759316227.893241, -0.870891, 5.963507, 2.532467, 0.489432, 1.041905, -1.250649, 31.822708, -109.309250, 106.056351, 13.727704, 100.772439
1759316227.913255, -0.384718, 9.415797, 3.258209, 0.208088, 0.574202, -0.406896, 31.457794, -108.986496, 104.744019, 13.727704, 100.772439
1759316227.933246, 0.039205, 11.108796, -0.866851, 2.622521, 0.795394, 0.675360, 31.455292, -107.119232, 103.870911, 13.727704, 100.772439
1759316227.953215, -0.416142, 9.680954, 8.078485, 4.488298, -2.797403, 0.773323, 32.797455, -104.232391, 100.925446, 13.727704, 100.772439
1759316227.973252, -0.950498, 8.472331, -0.572813, 4.973380, -3.010846, 0.710065, 34.585739, -101.365234, 98.365112, 13.727704, 100.772439
1759316227.993248, -1.324293, 3.151518, 2.543839, 6.237241, -2.997797, 0.655792, 36.191818, -98.624344, 95.285904, 13.727704, 100.772439
1759316228.013249, -2.816629, 0.903512, -2.350507, 5.694323, -4.186046, 0.628090, 38.070465, -96.737747, 91.232468, 13.727704, 100.772439
1759316228.033241, -2.945167, -1.945887, -8.736143, 4.123987, -3.942276, 0.453722, 39.297791, -95.434586, 88.539673, 13.727702, 100.772439
1759316228.053231, -3.241300, -3.404555, -7.966856, 1.971985, -0.569013, 0.314228, 39.823257, -95.023407, 86.892288, 13.727702, 100.772439
1759316228.073229, -5.654356, 0.771681, -6.184971, 1.386372, -0.227975, -0.272166, 39.938919, -95.024948, 85.589340, 13.727702, 100.772439
1759316228.093241, -4.657770, 4.866365, -7.013963, 0.636249, -0.269299, -0.400799, 39.537979, -94.939148, 85.823578, 13.727702, 100.772439
1759316228.113249, -3.194912, 4.274997, -6.227917, -0.206196, 0.083732, -0.205269, 39.232208, -94.916702, 85.423325, 13.727702, 100.772439
1759316228.133139, -3.368342, 2.473061, -5.412392, -0.738247, 0.089738, -0.125755, 38.773834, -95.084991, 85.665344, 13.727702, 100.772439
1759316228.153216, -2.094926, 1.335965, -7.025785, -1.138703, 0.090315, 0.173900, 38.969955, -95.297729, 86.892578, 13.727702, 100.772439
1759316228.173238, -1.641375, 0.701052, -10.336816, -2.056965, 0.144904, 0.177404, 39.144257, -95.958496, 87.625626, 13.727702, 100.772439
1759316228.193247, -2.354398, 2.308908, -7.484723, -2.815964, 0.768474, 0.105206, 38.539047, -96.806259, 90.547806, 13.727702, 100.772439
1759316228.213300, -3.695450, 5.165789, -4.822970, -2.635149, 1.562972, 0.177905, 38.450867, -97.994858, 91.587311, 13.727702, 100.772439
1759316228.233255, -3.447800, 8.900744, -10.229227, -2.043459, 2.101554, 0.586019, 38.257523, -98.958069, 93.255280, 13.727702, 100.772439
1759316228.253218, -2.233192, 8.326884, -9.885659, -1.898723, 2.045526, 0.770360, 38.158875, -99.433426, 94.604416, 13.727702, 100.772439
1759316228.273045, -1.333121, 6.605004, -11.225963, -3.711304, 0.955501, -0.256447, 37.262848, -101.091705, 96.125229, 13.727702, 100.772439
1759316228.293221, -0.268001, 21.908142, -16.562040, -1.063327, 2.414007, -0.385129, 36.879272, -102.236862, 96.224426, 13.727702, 100.772439
1759316228.313234, -4.334852, 17.635989, 2.622848, -2.828731, 0.148053, -0.800807, 36.019791, -102.261169, 96.527557, 13.727702, 100.772439
1759316228.333252, -3.816208, 7.418883, -4.790498, -3.224401, 1.012704, 0.019302, 34.776291, -103.133392, 99.642883, 13.727702, 100.772439
1759316228.352799, -1.649156, 1.215506, -0.129586, -1.845937, 1.062714, 1.017590, 34.225006, -104.064896, 99.322235, 13.727702, 100.772439
1759316228.372978, -0.795025, 1.509544, -2.767996, -2.133334, -0.695174, 0.428358, 34.716293, -105.216965, 100.433945, 13.727702, 100.772439
1759316228.393248, -2.362478, 6.263232, -5.345803, -2.563290, -0.372742, -0.287375, 35.322922, -106.876953, 102.411880, 13.727702, 100.772439
1759316228.413246, -4.699668, 12.209082, -6.032191, -2.796113, 1.173997, -0.952061, 34.285004, -108.810684, 103.257294, 13.727702, 100.772439
1759316228.432667, -4.180126, 14.116812, -5.721394, -3.365644, 2.128772, -0.827138, 32.619431, -110.779297, 105.264587, 13.727702, 100.772439
1759316228.453220, -1.652448, 10.018836, -3.989787, -3.465347, 2.817715, -0.270178, 30.887878, -112.687302, 104.769913, 13.727702, 100.772439
1759316228.473244, -0.771382, 7.005584, -1.077840, -3.360622, 2.674290, 0.057958, 28.880859, -114.661972, 105.892731, 13.727702, 100.772439
1759316228.493249, -0.126294, 5.039645, 0.473902, -3.378710, 2.095679, 0.363247, 27.518494, -116.156403, 107.006302, 13.727702, 100.772439
1759316228.513254, 0.235230, 4.721515, 0.993594, -3.368456, 1.361125, 0.658095, 26.629044, -118.338577, 106.703186, 13.727702, 100.772439
1759316228.533253, 0.154127, 5.283255, 1.520917, -3.004702, 0.519654, 0.773610, 26.243866, -120.120743, 106.559998, 13.727702, 100.772439
1759316228.553219, 0.174926, 7.318027, 2.150891, -2.215039, -0.212541, 0.624146, 26.506561, -121.263992, 107.885315, 13.727702, 100.772439
1759316228.573244, 0.774824, 9.642498, 3.357718, -1.176349, -1.037291, 0.406256, 27.094238, -122.238113, 108.197296, 13.727702, 100.772439
1759316228.593242, 0.903661, 10.805182, 2.748095, -0.201160, -2.011256, 0.223728, 28.672867, -122.197433, 108.887619, 13.727702, 100.772439
1759316228.612779, 0.367061, 11.252748, 0.615160, 0.255543, -2.481138, 0.242515, 30.352097, -122.416580, 108.789886, 13.727702, 100.772439
1759316228.633246, -0.324115, 9.861866, -2.412607, 0.100357, -2.327651, 0.469745, 32.010849, -122.045898, 109.333969, 13.727702, 100.772439
1759316228.653216, -1.109114, 8.249820, -4.769250, 0.339734, -1.540209, 0.298212, 33.146194, -121.674164, 109.419601, 13.727702, 100.772439
1759316228.673260, -0.674716, 7.994090, -4.493917, -0.404612, -0.855962, 0.367913, 33.374023, -121.990173, 109.407471, 13.727702, 100.772439
1759316228.693248, 0.131980, 9.072678, -2.901323, -1.064429, 0.222875, 0.402688, 33.150391, -122.785645, 110.386337, 13.727702, 100.772439
1759316228.713259, 0.506673, 10.336068, -0.824952, -1.173313, 1.215328, 0.521878, 32.277206, -123.643555, 109.230087, 13.727702, 100.772439
1759316228.732991, 0.330250, 10.938060, 0.544082, -0.967494, 1.678950, 0.516101, 30.993179, -124.032700, 108.971924, 13.727702, 100.772439
1759316228.753060, 0.228048, 10.040982, 1.352724, -0.507305, 1.615925, 0.323395, 29.866806, -124.094543, 109.200760, 13.727702, 100.772439
1759316228.772245, 0.388160, 10.149619, 1.415123, -0.003355, 1.195396, 0.113391, 29.451141, -123.957687, 108.500275, 13.727702, 100.772439
1759316228.792669, 0.152481, 13.083564, 1.028010, 0.207884, 0.651948, -0.043138, 28.997925, -124.063156, 108.525665, 13.727702, 100.772439
1759316228.813284, 0.250044, 15.950920, 0.477194, -0.240350, -0.074900, -0.079494, 28.849670, -124.318008, 107.793198, 13.727702, 100.772439
1759316228.833251, 0.227150, 16.255133, 1.120187, -0.965717, -1.498770, 0.004929, 29.382568, -124.790573, 109.011948, 13.727702, 100.772439
1759316228.852909, -0.903961, 15.358355, 0.963666, -0.642902, -2.887461, 0.194703, 31.062958, -125.375961, 108.688828, 13.727702, 100.772439
1759316228.873240, -1.449988, 14.771177, -1.211765, -0.102979, -2.955084, 0.077013, 32.981674, -125.580597, 109.361633, 13.727702, 100.772439
1759316228.892480, -0.382025, 12.023232, -1.409886, 0.213989, -0.967500, -0.278358, 33.829224, -125.603317, 110.190918, 13.727702, 100.772439
1759316228.913230, 0.298976, 10.228778, -0.584484, 0.463334, 0.535237, -0.541644, 33.233139, -125.098663, 109.790054, 13.727702, 100.772439
1759316228.932686, -0.462380, 10.513089, -1.421557, 1.081842, 1.302875, -0.912728, 32.361526, -124.755844, 109.770599, 13.727702, 100.772439
1759316228.952757, -0.399233, 12.453141, -1.092953, 2.031303, 1.614367, -1.036796, 31.290207, -123.457672, 108.643478, 13.727702, 100.772439
1759316228.972309, -0.321272, 11.754333, -1.707066, 3.192230, 1.654845, -0.900682, 29.904602, -121.600983, 107.694778, 13.727702, 100.772439
1759316228.993252, -0.404022, 8.595034, -1.222988, 3.338142, 2.138231, -0.733204, 28.144562, -119.461609, 107.141418, 13.727702, 100.772439
1759316229.013249, -0.635212, 6.296750, 1.725471, 2.897064, 2.316990, -0.723909, 26.350723, -117.745407, 105.450897, 13.727702, 100.772439
1759316229.032415, -1.346589, 6.434567, 3.378219, 1.490438, 1.328992, -1.001333, 25.436935, -117.217178, 104.379257, 13.727691, 100.772440
1759316229.052601, -1.951873, 7.523779, 2.679561, 0.678103, 0.504524, -0.844363, 24.627716, -117.064499, 104.201508, 13.727691, 100.772440
1759316229.073247, -2.627786, 7.564031, 1.956212, 0.622812, 0.504194, -0.554943, 24.034424, -116.901993, 103.262009, 13.727691, 100.772440
1759316229.093246, -3.065027, 7.417536, 2.079215, 0.910168, 0.976090, -0.340564, 23.446381, -116.462708, 103.291931, 13.727691, 100.772440
1759316229.113256, -3.085078, 6.841731, 1.842488, 1.160738, 1.328525, -0.314147, 22.533951, -116.035889, 101.657318, 13.727691, 100.772440
1759316229.133250, -2.875586, 6.274903, 1.990779, 1.227881, 1.235441, -0.266092, 22.061447, -115.392166, 100.695435, 13.727691, 100.772440
1759316229.152446, -2.582595, 6.948272, 0.202160, 1.554053, 0.793988, -0.240357, 21.613281, -114.949722, 100.894409, 13.727691, 100.772440
1759316229.173250, -1.976114, 7.555652, -0.792630, 2.197698, 0.381537, -0.419942, 21.359879, -114.263092, 99.314880, 13.727691, 100.772440
1759316229.193257, -1.760486, 7.965359, -1.117045, 2.127885, -0.173299, -0.562038, 21.372101, -113.428284, 99.269897, 13.727691, 100.772440
1759316229.213296, -1.775301, 8.643966, -2.630479, 1.563054, -0.481609, -0.407382, 21.387863, -112.903503, 97.757401, 13.727691, 100.772440
1759316229.233245, -1.456423, 8.868572, -4.302380, 0.907433, -0.071458, -0.133913, 21.320374, -112.557846, 97.371735, 13.727691, 100.772440
1759316229.252940, -1.436521, 7.916278, -3.927089, 0.286777, 0.542184, -0.074885, 21.195282, -112.419952, 97.234543, 13.727691, 100.772440
1759316229.273251, -1.789666, 7.202208, -3.086276, -0.230816, 0.714732, -0.132874, 20.548584, -112.642303, 96.987503, 13.727691, 100.772440
1759316229.293259, -1.669207, 7.010222, -2.556259, -0.679937, 0.520541, -0.242316, 20.286560, -112.848557, 97.644577, 13.727691, 100.772440
1759316229.313256, -1.110760, 7.217321, -2.575562, -1.083288, 0.290525, -0.285484, 19.986511, -113.365860, 97.413513, 13.727691, 100.772440
1759316229.333246, -0.576554, 7.624335, -1.844882, -1.466605, 0.159099, -0.062761, 19.817963, -114.173080, 98.846786, 13.727691, 100.772440
1759316229.352303, -0.636858, 8.245331, -0.743849, -1.982282, -0.150056, 0.163805, 19.957443, -114.931274, 98.604584, 13.727691, 100.772440
1759316229.373252, -0.400281, 8.992023, -0.165948, -2.490911, -0.654155, 0.415694, 20.258453, -116.059784, 100.095642, 13.727691, 100.772440
1759316229.393247, -0.292990, 9.104999, -0.273837, -2.539761, -1.315614, 0.768360, 21.158157, -117.027908, 101.905685, 13.727691, 100.772440
1759316229.413251, -0.674566, 8.788965, -0.828543, -1.773147, -2.121155, 0.846610, 22.601440, -117.550934, 102.711624, 13.727691, 100.772440
1759316229.432814, -1.247379, 8.976610, -2.540547, -0.666790, -2.695513, 0.591891, 24.329758, -118.049408, 104.146851, 13.727691, 100.772440
1759316229.452627, -2.739865, 12.081441, -5.018097, 0.243868, -2.344383, 0.202564, 26.072739, -117.925262, 104.434433, 13.727691, 100.772440
1759316229.473263, -4.638616, 15.336059, -6.876596, 0.769434, -1.214024, -0.322723, 26.786514, -117.758240, 104.282547, 13.727691, 100.772440
1759316229.493256, -3.681983, 12.746879, -7.159262, 0.760843, -0.611714, -0.053427, 26.922409, -117.153305, 105.159286, 13.727691, 100.772440
1759316229.513257, -1.589600, 5.878962, -5.062689, -0.421522, 0.265050, 0.170235, 26.553909, -117.273392, 104.405075, 13.727691, 100.772440
1759316229.533256, -0.820613, 6.866720, -1.053000, -1.621486, 1.840114, 0.304610, 25.239639, -118.385757, 104.524918, 13.727691, 100.772440
1759316229.552473, -0.740557, 7.184401, 0.532261, -1.967376, 2.383580, 0.404264, 23.895950, -119.087372, 105.064575, 13.727691, 100.772440
1759316229.573254, -0.779013, 8.258350, 2.045247, -1.386081, 2.461086, 0.336772, 22.544022, -119.662689, 103.508911, 13.727691, 100.772440
1759316229.593250, -0.999130, 9.302371, 3.545064, -0.311708, 1.669505, 0.169974, 21.877136, -119.842804, 104.095139, 13.727691, 100.772440
1759316229.613262, -1.598878, 9.835979, 2.332102, 0.472793, 0.650436, 0.020763, 21.469635, -119.736267, 103.003494, 13.727691, 100.772440
1759316229.633281, -1.588403, 9.994146, 1.099238, 0.404422, 0.014701, -0.013794, 21.801804, -119.642578, 102.749298, 13.727691, 100.772440
1759316229.652787, -1.678335, 10.011354, 0.738611, -0.385408, -0.689560, -0.034856, 22.308685, -119.940094, 103.569687, 13.727691, 100.772440
1759316229.673248, -1.943493, 10.081834, 0.262165, -1.252121, -1.372310, 0.135038, 23.003815, -120.573471, 103.966782, 13.727691, 100.772440
1759316229.693239, -2.441038, 9.735273, -2.581099, -0.583546, -1.860784, 0.057464, 24.124832, -120.751495, 105.756454, 13.727691, 100.772440
1759316229.712404, -2.497601, 9.203461, -2.622998, 0.679767, -1.595508, -0.275677, 24.868912, -120.408020, 104.943542, 13.727691, 100.772440
1759316229.733254, -2.503138, 9.303568, -2.228702, 0.017049, -0.176476, -0.205302, 24.890350, -120.509415, 106.077744, 13.727691, 100.772440
1759316229.753230, -1.802983, 8.902540, -1.352574, -0.784468, 1.101270, 0.107951, 24.184631, -120.933578, 104.721161, 13.727691, 100.772440
1759316229.773254, -1.205630, 9.760412, -0.662895, -0.655273, 1.770085, 0.122441, 23.087570, -121.247971, 104.133575, 13.727691, 100.772440
1759316229.792504, -1.011849, 10.050859, 1.115698, -0.245123, 1.793761, -0.019063, 21.883011, -121.502228, 104.016785, 13.727691, 100.772440
1759316229.813255, -0.833033, 9.636213, 1.751359, 0.028491, 1.092024, -0.065813, 21.157867, -121.701385, 103.627365, 13.727691, 100.772440
1759316229.833255, -0.335637, 9.227852, 1.049409, 0.093561, 0.310086, -0.068231, 21.083725, -121.680176, 103.932587, 13.727691, 100.772440
1759316229.853066, -0.264559, 9.936535, -0.342670, -0.059619, -0.159419, -0.050638, 21.171555, -121.928070, 103.061157, 13.727691, 100.772440
1759316229.873258, -0.324863, 10.177153, -1.413776, -0.191048, -0.156929, 0.055067, 21.480621, -121.921478, 103.560822, 13.727691, 100.772440
1759316229.893257, -0.714370, 9.630377, -1.161936, -0.165774, 0.175456, 0.109290, 21.241562, -121.976944, 104.357819, 13.727691, 100.772440
1759316229.913257, -1.114800, 9.379884, -0.121805, -0.207977, 0.389153, 0.107744, 21.027496, -122.169830, 103.679626, 13.727691, 100.772440
1759316229.933253, -1.508796, 9.299379, 0.287753, -0.268478, 0.268374, 0.099724, 20.896912, -122.224396, 103.302094, 13.727691, 100.772440
1759316229.952245, -1.661726, 9.408015, 0.090830, -0.177051, 0.174073, 0.094793, 20.820541, -122.319824, 103.952530, 13.727691, 100.772440
1759316229.973257, -1.626411, 9.556007, -0.176572, -0.147872, 0.176948, 0.068559, 20.735931, -122.574951, 103.451080, 13.727691, 100.772440
1759316229.993262, -1.429338, 9.537153, -0.566977, -0.209636, 0.179032, 0.045177, 20.473862, -122.527496, 104.461136, 13.727691, 100.772440
1759316230.013294, -1.268179, 9.376442, -0.576105, -0.195646, 0.276119, 0.037518, 20.434708, -122.510895, 103.154617, 13.727691, 100.772440
1759316230.033024, -1.074398, 9.202862, -0.262913, -0.208236, 0.301277, 0.023481, 20.076401, -122.676788, 103.396820, 13.727697, 100.772436
1759316230.053225, -1.015740, 9.454104, -0.144999, -0.252364, 0.293474, -0.004200, 19.853500, -123.009033, 103.836380, 13.727697, 100.772436
1759316230.073259, -1.023072, 9.866505, 0.179266, -0.269181, 0.283657, -0.006163, 19.920670, -122.963425, 102.889328, 13.727697, 100.772436
1759316230.093229, -0.793528, 9.800066, 0.228796, -0.311575, 0.175910, -0.023149, 19.922913, -123.150131, 103.599945, 13.727697, 100.772436
1759316230.113255, -0.814328, 9.774628, -0.246303, -0.230153, 0.136410, 0.032471, 19.577072, -123.546799, 103.110565, 13.727697, 100.772436
1759316230.133251, -1.171962, 9.745747, -0.538845, -0.196637, 0.234362, 0.104496, 19.690170, -123.661331, 102.865585, 13.727697, 100.772436
1759316230.153228, -1.172261, 9.799617, -0.232537, -0.268534, 0.424518, 0.170310, 19.603714, -123.583023, 103.573227, 13.727697, 100.772436
1759316230.173240, -0.714220, 9.292196, 0.208595, -0.231808, 0.370026, 0.064965, 19.130554, -123.801392, 102.960251, 13.727697, 100.772436
1759316230.192893, -0.682198, 9.220968, 0.814029, -0.217745, 0.213286, 0.044753, 19.108078, -123.505554, 103.115738, 13.727697, 100.772436
1759316230.213255, -0.714819, 9.723900, 0.590021, -0.248867, -0.008747, 0.097761, 19.140198, -123.902298, 102.543793, 13.727697, 100.772436
1759316230.233253, -0.748038, 10.742184, -0.295534, -0.281631, 0.020005, 0.157738, 19.120880, -123.997147, 103.564560, 13.727697, 100.772436
1759316230.252676, -0.937480, 9.880721, -1.216404, -0.150490, 0.293222, 0.176377, 19.153442, -124.142303, 102.374420, 13.727697, 100.772436
1759316230.273262, -0.907552, 9.163657, -0.544681, -0.157637, 0.517956, 0.170710, 18.856293, -124.187622, 102.676254, 13.727697, 100.772436
1759316230.293254, -0.743549, 9.381230, 0.427814, -0.268130, 0.580332, 0.185438, 18.559036, -124.256485, 102.465775, 13.727697, 100.772436
1759316230.313259, -0.575805, 9.436447, 0.908001, -0.300659, 0.407389, 0.153881, 18.278015, -124.528427, 102.296661, 13.727697, 100.772436
1759316230.333251, -0.413000, 9.181614, 0.780959, -0.329783, 0.163668, 0.090866, 18.329102, -124.664795, 102.617645, 13.727697, 100.772436
1759316230.352352, -0.414347, 9.627534, 0.599897, -0.368158, 0.053966, 0.068131, 18.419754, -124.879120, 102.010681, 13.727697, 100.772436
1759316230.373253, -0.385915, 10.351032, 0.044742, -0.361364, 0.172647, 0.089428, 18.307312, -124.946640, 102.075317, 13.727697, 100.772436
1759316230.392946, -0.488716, 9.864111, 0.218172, -0.280038, 0.375613, 0.101910, 18.034271, -125.379745, 102.745255, 13.727697, 100.772436
1759316230.413257, -0.809240, 9.183110, 0.841562, -0.335146, 0.352327, 0.115010, 17.952499, -125.240112, 101.386810, 13.727697, 100.772436
1759316230.433255, -0.913238, 9.123105, 0.655862, -0.304601, 0.305793, 0.093956, 17.673523, -125.531281, 101.331268, 13.727697, 100.772436
1759316230.452799, -0.734272, 10.088268, 0.205901, -0.233021, 0.394047, 0.094431, 17.549805, -125.670319, 102.448196, 13.727697, 100.772436
1759316230.473258, -0.629825, 10.678738, 0.448913, -0.313341, 0.469016, 0.103623, 17.243103, -125.887650, 101.657867, 13.727697, 100.772436
1759316230.493254, -0.670376, 10.112958, 1.456273, -0.342334, 0.330936, 0.093969, 17.265579, -125.889175, 102.076218, 13.727697, 100.772436
1759316230.513295, -1.079635, 9.602844, 1.498321, -0.254283, 0.140286, 0.087355, 17.130066, -125.964447, 101.083069, 13.727697, 100.772436
1759316230.533300, -1.208174, 9.385121, 0.381277, -0.166771, 0.305211, 0.070378, 16.682526, -126.017990, 101.239456, 13.727697, 100.772436
1759316230.552975, -0.886004, 9.765500, 0.422577, -0.101919, 0.689898, 0.104347, 16.609177, -125.914795, 101.437683, 13.727697, 100.772436
1759316230.573257, -0.516100, 10.057293, 1.898752, -0.159579, 0.683739, 0.133329, 16.320145, -126.065903, 100.657425, 13.727697, 100.772436
1759316230.593259, -0.343119, 10.171915, 2.639009, -0.191387, 0.220661, 0.109786, 16.240906, -126.257065, 101.254745, 13.727697, 100.772436
1759316230.613256, -0.041001, 10.145579, 1.931522, -0.142732, -0.138990, 0.056847, 16.341537, -126.512558, 100.398697, 13.727697, 100.772436
1759316230.633240, 0.225504, 9.882965, 0.806098, -0.045967, -0.042231, 0.045572, 16.368088, -126.480576, 100.621582, 13.727697, 100.772436
1759316230.652824, 0.047136, 9.539996, 1.038036, -0.015475, 0.353099, 0.053641, 16.261108, -126.228210, 100.401932, 13.727697, 100.772436
1759316230.673291, -0.233734, 9.607482, 1.656638, -0.012184, 0.552756, 0.119987, 15.924576, -126.307220, 100.123749, 13.727697, 100.772436
1759316230.693259, -0.232238, 9.988909, 1.473481, -0.063163, 0.558336, 0.186722, 15.843414, -126.027878, 100.378906, 13.727697, 100.772436
1759316230.712523, -0.308852, 10.216058, 1.974019, -0.190365, 0.478266, 0.270186, 15.669876, -125.986786, 99.481293, 13.727697, 100.772436
1759316230.733250, -0.645686, 9.645341, 1.949179, -0.157875, 0.424962, 0.350562, 15.213150, -125.980927, 100.535645, 13.727697, 100.772436
1759316230.752710, -1.588254, 9.235483, 1.050606, 0.026690, 0.848377, 0.339676, 14.912979, -126.080154, 99.383636, 13.727697, 100.772436
1759316230.773260, -2.236334, 9.167398, 0.783502, 0.060963, 1.489717, 0.327024, 14.342560, -125.913330, 98.696014, 13.727697, 100.772436
1759316230.793252, -2.287959, 9.309404, 0.747739, -0.006916, 1.823092, 0.339115, 13.616608, -125.620117, 98.279343, 13.727697, 100.772436
1759316230.812413, -1.403451, 8.989479, 1.241693, -0.025310, 1.782035, 0.316825, 12.888977, -125.629242, 96.663666, 13.727697, 100.772436
1759316230.833254, -0.491260, 8.523059, 2.211045, 0.001205, 1.503951, 0.226971, 12.457794, -125.561142, 96.441055, 13.727697, 100.772436
1759316230.853230, 0.210241, 8.117092, 1.204882, -0.064285, 1.275965, 0.153120, 12.007492, -125.731720, 94.956284, 13.727697, 100.772436
1759316230.873267, 0.678457, 8.837298, -0.941370, -0.389389, 1.450249, 0.194108, 11.560669, -125.671341, 94.286316, 13.727697, 100.772436
1759316230.893203, 0.836025, 9.252542, -1.268328, -0.472140, 1.991103, 0.274673, 10.531052, -125.722656, 93.823181, 13.727697, 100.772436
1759316230.913085, 0.833481, 8.904186, -0.937480, -0.288200, 2.178791, 0.289339, 9.865784, -125.679810, 92.067123, 13.727697, 100.772436
1759316230.933190, 0.932242, 8.521562, -0.088885, -0.357122, 1.772276, 0.319829, 9.524780, -125.602600, 91.324081, 13.727697, 100.772436
1759316230.952422, 0.977433, 8.313716, 0.160711, -0.456803, 1.335036, 0.267430, 9.067337, -125.713516, 90.954498, 13.727697, 100.772436
1759316230.973259, 0.518045, 8.891616, -0.219967, -0.600942, 0.799297, 0.182654, 9.043350, -126.016876, 89.779266, 13.727697, 100.772436
1759316230.993254, -0.496647, 9.769989, -1.850419, -0.704053, 0.704786, 0.156847, 8.863663, -125.948441, 90.385025, 13.727697, 100.772436
1759316231.012919, -0.830638, 9.230396, -0.820912, -0.555581, 0.842040, 0.056639, 8.597366, -126.088562, 89.090210, 13.727697, 100.772436
1759316231.033040, -0.533608, 8.813356, -1.336713, -0.518038, 0.779754, -0.060014, 8.330460, -126.441467, 88.432877, 13.727696, 100.772434
1759316231.053232, 0.753126, 9.757120, -1.563264, -0.549887, 1.111625, -0.034768, 8.084030, -126.812454, 88.686111, 13.727696, 100.772434
1759316231.073300, 1.811962, 11.259332, -0.103549, -0.496919, 1.320770, 0.065483, 7.815567, -127.054901, 87.765945, 13.727696, 100.772434
1759316231.093235, 0.881365, 11.565939, -0.651223, -0.483173, 1.371611, 0.271157, 7.474380, -127.093185, 87.414215, 13.727696, 100.772434
1759316231.113265, -1.454926, 12.212523, -1.669806, -0.338724, 1.329406, 0.532748, 7.528000, -126.373108, 86.150467, 13.727696, 100.772434
1759316231.132885, -1.944541, 12.226140, 0.720056, 0.351928, 1.422628, 0.725612, 7.439636, -125.851044, 85.663452, 13.727696, 100.772434
1759316231.153234, -1.795202, 12.588413, 1.921048, 1.117995, 1.162945, 0.828772, 7.231796, -125.051453, 83.697632, 13.727696, 100.772434
1759316231.173261, -1.534384, 12.127679, 2.962974, 1.776492, 1.627672, 0.671411, 7.144775, -124.186798, 82.732162, 13.727696, 100.772434
1759316231.193195, -1.101782, 11.692084, 3.569755, 2.200344, 1.843858, 0.258493, 7.159607, -123.927567, 82.104691, 13.727696, 100.772434
1759316231.212653, -1.939752, 11.196484, 4.414160, 2.004779, 1.507123, 0.138468, 7.010880, -123.540268, 80.328171, 13.727696, 100.772434
1759316231.232735, -3.366696, 11.402535, 3.227982, 1.666272, 1.647674, -0.055490, 6.888458, -123.432175, 79.573547, 13.727696, 100.772434
1759316231.252962, -5.557840, 13.371018, 2.789843, 1.611516, 2.688694, -0.181332, 6.734589, -123.342270, 76.057434, 13.727696, 100.772434
1759316231.273244, -3.799598, 11.171644, 0.235380, 3.304409, 4.139681, -0.451776, 7.132828, -123.509003, 73.440842, 13.727696, 100.772434
1759316231.293259, -2.586187, 9.142259, -0.070928, 2.859488, 4.830365, -1.112026, 7.350647, -124.308640, 70.216446, 13.727696, 100.772434
1759316231.313249, -1.832163, 8.800487, 1.167323, 2.137680, 4.532459, -1.342881, 7.874329, -125.166153, 66.077606, 13.727696, 100.772434
1759316231.332588, -1.294665, 8.633641, 1.490839, 1.926787, 4.157881, -1.225222, 8.585434, -126.151337, 63.317963, 13.727696, 100.772434
1759316231.353236, -1.126921, 8.362797, 0.558597, 1.527472, 3.107194, -0.715652, 9.140656, -126.641449, 61.068695, 13.727696, 100.772434
1759316231.373244, -2.056021, 8.754249, 1.704821, 1.580856, 2.222992, -0.882569, 9.735718, -127.683899, 58.995575, 13.727696, 100.772434
1759316231.393261, -1.506252, 8.823381, 0.661697, 1.727721, 1.369002, -0.730350, 10.374969, -128.560181, 58.742813, 13.727696, 100.772434
1759316231.413263, -0.339378, 8.730756, -1.208324, 1.790543, 1.387944, -0.665641, 10.670837, -129.462631, 57.029099, 13.727696, 100.772434
1759316231.432429, 0.065990, 8.939799, -1.723077, 1.728859, 1.685432, -0.645780, 11.745712, -130.223907, 55.996552, 13.727696, 100.772434
1759316231.453233, 1.045219, 8.771906, -2.038962, 1.267139, 2.425967, -0.360038, 12.670670, -130.749496, 55.341568, 13.727696, 100.772434
1759316231.473265, 1.426346, 8.422652, 0.278476, 1.046406, 2.238992, -0.284085, 13.557770, -131.163406, 53.802811, 13.727696, 100.772434
1759316231.493259, 1.280748, 7.625083, -0.635810, 0.668138, 0.465260, -0.229820, 13.862076, -131.572464, 54.403412, 13.727696, 100.772434
1759316231.513259, 0.327257, 7.016956, -1.486201, 0.605805, -0.359426, -0.346217, 13.518845, -132.053497, 53.755188, 13.727696, 100.772434
1759316231.532257, -1.270274, 6.042815, -4.891354, -0.287797, -1.164290, -0.450558, 13.247009, -132.143890, 54.755905, 13.727696, 100.772434
1759316231.553233, -1.572093, 5.805640, -5.670367, -1.014696, -0.068013, -0.455081, 12.867630, -131.856613, 55.191147, 13.727696, 100.772434
1759316231.573249, -1.646463, 6.143073, -4.669890, -1.557487, 1.145791, -0.570779, 13.400360, -131.351669, 54.174850, 13.727696, 100.772434
1759316231.593244, -1.636287, 6.993313, -3.492691, -1.864962, 1.626138, -0.670763, 14.208405, -130.789749, 53.757538, 13.727696, 100.772434
1759316231.613260, -1.396867, 8.240543, -3.140145, -1.966850, 1.424462, -0.691321, 14.682816, -130.574081, 52.940475, 13.727696, 100.772434
1759316231.632242, -0.989254, 9.616461, -2.979285, -1.833568, 0.893022, -0.440244, 15.355698, -129.656357, 53.489380, 13.727696, 100.772434
1759316231.653235, -0.861314, 10.242993, -3.064578, -1.625366, 0.497560, 0.051922, 15.654907, -129.076096, 52.439148, 13.727696, 100.772434
1759316231.673262, -0.726790, 9.400234, -3.279607, -1.430890, 0.440405, 0.412576, 15.937790, -128.044083, 52.334549, 13.727696, 100.772434
1759316231.693265, -0.663643, 8.702175, -4.612579, -0.919461, 0.434938, 0.383998, 16.420990, -127.092606, 53.220642, 13.727696, 100.772434
1759316231.713262, 1.140687, 9.309255, -6.857442, -0.362200, 0.372711, 0.266966, 16.527786, -126.944809, 52.702011, 13.727696, 100.772434
1759316231.733265, 2.276736, 10.550947, -9.458294, -0.528924, 0.396476, 0.437713, 16.816284, -126.333847, 53.285156, 13.727696, 100.772434
1759316231.753236, 2.414552, 10.972477, -8.812308, -0.256441, 1.708626, 0.897104, 17.797150, -125.661453, 52.108200, 13.727696, 100.772434
1759316231.773310, 2.227356, 11.405827, -4.635324, -0.015395, 2.229400, 0.806452, 18.908218, -124.952820, 51.263885, 13.727696, 100.772434
1759316231.793260, -0.749235, 16.135872, -0.032771, -0.195483, 0.480086, 0.188377, 19.722351, -124.518524, 51.493393, 13.727696, 100.772434
1759316231.812433, -3.106477, 15.075540, 0.691326, -0.271245, -1.487564, 0.238394, 19.363617, -123.987091, 51.225586, 13.727696, 100.772434
1759316231.833262, -3.706823, 10.664373, 0.611120, -0.717135, -1.479654, -0.105480, 18.372849, -123.344772, 52.399536, 13.727696, 100.772434
1759316231.853237, -3.673154, 7.116615, 0.229843, -1.137337, 0.382977, -0.260935, 18.333405, -122.448776, 52.943909, 13.727696, 100.772434
1759316231.873270, -4.320636, 4.783615, 0.731878, -0.803554, 2.714273, 0.001954, 19.695023, -121.778168, 51.548035, 13.727696, 100.772434
1759316231.893262, -4.488679, 5.389049, 2.980631, -0.149268, 4.026207, 0.129199, 21.924561, -121.610062, 50.743317, 13.727696, 100.772434
1759316231.913258, -5.017798, 8.417863, 4.821024, 0.283882, 3.290212, -0.166191, 23.748840, -121.799698, 48.635803, 13.727696, 100.772434
1759316231.933259, -5.506963, 11.373505, 5.148282, 0.187235, 0.928543, -0.170401, 24.235519, -121.936523, 48.475571, 13.727696, 100.772434
1759316231.953234, -4.522647, 11.272500, 3.055151, -0.148423, -1.159889, -0.260833, 23.769775, -121.888382, 49.892685, 13.727696, 100.772434
1759316231.973266, -3.901352, 10.738144, 0.917877, -0.465034, -1.486294, -0.388152, 22.555847, -121.681931, 50.244278, 13.727696, 100.772434
1759316231.993267, -3.023877, 10.334123, 0.237924, -0.571342, -0.752633, -0.410066, 22.252670, -121.519684, 51.243759, 13.727696, 100.772434
1759316232.013272, -1.740884, 9.422231, 0.307954, -0.620810, 0.052128, -0.463993, 22.122604, -121.224884, 50.863190, 13.727696, 100.772434
1759316232.033121, -0.547374, 9.082703, 0.922516, -0.692361, 0.532447, -0.530148, 22.284424, -120.861679, 50.896088, 13.727699, 100.772432
1759316232.053237, 0.683245, 9.365069, 1.557877, -0.579684, 0.597202, -0.502272, 22.534592, -120.858063, 51.566284, 13.727699, 100.772432
1759316232.073254, 1.715745, 9.547927, 1.584662, -0.264475, 0.565016, -0.370956, 22.614059, -121.074478, 50.017776, 13.727699, 100.772432
1759316232.093263, 2.284817, 9.773730, 0.811934, -0.091658, 0.790606, -0.142448, 23.043762, -120.855133, 50.838333, 13.727699, 100.772432
1759316232.113251, 2.053626, 10.062830, 0.125546, -0.347391, 1.494308, -0.117847, 23.871796, -120.772476, 50.575272, 13.727699, 100.772432
1759316232.133271, 1.870320, 11.058518, 1.160589, -0.704383, 1.985503, -0.204338, 24.988846, -120.372864, 50.275360, 13.727699, 100.772432
1759316232.153239, 1.909525, 10.923096, 2.241422, -0.502981, 1.461182, 0.081686, 25.786072, -119.896667, 48.891769, 13.727699, 100.772432
1759316232.173251, 0.426318, 9.854534, 1.096844, -0.303585, 0.686888, 0.308319, 26.158173, -119.768021, 48.723114, 13.727699, 100.772432
1759316232.193184, -1.310975, 9.068787, -2.523339, -0.382430, 0.977426, 0.440043, 26.559494, -119.708313, 49.216431, 13.727699, 100.772432
1759316232.213265, -2.639757, 8.622268, -4.711490, 0.375386, 3.280171, -0.066973, 28.165375, -119.794113, 47.999664, 13.727699, 100.772432
1759316232.232903, -2.546682, 9.760562, -0.938677, 0.111880, 4.671961, -0.517761, 30.993881, -120.186142, 47.097794, 13.727699, 100.772432
1759316232.252245, -2.388665, 10.765827, 0.385466, -1.135022, 3.848928, -0.339095, 33.212769, -119.288193, 46.170532, 13.727699, 100.772432
1759316232.272810, -1.094300, 10.166678, 1.457321, -0.738419, 3.479900, 0.080517, 35.171982, -118.614349, 46.181992, 13.727699, 100.772432
1759316232.292564, 0.246603, 8.150461, 3.191620, -0.220466, 2.732377, 0.115391, 36.666107, -118.495834, 46.522369, 13.727699, 100.772432
1759316232.313265, 0.707187, 7.955034, 2.902521, -0.025205, 1.682015, -0.150182, 37.763824, -118.546997, 45.478210, 13.727699, 100.772432
1759316232.333259, 0.431106, 9.485079, 1.249474, -0.012264, 1.143755, -0.424583, 38.399414, -118.571350, 45.164719, 13.727699, 100.772432
1759316232.353238, 0.684891, 10.895862, -1.248427, -0.289518, 1.343741, -0.315106, 39.429535, -118.483917, 46.126831, 13.727699, 100.772432
1759316232.373270, 1.616086, 10.437672, -1.818845, -0.457311, 2.068909, -0.217987, 40.576172, -118.107559, 45.565826, 13.727699, 100.772432
1759316232.393272, 1.460762, 10.093056, 0.645088, -0.428202, 2.066368, 0.012708, 41.739105, -117.682449, 46.246658, 13.727699, 100.772432
1759316232.413270, 0.415244, 9.365668, 1.804779, -0.178194, 1.312889, 0.080306, 42.611588, -117.622665, 45.421005, 13.727691, 100.772436
1759316232.433266, -0.640748, 9.626935, 0.498892, -0.007425, 0.540719, -0.057651, 42.947815, -117.856201, 45.309418, 13.727691, 100.772436
1759316232.453024, -1.048960, 9.574412, -0.346710, 0.021608, 0.485918, -0.117903, 43.108749, -117.936447, 46.164032, 13.727691, 100.772436
1759316232.473272, -0.653916, 9.552865, -0.224157, -0.071041, 0.673585, -0.200177, 43.573502, -117.671021, 45.247406, 13.727691, 100.772436
1759316232.493244, 0.229245, 9.829844, 0.641496, -0.076583, 0.529930, -0.246941, 43.680191, -117.761642, 46.509918, 13.727691, 100.772436
1759316232.513268, 0.671424, 9.746795, 0.824503, -0.011652, 0.132589, -0.237467, 43.970078, -117.392120, 46.067947, 13.727691, 100.772436
1759316232.533251, 0.103400, 9.493010, 0.399981, 0.057995, -0.042632, -0.219645, 43.767212, -117.568939, 45.475540, 13.727691, 100.772436
1759316232.553239, -0.719308, 9.283966, 0.070779, 0.038351, 0.008646, -0.160454, 43.792725, -117.407486, 45.711212, 13.727691, 100.772436
1759316232.572634, -1.344195, 9.474455, -0.124050, 0.001490, 0.153550, -0.153583, 43.885849, -117.421799, 45.301392, 13.727691, 100.772436
1759316232.593270, -1.578228, 9.806800, -0.327557, 0.019998, 0.062929, -0.117427, 43.924805, -117.419891, 46.589035, 13.727691, 100.772436
1759316232.613269, -1.058387, 9.655366, -0.227150, 0.047264, -0.156599, -0.150640, 43.784531, -117.448578, 46.086761, 13.727691, 100.772436
1759316232.633286, -0.585382, 9.621249, 0.139911, 0.006302, -0.138211, -0.158408, 43.637054, -117.328018, 46.600891, 13.727691, 100.772436
1759316232.653244, -0.480636, 9.395147, 0.725144, -0.019168, -0.090395, -0.125793, 43.395615, -117.375061, 45.892441, 13.727691, 100.772436
1759316232.673274, -0.631770, 9.349208, 0.710030, -0.049781, -0.371219, -0.105714, 43.206879, -117.481094, 45.667923, 13.727691, 100.772436
1759316232.693276, -0.853533, 9.344270, 0.081852, 0.047077, -0.614813, -0.110965, 42.811478, -117.415558, 46.573029, 13.727691, 100.772436
1759316232.713279, -0.868497, 9.658509, 0.094272, 0.081305, -0.643320, -0.086465, 42.558411, -117.569290, 45.546234, 13.727691, 100.772436
1759316232.733115, -1.059883, 9.902268, 0.107889, -0.002841, -0.579063, 0.002342, 41.951904, -117.458084, 45.636246, 13.727691, 100.772436
1759316232.753129, -1.276858, 9.855581, -0.046537, 0.023307, -0.432184, 0.000975, 41.955627, -117.452789, 45.726608, 13.727691, 100.772436
1759316232.772962, -1.377564, 9.627534, -0.082151, 0.074763, -0.365333, -0.041968, 41.568466, -117.418427, 45.558914, 13.727691, 100.772436
1759316232.793268, -1.215207, 9.524882, -0.127791, 0.061249, -0.458325, -0.102502, 41.343353, -117.526031, 46.220200, 13.727691, 100.772436
1759316232.813268, -0.995389, 9.785102, -0.102651, 0.063190, -0.590424, -0.144806, 40.832153, -117.612335, 45.614685, 13.727691, 100.772436
1759316232.832963, -0.683844, 9.900024, -0.115670, 0.088976, -0.646081, -0.139164, 40.355530, -117.614044, 45.403412, 13.727691, 100.772436
1759316232.853244, -0.339977, 9.737517, 0.328155, 0.135126, -0.747178, -0.105244, 39.831970, -117.595520, 46.209656, 13.727691, 100.772436
1759316232.873271, -0.096666, 9.516802, 0.828992, 0.124429, -1.063007, -0.040250, 39.240295, -117.707764, 45.786636, 13.727691, 100.772436
1759316232.893264, -0.190489, 9.160664, 0.642694, 0.088266, -1.313959, -0.017885, 38.382355, -117.652374, 46.529999, 13.727691, 100.772436
1759316232.913276, -0.511761, 9.674370, 0.388310, -0.010068, -1.280084, -0.056720, 37.673538, -117.788239, 45.604431, 13.727691, 100.772436
1759316232.932811, -0.740856, 9.733627, 0.363170, -0.026206, -1.190548, -0.013073, 36.934814, -117.613953, 45.685562, 13.727691, 100.772436
1759316232.953246, -0.757615, 9.292645, 0.285509, 0.062341, -1.254683, 0.015506, 36.062744, -117.694382, 46.559372, 13.727691, 100.772436
1759316232.973267, -1.059135, 9.298630, 0.177919, 0.089798, -1.273533, 0.141866, 35.445221, -117.721283, 45.764435, 13.727691, 100.772436
1759316232.993251, -1.469741, 9.653870, 0.149638, -0.093122, -1.076511, 0.238774, 34.974564, -117.818481, 46.935562, 13.727691, 100.772436
1759316233.013274, -1.945438, 9.455451, -0.110133, -0.297385, -0.692282, 0.120211, 34.973251, -117.505051, 46.518707, 13.727691, 100.772436
1759316233.032703, -2.177227, 9.179519, 0.158167, -0.211384, -0.239694, -0.082743, 34.724731, -117.150818, 47.507599, 13.727697, 100.772433
1759316233.053115, -2.108394, 9.536704, 0.877475, -0.056534, -0.081835, -0.055685, 34.526199, -117.292236, 46.466461, 13.727697, 100.772433
1759316233.073271, -2.322525, 9.657162, 1.049259, -0.137988, -0.007418, 0.047712, 34.656036, -117.137390, 46.715256, 13.727697, 100.772433
1759316233.092249, -2.575114, 9.688436, 1.251270, -0.185572, -0.081780, 0.035165, 34.510040, -116.905502, 47.741241, 13.727697, 100.772433
1759316233.113278, -2.878878, 9.686940, 0.503531, 0.077360, -0.570065, -0.068054, 34.083344, -117.129807, 46.751236, 13.727697, 100.772433
1759316233.132526, -2.735675, 9.556007, -0.203358, 0.205321, -1.017342, -0.094172, 33.436462, -117.273621, 47.780792, 13.727697, 100.772433
1759316233.153258, -2.298883, 9.295787, -1.056741, -0.088051, -1.094496, -0.024496, 32.724854, -117.296371, 47.268402, 13.727697, 100.772433
1759316233.173280, -2.088342, 9.503035, -1.839645, -0.147655, -0.635999, -0.021686, 32.355927, -117.151871, 47.312576, 13.727697, 100.772433
1759316233.193039, -1.755249, 9.736620, -1.307833, 0.053938, 0.018714, -0.004110, 32.397110, -117.248917, 47.932831, 13.727697, 100.772433
1759316233.213246, -1.321899, 9.881618, -0.269946, 0.022233, 0.336620, 0.051734, 32.732803, -117.266479, 47.136337, 13.727697, 100.772433
1759316233.232379, -1.174057, 9.953295, 0.302418, -0.062505, 0.236302, 0.068443, 32.858444, -117.173355, 47.387390, 13.727697, 100.772433
1759316233.252429, -1.117045, 9.513660, 0.621894, -0.033676, 0.045006, 0.075481, 32.672668, -116.899139, 47.879669, 13.727697, 100.772433
1759316233.272374, -1.329530, 9.338284, 1.232415, -0.056262, -0.141979, 0.036418, 32.420197, -117.036819, 47.416397, 13.727697, 100.772433
1759316233.292829, -1.251270, 9.781960, 1.304241, -0.098517, -0.512428, -0.004995, 32.357590, -117.017075, 48.282150, 13.727697, 100.772433
1759316233.313101, -1.283891, 9.774478, 0.930746, -0.097491, -0.558991, 0.021152, 32.028839, -116.738876, 47.559113, 13.727697, 100.772433
1759316233.332705, -1.195604, 9.733776, 0.701950, -0.081266, -0.524718, 0.081829, 31.915176, -116.720993, 47.667053, 13.727697, 100.772433
1759316233.352569, -1.107767, 9.714623, 0.494702, -0.055766, -0.335577, 0.153877, 31.866287, -116.506775, 48.627853, 13.727697, 100.772433
1759316233.373277, -0.743250, 9.021202, 0.255431, -0.024122, -0.056687, 0.189318, 31.863159, -116.551926, 47.870102, 13.727697, 100.772433
1759316233.392751, -0.439037, 8.493730, 0.171036, -0.003231, 0.128483, 0.178512, 31.973892, -116.493347, 48.247528, 13.727697, 100.772433
1759316233.412953, -0.210390, 9.196129, 0.308104, -0.055492, 0.174830, 0.125179, 31.942413, -116.500229, 47.818573, 13.727697, 100.772433
1759316233.432461, -0.024690, 10.322002, 0.735618, -0.187925, -0.061494, 0.094564, 31.826782, -116.378403, 48.175644, 13.727697, 100.772433
1759316233.452357, 0.103100, 11.007941, 0.907851, -0.287400, -0.505927, 0.148251, 31.837067, -116.171982, 48.076630, 13.727697, 100.772433
1759316233.473289, 0.176722, 10.878803, 0.369156, -0.263298, -0.872950, 0.305094, 31.063690, -115.871521, 48.818573, 13.727697, 100.772433
1759316233.493299, 0.168791, 9.915885, -1.034894, -0.108298, -0.973676, 0.458380, 31.282394, -115.654846, 49.595139, 13.727697, 100.772433
1759316233.512672, 0.127491, 9.792584, -1.009755, 0.137493, -0.716506, 0.344000, 30.916107, -115.550659, 49.028946, 13.727697, 100.772433
1759316233.533312, -0.328006, 9.897630, -1.417068, -0.090788, -0.371711, 0.282296, 30.479904, -115.508850, 49.800232, 13.727697, 100.772433
1759316233.553277, -0.357335, 9.743204, -1.095946, -0.324951, 0.302496, 0.464509, 30.787399, -115.064835, 49.235367, 13.727697, 100.772433
1759316233.573314, -0.286257, 9.523236, -0.328305, -0.418557, 0.951453, 0.635835, 31.644791, -114.619507, 49.499802, 13.727697, 100.772433
1759316233.592474, -0.139163, 8.925733, 0.100407, -0.334365, 1.430111, 0.648591, 32.562439, -114.350266, 50.099640, 13.727697, 100.772433
1759316233.612525, -0.180014, 8.767716, 0.365864, -0.230755, 1.763796, 0.572610, 33.422821, -114.059906, 49.080688, 13.727697, 100.772433
1759316233.633297, -0.259771, 9.143755, 0.658106, -0.141146, 1.776377, 0.510336, 34.797424, -113.690720, 49.915024, 13.727697, 100.772433
1759316233.653284, -0.084545, 9.275885, 1.045967, -0.110542, 1.492826, 0.550906, 35.591324, -113.548431, 49.048508, 13.727697, 100.772433
1759316233.673312, 0.480935, 8.759336, 1.190517, -0.351046, 0.866839, 0.513456, 36.425949, -113.167175, 49.439896, 13.727697, 100.772433
1759316233.693318, 0.166397, 9.224859, 0.569371, -0.655084, 0.240289, 0.382558, 36.503754, -112.666794, 50.459961, 13.727697, 100.772433
1759316233.712377, -0.203208, 9.619154, 0.309002, -0.645444, 0.074982, 0.351547, 36.893692, -112.057892, 49.807068, 13.727697, 100.772433
1759316233.733323, -0.297779, 9.951050, 0.157868, -0.465843, 0.161087, 0.283395, 37.098801, -111.962463, 49.939468, 13.727697, 100.772433
1759316233.753291, -0.486472, 8.825626, -0.209044, -0.293299, 0.012599, 0.255078, 37.000290, -111.505737, 50.471680, 13.727697, 100.772433
1759316233.773318, -0.522983, 7.311443, -1.040580, -0.396394, -0.231071, 0.086538, 36.876846, -111.282898, 50.554749, 13.727697, 100.772433
1759316233.792529, -0.479439, 8.931869, -1.103128, -0.436333, 0.610904, -0.293765, 37.313934, -110.878632, 51.437134, 13.727697, 100.772433
1759316233.813023, -0.137218, 11.907412, -0.173131, -0.499095, 0.871338, -0.307755, 37.640289, -110.610413, 51.156525, 13.727697, 100.772433
1759316233.833325, 0.111330, 14.289194, 0.533458, -0.548278, 1.074568, -0.223187, 38.148849, -110.497147, 50.960907, 13.727697, 100.772433
1759316233.852776, 0.166696, 16.181511, 0.950947, -0.426000, 1.048617, -0.053676, 38.709946, -110.014633, 51.925323, 13.727697, 100.772433
1759316233.873328, 0.144550, 17.820642, 1.215955, -0.274455, 0.911308, 0.066293, 39.327255, -109.930359, 51.364410, 13.727697, 100.772433
1759316233.893366, -0.082151, 20.074932, 1.271022, -0.368732, 0.697797, 0.099725, 39.654831, -109.498871, 52.005630, 13.727697, 100.772433
1759316233.912928, 1.466748, 18.919430, 1.706617, -0.216284, 0.475124, 0.234307, 40.051407, -109.251968, 51.483963, 13.727697, 100.772433
1759316233.933316, 1.989432, 15.928773, 1.044022, 1.001923, 0.112625, 0.876168, 40.511368, -109.534698, 51.046341, 13.727697, 100.772433
1759316233.953306, 1.097293, 11.928960, 0.050428, 1.479411, 0.158790, 0.615214, 40.778961, -109.886002, 50.979111, 13.727697, 100.772433
1759316233.973343, -1.036689, 10.396970, -1.550844, 2.137385, 0.591290, -1.039425, 41.003418, -110.298187, 49.578598, 13.727697, 100.772433
1759316233.993337, -1.489343, 11.551724, -1.764976, 2.869530, 1.605686, -2.654006, 40.945847, -111.683151, 48.693207, 13.727697, 100.772433
1759316234.012420, -1.854309, 11.970559, -2.065747, 3.578028, 3.144708, -2.749155, 41.953003, -113.417175, 46.669632, 13.727697, 100.772433
1759316234.033150, -7.197269, 16.239271, -1.343895, 3.879752, 5.040212, -1.415567, 44.860397, -115.329834, 46.218307, 13.727701, 100.772431
1759316234.053321, -5.379472, 10.902297, 2.189198, 3.205098, 5.798361, 0.488087, 48.509109, -116.993912, 44.613907, 13.727701, 100.772431
1759316234.073339, -3.716998, 8.698883, 4.967819, 2.381261, 3.710704, -0.016055, 50.572647, -118.245865, 44.162888, 13.727701, 100.772431
1759316234.093338, -1.349582, 8.486547, 1.706617, 2.839936, 1.053362, -0.115008, 51.162415, -120.212738, 43.710861, 13.727701, 100.772431
1759316234.113347, 0.982072, 10.336068, 0.432602, 3.710186, 0.415803, 0.477522, 52.037827, -122.795593, 42.297592, 13.727701, 100.772431
1759316234.133344, 1.462708, 9.116521, 1.974618, 4.358343, 0.559012, 1.410003, 52.441193, -126.069733, 42.633911, 13.727701, 100.772431
1759316234.153323, 1.775001, 7.670274, 3.734057, 4.285573, -0.413722, 1.980808, 51.992950, -129.384491, 41.244385, 13.727701, 100.772431
1759316234.173374, 2.050334, 5.108777, 1.966986, 4.289837, -2.618339, 2.299305, 49.884811, -133.164276, 40.594208, 13.727701, 100.772431
1759316234.192394, 2.397643, 3.363704, -1.111658, 5.123474, -4.328830, 2.206192, 46.692734, -137.403656, 40.438110, 13.727701, 100.772431
1759316234.213354, 0.017657, 0.364068, -4.594323, 5.415923, -4.262702, 1.450312, 43.949738, -141.400696, 40.211960, 13.727701, 100.772431
1759316234.233350, -2.431162, 3.196858, -6.585551, 3.988410, -2.359247, 0.233055, 43.029465, -143.673187, 40.601852, 13.727701, 100.772431
1759316234.252657, -3.789722, 3.076848, -4.139425, 2.550983, -0.707467, 0.462323, 42.062469, -145.340424, 41.978760, 13.727701, 100.772431
1759316234.273353, -2.688389, 1.936161, -4.087052, 2.090851, -1.503459, 0.341369, 41.067734, -146.634659, 41.625290, 13.727701, 100.772431
1759316234.293367, -1.681478, 2.433257, -6.806566, 0.825608, -0.813061, 0.021319, 40.655624, -147.221420, 43.025055, 13.727701, 100.772431
1759316234.313362, -1.826776, 2.660108, -6.465093, 0.295916, -0.485676, 0.000756, 40.249802, -147.149445, 41.544601, 13.727701, 100.772431
1759316234.333362, -1.995268, 2.223016, -6.608595, -0.662782, -0.128192, -0.086867, 40.566513, -146.443756, 40.801834, 13.727701, 100.772431
1759316234.353338, -1.877503, 2.291999, -7.218219, -1.910096, 0.225324, -0.100164, 40.923874, -145.146774, 40.943222, 13.727701, 100.772431
1759316234.373357, -2.340182, 2.076820, -8.533833, -2.438146, 0.413123, -0.136984, 41.300766, -142.971664, 38.986237, 13.727701, 100.772431
1759316234.393355, -2.445378, 3.027917, -9.774179, -3.937616, 1.235579, -0.428506, 42.214478, -141.256088, 39.408508, 13.727701, 100.772431
1759316234.413370, -0.370054, 6.263381, -11.146505, -4.155081, 2.009330, -0.541142, 43.565781, -138.281708, 37.848480, 13.727701, 100.772431
1759316234.433368, 0.417489, 7.666383, -11.235539, -3.971183, 2.553365, -0.694305, 45.904251, -135.057083, 38.084167, 13.727701, 100.772431
1759316234.453341, -2.477550, 21.661988, 1.883937, -1.504053, 1.376899, -1.912242, 48.691589, -134.108719, 37.369263, 13.727701, 100.772431
1759316234.473352, -4.322282, 17.125874, -2.548777, -2.297216, 0.310966, -3.199732, 48.690598, -131.914886, 37.366074, 13.727701, 100.772431
1759316234.493353, -7.523031, 11.208605, -0.320823, -2.904407, 1.114127, -0.603218, 49.283112, -129.348251, 37.704086, 13.727701, 100.772431
1759316234.513377, -4.261380, 6.130204, 0.408810, -2.943104, 1.123347, 0.473930, 49.844009, -126.931183, 37.470474, 13.727701, 100.772431
1759316234.532918, -2.135778, 5.792621, 0.081702, -2.873415, 0.198658, 0.043354, 50.579224, -124.886215, 38.412247, 13.727701, 100.772431
1759316234.553350, -2.681356, 8.845827, -1.792060, -2.988568, -0.032349, -0.423815, 50.677109, -123.010544, 37.948914, 13.727701, 100.772431
1759316234.573375, -2.884564, 12.879009, -4.653430, -2.585203, 0.721118, -0.631192, 51.262878, -121.128296, 38.689117, 13.727701, 100.772431
1759316234.593388, -1.303044, 11.881375, -3.524265, -2.133598, 1.420408, -0.527725, 51.986282, -119.116501, 39.861435, 13.727701, 100.772431
1759316234.613375, -0.005088, 8.342446, -2.195333, -2.187186, 1.482114, -0.163105, 52.964127, -117.358826, 40.347855, 13.727701, 100.772431
1759316234.633385, 0.661249, 5.865944, -1.318607, -2.242217, 1.151581, 0.246816, 53.813217, -116.039566, 41.238358, 13.727701, 100.772431
1759316234.653391, 0.927304, 4.946421, -0.241216, -2.248284, 0.581162, 0.576295, 54.721420, -114.532013, 42.566528, 13.727701, 100.772431
1759316234.673379, 0.656161, 4.872649, 0.532411, -2.297590, -0.180435, 0.718862, 54.830322, -113.108032, 43.579987, 13.727701, 100.772431
1759316234.693395, 0.525378, 5.975329, 0.835427, -2.257259, -1.025984, 0.641488, 54.489914, -111.901093, 44.076721, 13.727701, 100.772431
1759316234.713357, 0.486921, 8.218097, 0.747440, -1.940576, -1.737730, 0.575439, 54.073700, -110.628815, 43.373260, 13.727701, 100.772431
1759316234.733398, 0.624587, 10.109816, 0.508618, -1.443227, -2.139472, 0.556275, 52.885559, -110.032227, 43.318268, 13.727701, 100.772431
1759316234.752788, 0.422726, 11.106552, -0.818368, -1.057238, -2.243313, 0.529322, 51.855408, -109.331970, 44.083664, 13.727701, 100.772431
1759316234.773406, -0.551415, 9.793482, -2.758420, -0.706156, -1.690771, 0.370708, 50.883286, -108.834747, 43.273758, 13.727701, 100.772431
1759316234.793406, -1.467346, 8.650849, -3.495534, -0.128231, -1.102140, 0.259016, 50.414841, -108.708267, 43.798416, 13.727701, 100.772431
1759316234.813244, -1.503858, 10.351032, -3.941754, 0.094704, -0.475170, 0.064576, 50.385757, -108.873001, 42.746628, 13.727701, 100.772431
1759316234.833400, -0.554707, 11.955147, -3.719392, -0.425855, 0.174554, -0.071473, 50.139130, -108.546082, 42.936798, 13.727701, 100.772431
1759316234.852398, 0.068684, 12.187833, -3.413084, -0.728159, 0.441023, -0.256137, 50.587418, -108.253510, 42.889511, 13.727701, 100.772431
1759316234.873404, 1.411232, 16.033669, -2.907908, -0.391351, 0.502804, 0.151530, 51.182663, -108.041412, 42.815475, 13.727701, 100.772431
1759316234.893402, 1.663821, 16.767342, -2.160318, -0.072740, 0.693865, 0.670383, 51.942154, -108.048172, 43.381088, 13.727701, 100.772431
1759316234.913411, 1.293019, 15.811607, 0.270545, -0.066263, 0.854954, 0.789109, 52.707047, -107.948929, 42.967728, 13.727701, 100.772431
1759316234.933412, -0.117914, 15.280094, 2.453009, -0.205740, 0.455062, 0.372567, 53.451157, -107.950317, 43.770767, 13.727701, 100.772431
1759316234.953389, -1.382951, 14.784644, 3.859902, -0.376604, -0.184829, -0.049427, 53.590591, -107.936401, 42.758148, 13.727701, 100.772431
1759316234.973417, -2.212542, 12.071265, 1.177498, 0.217492, -0.571345, -0.465559, 52.711960, -107.763626, 43.023605, 13.727701, 100.772431
1759316234.993423, -1.665616, 10.466552, -1.530942, 2.699658, -0.487885, -0.805568, 52.104004, -109.176651, 41.672379, 13.727701, 100.772431
1759316235.012861, -2.156278, 12.284948, -5.154267, 4.939834, 0.157006, -1.438876, 51.507797, -112.340073, 39.088608, 13.727701, 100.772431
1759316235.033420, -2.676269, 14.326155, -6.978050, 7.420917, 0.867034, -1.997247, 51.670212, -117.664795, 37.035172, 13.727704, 100.772430
1759316235.052657, -2.693477, 15.034389, -7.315633, 5.357806, -3.240759, -0.700629, 49.888962, -122.744873, 34.609665, 13.727704, 100.772430
1759316235.073465, -1.000028, 8.139687, -3.936068, 4.143101, -1.203281, -0.213490, 48.118698, -126.160660, 33.957275, 13.727704, 100.772430
1759316235.093428, -0.397138, 4.215142, 3.588160, 1.447045, 0.365890, -1.063897, 47.807663, -127.567856, 34.430405, 13.727704, 100.772430
1759316235.113435, -0.137068, 4.419397, 5.767632, -0.173898, 0.294308, -1.462948, 47.932312, -127.398087, 33.719574, 13.727704, 100.772430
1759316235.133431, 0.375590, 6.879888, 3.381810, -0.665924, -0.704558, -0.852457, 47.441330, -127.243118, 33.907761, 13.727704, 100.772430
1759316235.153438, 0.519542, 12.139650, -1.637185, 2.805601, 1.474847, 0.216624, 48.854187, -129.677185, 33.290909, 13.727704, 100.772430
1759316235.173438, -0.440533, 10.527454, 4.460996, 4.340553, 0.798902, 1.023677, 49.453369, -133.592743, 34.445312, 13.727704, 100.772430
1759316235.193304, -1.899799, 7.994539, 4.960935, 5.490536, -1.259347, 0.741969, 48.172562, -138.272858, 34.485947, 13.727704, 100.772430
1759316235.212522, -1.696292, 5.628469, 3.954772, 6.473775, -2.879699, 0.354600, 45.546844, -143.816742, 34.747192, 13.727704, 100.772430
1759316235.233448, -2.267608, -0.658705, -1.471536, 6.205483, -3.631420, 0.683038, 42.691833, -148.841064, 36.563187, 13.727704, 100.772430
1759316235.253420, -3.387795, -6.402843, -12.754212, 3.750853, -3.583324, 0.757010, 39.799301, -151.886810, 38.077820, 13.727704, 100.772430
1759316235.272735, -2.352902, -4.693982, -8.460360, 1.880933, -0.774565, 0.580960, 39.104034, -153.411758, 38.299133, 13.727704, 100.772430
1759316235.293127, -5.059397, 3.654150, -6.417807, 1.051280, -0.143003, -0.157052, 39.448105, -154.314606, 38.992340, 13.727704, 100.772430
1759316235.313451, -4.948665, 5.353585, -7.059004, 0.325020, -0.158647, -0.088538, 39.166855, -154.718201, 38.223953, 13.727704, 100.772430
1759316235.333455, -3.272574, 3.326893, -7.479187, -0.612944, 0.002975, -0.047203, 39.224075, -154.194733, 37.857910, 13.727704, 100.772430
1759316235.353427, -2.532916, 2.588132, -8.366687, -1.488262, -0.021201, 0.212576, 38.936523, -153.045334, 37.839691, 13.727704, 100.772430
1759316235.373440, -2.232743, 2.475305, -8.756044, -2.274715, 0.044200, 0.452773, 39.381760, -151.981781, 36.724152, 13.727704, 100.772430
1759316235.393008, -2.078616, 4.163517, -11.255441, -2.733213, 0.391411, 0.610466, 39.271698, -150.123383, 36.294556, 13.727704, 100.772430
1759316235.413454, -1.202488, 5.729325, -13.825018, -2.422901, 1.731470, 0.731952, 40.407669, -148.444626, 34.673065, 13.727704, 100.772430
1759316235.433461, -1.463456, 5.552004, -9.564985, -2.845491, 2.216267, 0.083291, 42.141449, -146.056061, 34.615067, 13.727704, 100.772430
1759316235.453439, -4.912453, 18.152238, -10.598233, -1.958220, 1.087278, -1.368307, 44.276382, -145.077621, 32.508240, 13.727704, 100.772430
1759316235.472633, -8.126070, 26.483312, -3.772663, -2.285951, 0.267772, -0.961503, 44.926361, -143.476761, 32.738464, 13.727704, 100.772430
1759316235.492853, -4.791097, 9.287707, -1.615936, -4.059514, 1.796103, 0.005172, 45.645706, -139.306488, 33.003662, 13.727704, 100.772430
1759316235.512912, -1.776647, 2.597110, 1.457919, -3.670119, 2.192940, 0.146282, 47.289078, -136.168671, 32.127777, 13.727704, 100.772430
1759316235.533465, -0.719158, 2.560599, 0.191985, -3.066390, 1.087064, 0.156811, 48.527924, -133.564636, 32.112137, 13.727704, 100.772430
1759316235.553449, -1.593042, 5.035156, -1.203535, -2.468790, 0.516626, -0.059769, 49.279175, -131.606461, 32.245834, 13.727704, 100.772430
1759316235.573475, -3.491793, 9.674370, -2.914043, -2.491781, 0.692894, -0.701639, 50.126831, -129.658096, 32.554138, 13.727704, 100.772430
1759316235.592691, -3.476680, 13.373861, -3.388992, -2.946993, 1.183213, -0.680950, 51.206619, -127.065842, 33.576813, 13.727704, 100.772430
1759316235.612820, -1.148319, 11.241226, -3.556287, -3.402279, 1.483165, -0.074837, 52.281616, -124.133820, 33.890335, 13.727704, 100.772430
1759316235.633468, -0.136769, 7.939173, -2.761113, -2.947994, 1.592349, 0.596343, 53.768875, -121.783646, 35.048004, 13.727704, 100.772430
1759316235.653497, 0.231489, 5.534197, -0.953790, -2.442104, 1.423634, 0.932752, 55.001450, -120.097839, 36.106567, 13.727704, 100.772430
1759316235.673506, 0.373047, 3.712359, 0.031125, -2.396609, 1.018970, 1.025640, 56.052567, -118.619019, 37.027878, 13.727704, 100.772430
